row,seconds,esp32_index,micros,ax,ay,az
0,0.000000,162,4604778,-1053.32,539.17,3156.58
1,0.000402,163,4605180,-1053.32,539.17,3156.58
2,0.000789,164,4605567,-1053.32,539.17,3156.58
3,0.001197,165,4605975,2051.68,917.17,3342.58
4,0.001577,166,4606355,2051.68,917.17,3342.58
5,0.001968,167,4606746,4804.68,1524.17,1694.58
6,0.002363,168,4607141,4804.68,1524.17,1694.58
7,0.002757,169,4607535,4804.68,1524.17,1694.58
8,0.003153,170,4607931,8609.68,1155.17,863.5799999999999
9,0.003544,171,4608322,8609.68,1155.17,863.5799999999999
10,0.003926,172,4608704,11831.68,181.17000000000002,1327.58
11,0.004320,173,4609098,11831.68,181.17000000000002,1327.58
12,0.004716,174,4609494,11831.68,181.17000000000002,1327.58
13,0.005110,175,4609888,9373.68,-310.83,91.57999999999993
14,0.005517,176,4610295,9373.68,-310.83,91.57999999999993
15,0.005912,177,4610690,2600.68,-224.82999999999998,-2320.42
16,0.006306,178,4611084,2600.68,-224.82999999999998,-2320.42
17,0.006717,179,4611495,2600.68,-224.82999999999998,-2320.42
18,0.007118,180,4611896,-2513.32,-500.83,-3590.42
19,0.007531,181,4612309,-2513.32,-500.83,-3590.42
20,0.007935,182,4612713,-3417.32,-749.83,-3600.42
21,0.008345,183,4613123,-3417.32,-749.83,-3600.42
22,0.008754,184,4613532,-3417.32,-749.83,-3600.42
23,0.009168,185,4613946,-1878.32,-806.83,-3165.42
24,0.009564,186,4614342,-1878.32,-806.83,-3165.42
25,0.009977,187,4614755,-378.32,-1239.83,-2696.42
26,0.010387,188,4615165,-378.32,-1239.83,-2696.42
27,0.010796,189,4615574,-378.32,-1239.83,-2696.42
28,0.011210,190,4615988,629.6800000000001,-912.83,-2080.42
29,0.011592,191,4616370,629.6800000000001,-912.83,-2080.42
30,0.011998,192,4616776,-589.3199999999999,-440.83,-821.4200000000001
31,0.012407,193,4617185,-589.3199999999999,-440.83,-821.4200000000001
32,0.012809,194,4617587,-589.3199999999999,-440.83,-821.4200000000001
33,0.013225,195,4618003,-870.3199999999999,-197.82999999999998,929.5799999999999
34,0.013624,196,4618402,-870.3199999999999,-197.82999999999998,929.5799999999999
35,0.014041,197,4618819,-769.3199999999999,455.17,1799.58
36,0.014435,198,4619213,-769.3199999999999,455.17,1799.58
37,0.014837,199,4619615,996.6800000000001,1006.17,2006.58
38,0.015236,200,4620014,996.6800000000001,1006.17,2006.58
39,0.015625,201,4620403,996.6800000000001,1006.17,2006.58
40,0.016015,202,4620793,1330.68,884.17,3256.58
41,0.016410,203,4621188,1330.68,884.17,3256.58
42,0.016803,204,4621581,1330.68,884.17,3256.58
43,0.017203,205,4621981,1409.68,855.17,4211.58
44,0.017582,206,4622360,1409.68,855.17,4211.58
45,0.017986,207,4622764,-4573.32,937.17,3387.58
46,0.018372,208,4623150,-4573.32,937.17,3387.58
47,0.018767,209,4623545,-4573.32,937.17,3387.58
48,0.019173,210,4623951,-9994.32,43.17,1643.58
49,0.019562,211,4624340,-9994.32,43.17,1643.58
50,0.019962,212,4624740,-10395.32,46.17,-45.42000000000007
51,0.020355,213,4625133,-10395.32,46.17,-45.42000000000007
52,0.020754,214,4625532,-10395.32,46.17,-45.42000000000007
53,0.021154,215,4625932,-9197.32,127.17,-1322.42
54,0.021548,216,4626326,-9197.32,127.17,-1322.42
55,0.021945,217,4626723,1078.68,-282.83,-1843.42
56,0.022339,218,4627117,1078.68,-282.83,-1843.42
57,0.022747,219,4627525,1078.68,-282.83,-1843.42
58,0.023152,220,4627930,7637.68,-78.83,-2729.42
59,0.023547,221,4628325,7637.68,-78.83,-2729.42
60,0.023944,222,4628722,12330.68,-72.83,-1664.42
61,0.024346,223,4629124,12330.68,-72.83,-1664.42
62,0.024748,224,4629526,12330.68,-72.83,-1664.42
63,0.025153,225,4629931,9970.68,-47.83,141.57999999999993
64,0.025548,226,4630326,9970.68,-47.83,141.57999999999993
65,0.025937,227,4630715,3271.68,264.17,-343.4200000000001
66,0.026330,228,4631108,3271.68,264.17,-343.4200000000001
67,0.026727,229,4631505,3271.68,264.17,-343.4200000000001
68,0.027120,230,4631898,-1138.32,327.17,-274.4200000000001
69,0.027527,231,4632305,-1138.32,327.17,-274.4200000000001
70,0.027916,232,4632694,-4192.32,-265.83,187.57999999999993
71,0.028332,233,4633110,-4192.32,-265.83,187.57999999999993
72,0.028741,234,4633519,-4192.32,-265.83,187.57999999999993
73,0.029155,235,4633933,-2913.32,-499.83,-264.4200000000001
74,0.029555,236,4634333,-2913.32,-499.83,-264.4200000000001
75,0.029969,237,4634747,-254.32,-449.83,-1843.42
76,0.030379,238,4635157,-254.32,-449.83,-1843.42
77,0.030788,239,4635566,-254.32,-449.83,-1843.42
78,0.031200,240,4635978,1512.68,-575.83,-2860.42
79,0.031588,241,4636366,1512.68,-575.83,-2860.42
80,0.031999,242,4636777,-305.32,-496.83,-2874.42
81,0.032393,243,4637171,-305.32,-496.83,-2874.42
82,0.032796,244,4637574,-305.32,-496.83,-2874.42
83,0.033204,245,4637982,-2449.32,-368.83,-2334.42
84,0.033609,246,4638387,-2449.32,-368.83,-2334.42
85,0.034018,247,4638796,-5118.32,-547.83,-666.4200000000001
86,0.034427,248,4639205,-5118.32,-547.83,-666.4200000000001
87,0.034839,249,4639617,-6021.32,-494.83,1345.58
88,0.035250,250,4640028,-6021.32,-494.83,1345.58
89,0.035658,251,4640436,-6021.32,-494.83,1345.58
90,0.036052,252,4640830,-3602.32,-62.83,2598.58
91,0.036429,253,4641207,-3602.32,-62.83,2598.58
92,0.036813,254,4641591,-3602.32,-62.83,2598.58
93,0.037235,255,4642013,-1482.32,312.17,2927.58
94,0.037625,256,4642403,-1482.32,312.17,2927.58
95,0.038029,257,4642807,528.6800000000001,758.17,3221.58
96,0.038417,258,4643195,528.6800000000001,758.17,3221.58
97,0.038802,259,4643580,528.6800000000001,758.17,3221.58
98,0.039195,260,4643973,3112.68,1474.17,2425.58
99,0.039575,261,4644353,3112.68,1474.17,2425.58
100,0.039966,262,4644744,8243.68,1331.17,1116.58
101,0.040361,263,4645139,8243.68,1331.17,1116.58
102,0.040751,264,4645529,8243.68,1331.17,1116.58
103,0.041149,265,4645927,11450.68,449.17,990.5799999999999
104,0.041543,266,4646321,11450.68,449.17,990.5799999999999
105,0.041926,267,4646704,9498.68,-259.83,675.5799999999999
106,0.042328,268,4647106,9498.68,-259.83,675.5799999999999
107,0.042738,269,4647516,9498.68,-259.83,675.5799999999999
108,0.043132,270,4647910,5105.68,-325.83,-1178.42
109,0.043528,271,4648306,5105.68,-325.83,-1178.42
110,0.043917,272,4648695,-628.3199999999999,-251.82999999999998,-3376.42
111,0.044333,273,4649111,-628.3199999999999,-251.82999999999998,-3376.42
112,0.044743,274,4649521,-628.3199999999999,-251.82999999999998,-3376.42
113,0.045156,275,4649934,-3711.32,-555.83,-3858.42
114,0.045551,276,4650329,-3711.32,-555.83,-3858.42
115,0.045955,277,4650733,-2459.32,-872.83,-3214.42
116,0.046365,278,4651143,-2459.32,-872.83,-3214.42
117,0.046778,279,4651556,-2459.32,-872.83,-3214.42
118,0.047190,280,4651968,-604.3199999999999,-1294.83,-2730.42
119,0.047586,281,4652364,-604.3199999999999,-1294.83,-2730.42
120,0.047999,282,4652777,444.68,-1125.83,-2495.42
121,0.048396,283,4653174,444.68,-1125.83,-2495.42
122,0.048797,284,4653575,444.68,-1125.83,-2495.42
123,0.049185,285,4653963,-278.32,-288.83,-1517.42
124,0.049581,286,4654359,-278.32,-288.83,-1517.42
125,0.049993,287,4654771,-664.3199999999999,-458.83,584.5799999999999
126,0.050403,288,4655181,-664.3199999999999,-458.83,584.5799999999999
127,0.050813,289,4655591,-664.3199999999999,-458.83,584.5799999999999
128,0.051227,290,4656005,-1373.32,32.17,1694.58
129,0.051619,291,4656397,-1373.32,32.17,1694.58
130,0.052021,292,4656799,149.68,1120.17,1772.58
131,0.052423,293,4657201,149.68,1120.17,1772.58
132,0.052825,294,4657603,149.68,1120.17,1772.58
133,0.053229,295,4658007,1828.68,1037.17,2535.58
134,0.053612,296,4658390,1828.68,1037.17,2535.58
135,0.054001,297,4658779,1552.68,824.17,3934.58
136,0.054394,298,4659172,1552.68,824.17,3934.58
137,0.054789,299,4659567,1552.68,824.17,3934.58
138,0.055187,300,4659965,-1667.32,789.17,4085.58
139,0.055582,301,4660360,-1667.32,789.17,4085.58
140,0.055987,302,4660765,-8703.32,546.17,2326.58
141,0.056389,303,4661167,-8703.32,546.17,2326.58
142,0.056786,304,4661564,-8703.32,546.17,2326.58
143,0.057192,305,4661970,-10223.32,-199.82999999999998,668.5799999999999
144,0.057587,306,4662365,-10223.32,-199.82999999999998,668.5799999999999
145,0.058000,307,4662778,-10617.32,118.17,-1192.42
146,0.058404,308,4663182,-10617.32,118.17,-1192.42
147,0.058787,309,4663565,-10617.32,118.17,-1192.42
148,0.059194,310,4663972,-3549.32,156.17000000000002,-1770.42
149,0.059580,311,4664358,-3549.32,156.17000000000002,-1770.42
150,0.059978,312,4664756,6113.68,-406.83,-2554.42
151,0.060387,313,4665165,6113.68,-406.83,-2554.42
152,0.060788,314,4665566,6113.68,-406.83,-2554.42
153,0.061194,315,4665972,11954.68,-236.82999999999998,-2420.42
154,0.061581,316,4666359,11954.68,-236.82999999999998,-2420.42
155,0.061987,317,4666765,11867.68,-40.83,-78.42000000000007
156,0.062381,318,4667159,11867.68,-40.83,-78.42000000000007
157,0.062789,319,4667567,11867.68,-40.83,-78.42000000000007
158,0.063194,320,4667972,5007.68,222.17000000000002,-227.42000000000007
159,0.063574,321,4668352,5007.68,222.17000000000002,-227.42000000000007
160,0.063964,322,4668742,-306.32,497.17,-646.4200000000001
161,0.064373,323,4669151,-306.32,497.17,-646.4200000000001
162,0.064767,324,4669545,-306.32,497.17,-646.4200000000001
163,0.065181,325,4669959,-3874.32,-93.83,150.57999999999993
164,0.065576,326,4670354,-3874.32,-93.83,150.57999999999993
165,0.065962,327,4670740,-2785.32,-507.83,131.57999999999993
166,0.066366,328,4671144,-2785.32,-507.83,131.57999999999993
167,0.066778,329,4671556,-2785.32,-507.83,131.57999999999993
168,0.067193,330,4671971,-665.3199999999999,-275.83,-1231.42
169,0.067588,331,4672366,-665.3199999999999,-275.83,-1231.42
170,0.068001,332,4672779,962.6800000000001,-679.83,-2436.42
171,0.068403,333,4673181,962.6800000000001,-679.83,-2436.42
172,0.068797,334,4673575,962.6800000000001,-679.83,-2436.42
173,0.069211,335,4673989,168.68,-518.83,-2948.42
174,0.069592,336,4674370,168.68,-518.83,-2948.42
175,0.069998,337,4674776,-1894.32,-429.83,-2617.42
176,0.070407,338,4675185,-1894.32,-429.83,-2617.42
177,0.070817,339,4675595,-1894.32,-429.83,-2617.42
178,0.071231,340,4676009,-4774.32,-463.83,-1331.42
179,0.071629,341,4676407,-4774.32,-463.83,-1331.42
180,0.072040,342,4676818,-5686.32,-498.83,686.5799999999999
181,0.072450,343,4677228,-5686.32,-498.83,686.5799999999999
182,0.072860,344,4677638,-4325.32,-336.83,2256.58
183,0.073273,345,4678051,-4325.32,-336.83,2256.58
184,0.073680,346,4678458,-4325.32,-336.83,2256.58
185,0.074089,347,4678867,-2576.32,199.17000000000002,2651.58
186,0.074490,348,4679268,-2576.32,199.17000000000002,2651.58
187,0.074892,349,4679670,-468.32,606.17,3112.58
188,0.075294,350,4680072,-468.32,606.17,3112.58
189,0.075697,351,4680475,-468.32,606.17,3112.58
190,0.076099,352,4680877,3358.68,1121.17,2944.58
191,0.076488,353,4681266,3358.68,1121.17,2944.58
192,0.076878,354,4681656,7352.68,1527.17,1226.58
193,0.077272,355,4682050,7352.68,1527.17,1226.58
194,0.077667,356,4682445,7352.68,1527.17,1226.58
195,0.078056,357,4682834,8835.68,1001.17,774.5799999999999
196,0.078445,358,4683223,8835.68,1001.17,774.5799999999999
197,0.078840,359,4683618,10616.68,-195.82999999999998,1399.58
198,0.079246,360,4684024,10616.68,-195.82999999999998,1399.58
199,0.079635,361,4684413,10616.68,-195.82999999999998,1399.58
200,0.080045,362,4684823,7865.68,-268.83,-401.4200000000001
201,0.080446,363,4685224,7865.68,-268.83,-401.4200000000001
202,0.080840,364,4685618,1017.6800000000001,-194.82999999999998,-2949.42
203,0.081255,365,4686033,1017.6800000000001,-194.82999999999998,-2949.42
204,0.081651,366,4686429,1017.6800000000001,-194.82999999999998,-2949.42
205,0.082052,367,4686830,-3762.32,-474.83,-3873.42
206,0.082446,368,4687224,-3762.32,-474.83,-3873.42
207,0.082842,369,4687620,-2897.32,-808.83,-3453.42
208,0.083262,370,4688040,-2897.32,-808.83,-3453.42
209,0.083666,371,4688444,-2897.32,-808.83,-3453.42
210,0.084078,372,4688856,-877.3199999999999,-1150.83,-2817.42
211,0.084488,373,4689266,-877.3199999999999,-1150.83,-2817.42
212,0.084898,374,4689676,468.68,-1119.83,-2518.42
213,0.085301,375,4690079,468.68,-1119.83,-2518.42
214,0.085698,376,4690476,468.68,-1119.83,-2518.42
215,0.086107,377,4690885,81.68,-663.83,-1863.42
216,0.086521,378,4691299,81.68,-663.83,-1863.42
217,0.086924,379,4691702,-1183.32,-291.83,-214.42000000000007
218,0.087334,380,4692112,-1183.32,-291.83,-214.42000000000007
219,0.087744,381,4692522,-1183.32,-291.83,-214.42000000000007
220,0.088159,382,4692937,-1089.32,-313.83,1559.58
221,0.088561,383,4693339,-1089.32,-313.83,1559.58
222,0.088971,384,4693749,-662.3199999999999,817.17,1636.58
223,0.089374,385,4694152,-662.3199999999999,817.17,1636.58
224,0.089760,386,4694538,-662.3199999999999,817.17,1636.58
225,0.090171,387,4694949,402.68,1337.17,1917.58
226,0.090551,388,4695329,402.68,1337.17,1917.58
227,0.090941,389,4695719,1096.68,651.17,3742.58
228,0.091337,390,4696115,1096.68,651.17,3742.58
229,0.091729,391,4696507,1096.68,651.17,3742.58
230,0.092122,392,4696900,1258.68,879.17,4282.58
231,0.092520,393,4697298,1258.68,879.17,4282.58
232,0.092901,394,4697679,-4767.32,354.17,3027.58
233,0.093297,395,4698075,-4767.32,354.17,3027.58
234,0.093707,396,4698485,-4767.32,354.17,3027.58
235,0.094101,397,4698879,-10055.32,-13.829999999999998,1268.58
236,0.094507,398,4699285,-10055.32,-13.829999999999998,1268.58
237,0.094911,399,4699689,-12297.32,384.17,-818.4200000000001
238,0.095313,400,4700091,-12297.32,384.17,-818.4200000000001
239,0.095708,401,4700486,-12297.32,384.17,-818.4200000000001
240,0.096118,402,4700896,-6671.32,-88.83,-1674.42
241,0.096531,403,4701309,-6671.32,-88.83,-1674.42
242,0.096935,404,4701713,3678.68,-365.83,-2175.42
243,0.097337,405,4702115,3678.68,-365.83,-2175.42
244,0.097742,406,4702520,3678.68,-365.83,-2175.42
245,0.098147,407,4702925,10902.68,-86.83,-2826.42
246,0.098533,408,4703311,10902.68,-86.83,-2826.42
247,0.098902,409,4703680,12719.68,25.17,-1083.42
248,0.099263,410,4704041,12719.68,25.17,-1083.42
249,0.099647,411,4704425,12719.68,25.17,-1083.42
250,0.100029,412,4704807,7013.68,-17.83,161.57999999999993
251,0.100423,413,4705201,7013.68,-17.83,161.57999999999993
252,0.100817,414,4705595,895.6800000000001,422.17,-580.4200000000001
253,0.101213,415,4705991,895.6800000000001,422.17,-580.4200000000001
254,0.101593,416,4706371,895.6800000000001,422.17,-580.4200000000001
255,0.101996,417,4706774,-3624.32,395.17,-214.42000000000007
256,0.102399,418,4707177,-3624.32,395.17,-214.42000000000007
257,0.102801,419,4707579,-3624.32,395.17,-214.42000000000007
258,0.103208,420,4707986,-2917.32,-505.83,295.5799999999999
259,0.103607,421,4708385,-2917.32,-505.83,295.5799999999999
260,0.104015,422,4708793,-1815.32,-411.83,-836.4200000000001
261,0.104425,423,4709203,-1815.32,-411.83,-836.4200000000001
262,0.104835,424,4709613,493.68,-390.83,-2101.42
263,0.105241,425,4710019,493.68,-390.83,-2101.42
264,0.105625,426,4710403,493.68,-390.83,-2101.42
265,0.106029,427,4710807,1387.68,-705.83,-2787.42
266,0.106423,428,4711201,1387.68,-705.83,-2787.42
267,0.106832,429,4711610,-1554.32,-514.83,-2707.42
268,0.107244,430,4712022,-1554.32,-514.83,-2707.42
269,0.107650,431,4712428,-1554.32,-514.83,-2707.42
270,0.108059,432,4712837,-3635.32,-262.83,-1713.42
271,0.108468,433,4713246,-3635.32,-262.83,-1713.42
272,0.108878,434,4713656,-5870.32,-555.83,9.579999999999927
273,0.109289,435,4714067,-5870.32,-555.83,9.579999999999927
274,0.109699,436,4714477,-5870.32,-555.83,9.579999999999927
275,0.110103,437,4714881,-4875.32,-534.83,1795.58
276,0.110522,438,4715300,-4875.32,-534.83,1795.58
277,0.110925,439,4715703,-2400.32,231.17000000000002,2560.58
278,0.111328,440,4716106,-2400.32,231.17000000000002,2560.58
279,0.111731,441,4716509,-2400.32,231.17000000000002,2560.58
280,0.112138,442,4716916,-882.3199999999999,460.17,2954.58
281,0.112532,443,4717310,-882.3199999999999,460.17,2954.58
282,0.112927,444,4717705,2411.68,838.17,3056.58
283,0.113322,445,4718100,2411.68,838.17,3056.58
284,0.113712,446,4718490,2411.68,838.17,3056.58
285,0.114107,447,4718885,5003.68,1465.17,1541.58
286,0.114505,448,4719283,5003.68,1465.17,1541.58
287,0.114893,449,4719671,8151.68,1077.17,929.5799999999999
288,0.115288,450,4720066,8151.68,1077.17,929.5799999999999
289,0.115675,451,4720453,8151.68,1077.17,929.5799999999999
290,0.116065,452,4720843,11226.68,112.17,1288.58
291,0.116452,453,4721230,11226.68,112.17,1288.58
292,0.116844,454,4721622,8692.68,-292.83,-156.42000000000007
293,0.117247,455,4722025,8692.68,-292.83,-156.42000000000007
294,0.117650,456,4722428,8692.68,-292.83,-156.42000000000007
295,0.118053,457,4722831,2300.68,-217.82999999999998,-2220.42
296,0.118455,458,4723233,2300.68,-217.82999999999998,-2220.42
297,0.118856,459,4723634,-2381.32,-376.83,-3463.42
298,0.119270,460,4724048,-2381.32,-376.83,-3463.42
299,0.119674,461,4724452,-2381.32,-376.83,-3463.42
300,0.120051,462,4724829,-3079.32,-748.83,-3810.42
301,0.120455,463,4725233,-3079.32,-748.83,-3810.42
302,0.120865,464,4725643,-1606.32,-956.83,-3103.42
303,0.121271,465,4726049,-1606.32,-956.83,-3103.42
304,0.121668,466,4726446,-1606.32,-956.83,-3103.42
305,0.122084,467,4726862,256.68,-1032.83,-2252.42
306,0.122484,468,4727262,256.68,-1032.83,-2252.42
307,0.122889,469,4727667,795.6800000000001,-1051.83,-1810.42
308,0.123290,470,4728068,795.6800000000001,-1051.83,-1810.42
309,0.123688,471,4728466,795.6800000000001,-1051.83,-1810.42
310,0.124097,472,4728875,-1518.32,-234.82999999999998,-987.4200000000001
311,0.124511,473,4729289,-1518.32,-234.82999999999998,-987.4200000000001
312,0.124914,474,4729692,-1438.32,-80.83,1218.58
313,0.125324,475,4730102,-1438.32,-80.83,1218.58
314,0.125727,476,4730505,-1438.32,-80.83,1218.58
315,0.126131,477,4730909,-890.3199999999999,257.17,2015.58
316,0.126530,478,4731308,-890.3199999999999,257.17,2015.58
317,0.126920,479,4731698,360.68,1154.17,1787.58
318,0.127321,480,4732099,360.68,1154.17,1787.58
319,0.127707,481,4732485,360.68,1154.17,1787.58
320,0.128101,482,4732879,1845.68,797.17,3123.58
321,0.128500,483,4733278,1845.68,797.17,3123.58
322,0.128889,484,4733667,2988.68,916.17,4114.58
323,0.129283,485,4734061,2988.68,916.17,4114.58
324,0.129676,486,4734454,2988.68,916.17,4114.58
325,0.130069,487,4734847,-3500.32,638.17,3319.58
326,0.130477,488,4735255,-3500.32,638.17,3319.58
327,0.130880,489,4735658,-10261.32,-73.83,1463.58
328,0.131289,490,4736067,-10261.32,-73.83,1463.58
329,0.131700,491,4736478,-10261.32,-73.83,1463.58
330,0.132110,492,4736888,-12441.32,313.17,-522.4200000000001
331,0.132511,493,4737289,-12441.32,313.17,-522.4200000000001
332,0.132900,494,4737678,-9677.32,61.17,-1769.42
333,0.133310,495,4738088,-9677.32,61.17,-1769.42
334,0.133714,496,4738492,-9677.32,61.17,-1769.42
335,0.134116,497,4738894,1958.68,-387.83,-1668.42
336,0.134523,498,4739301,1958.68,-387.83,-1668.42
337,0.134919,499,4739697,9085.68,-80.83,-2735.42
338,0.135321,500,4740099,9085.68,-80.83,-2735.42
339,0.135726,501,4740504,9085.68,-80.83,-2735.42
340,0.136121,502,4740899,12721.68,-169.82999999999998,-1698.42
341,0.136528,503,4741306,12721.68,-169.82999999999998,-1698.42
342,0.136924,504,4741702,8840.68,-41.83,368.5799999999999
343,0.137326,505,4742104,8840.68,-41.83,368.5799999999999
344,0.137722,506,4742500,8840.68,-41.83,368.5799999999999
345,0.138123,507,4742901,2466.68,249.17000000000002,-259.4200000000001
346,0.138520,508,4743298,2466.68,249.17000000000002,-259.4200000000001
347,0.138902,509,4743680,-2062.32,495.17,-470.4200000000001
348,0.139311,510,4744089,-2062.32,495.17,-470.4200000000001
349,0.139714,511,4744492,-2062.32,495.17,-470.4200000000001
350,0.140117,512,4744895,-3788.32,-384.83,235.57999999999993
351,0.140530,513,4745308,-3788.32,-384.83,235.57999999999993
352,0.140934,514,4745712,-2257.32,-591.83,-312.4200000000001
353,0.141344,515,4746122,-2257.32,-591.83,-312.4200000000001
354,0.141752,516,4746530,-2257.32,-591.83,-312.4200000000001
355,0.142166,517,4746944,595.6800000000001,-173.82999999999998,-1750.42
356,0.142562,518,4747340,595.6800000000001,-173.82999999999998,-1750.42
357,0.142966,519,4747744,1351.68,-581.83,-2498.42
358,0.143360,520,4748138,1351.68,-581.83,-2498.42
359,0.143755,521,4748533,1351.68,-581.83,-2498.42
360,0.144165,522,4748943,-1028.32,-632.83,-2899.42
361,0.144567,523,4749345,-1028.32,-632.83,-2899.42
362,0.144978,524,4749756,-3082.32,-273.83,-2304.42
363,0.145388,525,4750166,-3082.32,-273.83,-2304.42
364,0.145798,526,4750576,-3082.32,-273.83,-2304.42
365,0.146212,527,4750990,-5629.32,-537.83,-398.4200000000001
366,0.146612,528,4751390,-5629.32,-537.83,-398.4200000000001
367,0.147022,529,4751800,-5460.32,-651.83,1247.58
368,0.147432,530,4752210,-5460.32,-651.83,1247.58
369,0.147841,531,4752619,-3326.32,181.17000000000002,2138.58
370,0.148246,532,4753024,-3326.32,181.17000000000002,2138.58
371,0.148635,533,4753413,-3326.32,181.17000000000002,2138.58
372,0.149039,534,4753817,-464.32,282.17,2861.58
373,0.149440,535,4754218,-464.32,282.17,2861.58
374,0.149849,536,4754627,1535.68,791.17,3108.58
375,0.150242,537,4755020,1535.68,791.17,3108.58
376,0.150630,538,4755408,1535.68,791.17,3108.58
377,0.151030,539,4755808,3359.68,1444.17,2090.58
378,0.151417,540,4756195,3359.68,1444.17,2090.58
379,0.151812,541,4756590,7667.68,1225.17,1043.58
380,0.152210,542,4756988,7667.68,1225.17,1043.58
381,0.152584,543,4757362,7667.68,1225.17,1043.58
382,0.152975,544,4757753,11003.68,397.17,1159.58
383,0.153377,545,4758155,11003.68,397.17,1159.58
384,0.153765,546,4758543,11003.68,397.17,1159.58
385,0.154163,547,4758941,9195.68,-275.83,530.5799999999999
386,0.154550,548,4759328,9195.68,-275.83,530.5799999999999
387,0.154949,549,4759727,4460.68,-260.83,-1462.42
388,0.155357,550,4760135,4460.68,-260.83,-1462.42
389,0.155761,551,4760539,4460.68,-260.83,-1462.42
390,0.156168,552,4760946,-604.3199999999999,-450.83,-3186.42
391,0.156563,553,4761341,-604.3199999999999,-450.83,-3186.42
392,0.156974,554,4761752,-3638.32,-592.83,-3914.42
393,0.157385,555,4762163,-3638.32,-592.83,-3914.42
394,0.157795,556,4762573,-3638.32,-592.83,-3914.42
395,0.158209,557,4762987,-2327.32,-729.83,-3307.42
396,0.158608,558,4763386,-2327.32,-729.83,-3307.42
397,0.159012,559,4763790,-206.32,-1206.83,-2359.42
398,0.159421,560,4764199,-206.32,-1206.83,-2359.42
399,0.159830,561,4764608,422.68,-1115.83,-2180.42
400,0.160235,562,4765013,422.68,-1115.83,-2180.42
401,0.160625,563,4765403,422.68,-1115.83,-2180.42
402,0.161021,564,4765799,-550.3199999999999,-299.83,-1265.42
403,0.161438,565,4766216,-550.3199999999999,-299.83,-1265.42
404,0.161848,566,4766626,-1061.32,-408.83,789.5799999999999
405,0.162261,567,4767039,-1061.32,-408.83,789.5799999999999
406,0.162667,568,4767445,-1061.32,-408.83,789.5799999999999
407,0.163078,569,4767856,-1726.32,218.17000000000002,1895.58
408,0.163480,570,4768258,-1726.32,218.17000000000002,1895.58
409,0.163882,571,4768660,455.68,1102.17,1752.58
410,0.164268,572,4769046,455.68,1102.17,1752.58
411,0.164666,573,4769444,455.68,1102.17,1752.58
412,0.165054,574,4769832,1857.68,1032.17,2456.58
413,0.165448,575,4770226,1857.68,1032.17,2456.58
414,0.165834,576,4770612,2829.68,793.17,3963.58
415,0.166224,577,4771002,2829.68,793.17,3963.58
416,0.166597,578,4771375,2829.68,793.17,3963.58
417,0.166989,579,4771767,-1939.32,738.17,3705.58
418,0.167388,580,4772166,-1939.32,738.17,3705.58
419,0.167791,581,4772569,-1939.32,738.17,3705.58
420,0.168189,582,4772967,-9441.32,283.17,2190.58
421,0.168584,583,4773362,-9441.32,283.17,2190.58
422,0.168983,584,4773761,-10555.32,-259.83,297.5799999999999
423,0.169400,585,4774178,-10555.32,-259.83,297.5799999999999
424,0.169810,586,4774588,-10555.32,-259.83,297.5799999999999
425,0.170225,587,4775003,-11005.32,235.17000000000002,-1590.42
426,0.170616,588,4775394,-11005.32,235.17000000000002,-1590.42
427,0.171012,589,4775790,-2570.32,3.1700000000000017,-1691.42
428,0.171420,590,4776198,-2570.32,3.1700000000000017,-1691.42
429,0.171814,591,4776592,6852.68,-368.83,-2434.42
430,0.172227,592,4777005,6852.68,-368.83,-2434.42
431,0.172617,593,4777395,6852.68,-368.83,-2434.42
432,0.173014,594,4777792,12218.68,-76.83,-2394.42
433,0.173414,595,4778192,12218.68,-76.83,-2394.42
434,0.173823,596,4778601,11375.68,0.1700000000000017,66.57999999999993
435,0.174222,597,4779000,11375.68,0.1700000000000017,66.57999999999993
436,0.174595,598,4779373,11375.68,0.1700000000000017,66.57999999999993
437,0.174992,599,4779770,4746.68,192.17000000000002,214.57999999999993
438,0.175394,600,4780172,4746.68,192.17000000000002,214.57999999999993
439,0.175780,601,4780558,4746.68,192.17000000000002,214.57999999999993
440,0.176185,602,4780963,-1016.3199999999999,613.17,-480.4200000000001
441,0.176572,603,4781350,-1016.3199999999999,613.17,-480.4200000000001
442,0.176978,604,4781756,-4371.32,-193.82999999999998,326.5799999999999
443,0.177387,605,4782165,-4371.32,-193.82999999999998,326.5799999999999
444,0.177797,606,4782575,-4371.32,-193.82999999999998,326.5799999999999
445,0.178211,607,4782989,-3010.32,-543.83,-37.42000000000007
446,0.178611,608,4783389,-3010.32,-543.83,-37.42000000000007
447,0.179015,609,4783793,-169.32,-277.83,-1490.42
448,0.179425,610,4784203,-169.32,-277.83,-1490.42
449,0.179835,611,4784613,1626.68,-639.83,-2533.42
450,0.180240,612,4785018,1626.68,-639.83,-2533.42
451,0.180631,613,4785409,1626.68,-639.83,-2533.42
452,0.181027,614,4785805,158.68,-513.83,-2950.42
453,0.181428,615,4786206,158.68,-513.83,-2950.42
454,0.181836,616,4786614,-2613.32,-390.83,-2547.42
455,0.182248,617,4787026,-2613.32,-390.83,-2547.42
456,0.182648,618,4787426,-2613.32,-390.83,-2547.42
457,0.183060,619,4787838,-5166.32,-516.83,-1211.42
458,0.183471,620,4788249,-5166.32,-516.83,-1211.42
459,0.183874,621,4788652,-5804.32,-546.83,830.5799999999999
460,0.184286,622,4789064,-5804.32,-546.83,830.5799999999999
461,0.184697,623,4789475,-5804.32,-546.83,830.5799999999999
462,0.185106,624,4789884,-3947.32,-198.82999999999998,2236.58
463,0.185520,625,4790298,-3947.32,-198.82999999999998,2236.58
464,0.185924,626,4790702,-1274.32,385.17,2773.58
465,0.186327,627,4791105,-1274.32,385.17,2773.58
466,0.186721,628,4791499,-1274.32,385.17,2773.58
467,0.187130,629,4791908,550.6800000000001,668.17,3207.58
468,0.187521,630,4792299,550.6800000000001,668.17,3207.58
469,0.187902,631,4792680,3736.68,1074.17,2858.58
470,0.188296,632,4793074,3736.68,1074.17,2858.58
471,0.188691,633,4793469,3736.68,1074.17,2858.58
472,0.189084,634,4793862,7273.68,1546.17,1315.58
473,0.189482,635,4794260,7273.68,1546.17,1315.58
474,0.189871,636,4794649,8806.68,829.17,816.5799999999999
475,0.190265,637,4795043,8806.68,829.17,816.5799999999999
476,0.190663,638,4795441,8806.68,829.17,816.5799999999999
477,0.191051,639,4795829,9461.68,-220.82999999999998,926.5799999999999
478,0.191460,640,4796238,9461.68,-220.82999999999998,926.5799999999999
479,0.191862,641,4796640,6817.68,-355.83,-774.4200000000001
480,0.192259,642,4797037,6817.68,-355.83,-774.4200000000001
481,0.192663,643,4797441,6817.68,-355.83,-774.4200000000001
482,0.193066,644,4797844,871.6800000000001,-326.83,-3041.42
483,0.193468,645,4798246,871.6800000000001,-326.83,-3041.42
484,0.193863,646,4798641,-3731.32,-410.83,-3861.42
485,0.194279,647,4799057,-3731.32,-410.83,-3861.42
486,0.194683,648,4799461,-3731.32,-410.83,-3861.42
487,0.195099,649,4799877,-2669.32,-934.83,-3327.42
488,0.195514,650,4800292,-2669.32,-934.83,-3327.42
489,0.195918,651,4800696,-1098.32,-1190.83,-2742.42
490,0.196328,652,4801106,-1098.32,-1190.83,-2742.42
491,0.196739,653,4801517,-1098.32,-1190.83,-2742.42
492,0.197151,654,4801929,92.68,-856.83,-2308.42
493,0.197553,655,4802331,92.68,-856.83,-2308.42
494,0.197956,656,4802734,84.68,-757.83,-1498.42
495,0.198365,657,4803143,84.68,-757.83,-1498.42
496,0.198776,658,4803554,84.68,-757.83,-1498.42
497,0.199176,659,4803954,-1229.32,-386.83,-124.42000000000007
498,0.199566,660,4804344,-1229.32,-386.83,-124.42000000000007
499,0.199978,661,4804756,-529.3199999999999,53.17,1507.58
500,0.200379,662,4805157,-529.3199999999999,53.17,1507.58
501,0.200781,663,4805559,-529.3199999999999,53.17,1507.58
502,0.201176,664,4805954,912.6800000000001,894.17,1851.58
503,0.201563,665,4806341,912.6800000000001,894.17,1851.58
504,0.201954,666,4806732,1531.68,1169.17,2322.58
505,0.202348,667,4807126,1531.68,1169.17,2322.58
506,0.202744,668,4807522,1531.68,1169.17,2322.58
507,0.203142,669,4807920,871.6800000000001,759.17,3765.58
508,0.203536,670,4808314,871.6800000000001,759.17,3765.58
509,0.203918,671,4808696,13.680000000000007,941.17,3947.58
510,0.204326,672,4809104,13.680000000000007,941.17,3947.58
511,0.204730,673,4809508,13.680000000000007,941.17,3947.58
512,0.205126,674,4809904,-6291.32,274.17,2800.58
513,0.205530,675,4810308,-6291.32,274.17,2800.58
514,0.205919,676,4810697,-11032.32,7.170000000000002,906.5799999999999
515,0.206328,677,4811106,-11032.32,7.170000000000002,906.5799999999999
516,0.206723,678,4811501,-11032.32,7.170000000000002,906.5799999999999
517,0.207131,679,4811909,-11845.32,200.17000000000002,-1142.42
518,0.207531,680,4812309,-11845.32,200.17000000000002,-1142.42
519,0.207928,681,4812706,-5554.32,-259.83,-1863.42
520,0.208337,682,4813115,-5554.32,-259.83,-1863.42
521,0.208749,683,4813527,-5554.32,-259.83,-1863.42
522,0.209160,684,4813938,4511.68,-184.82999999999998,-2279.42
523,0.209556,685,4814334,4511.68,-184.82999999999998,-2279.42
524,0.209945,686,4814723,10562.68,40.17,-2601.42
525,0.210340,687,4815118,10562.68,40.17,-2601.42
526,0.210735,688,4815513,10562.68,40.17,-2601.42
527,0.211128,689,4815906,12371.68,-267.83,-484.4200000000001
528,0.211533,690,4816311,12371.68,-267.83,-484.4200000000001
529,0.211929,691,4816707,6326.68,147.17000000000002,207.57999999999993
530,0.212317,692,4817095,6326.68,147.17000000000002,207.57999999999993
531,0.212712,693,4817490,6326.68,147.17000000000002,207.57999999999993
532,0.213106,694,4817884,662.6800000000001,573.17,-526.4200000000001
533,0.213504,695,4818282,662.6800000000001,573.17,-526.4200000000001
534,0.213892,696,4818670,-3176.32,210.17000000000002,173.57999999999993
535,0.214301,697,4819079,-3176.32,210.17000000000002,173.57999999999993
536,0.214706,698,4819484,-3176.32,210.17000000000002,173.57999999999993
537,0.215102,699,4819880,-2624.32,-365.83,272.5799999999999
538,0.215518,700,4820296,-2624.32,-365.83,272.5799999999999
539,0.215913,701,4820691,-863.3199999999999,-435.83,-1055.42
540,0.216331,702,4821109,-863.3199999999999,-435.83,-1055.42
541,0.216741,703,4821519,-863.3199999999999,-435.83,-1055.42
542,0.217155,704,4821933,541.6800000000001,-412.83,-2294.42
543,0.217551,705,4822329,541.6800000000001,-412.83,-2294.42
544,0.217939,706,4822717,1131.68,-694.83,-2866.42
545,0.218340,707,4823118,1131.68,-694.83,-2866.42
546,0.218742,708,4823520,1131.68,-694.83,-2866.42
547,0.219152,709,4823930,-1226.32,-563.83,-2875.42
548,0.219555,710,4824333,-1226.32,-563.83,-2875.42
549,0.219959,711,4824737,-4559.32,-279.83,-1832.42
550,0.220370,712,4825148,-4559.32,-279.83,-1832.42
551,0.220782,713,4825560,-4559.32,-279.83,-1832.42
552,0.221197,714,4825975,-6360.32,-633.83,205.57999999999993
553,0.221592,715,4826370,-6360.32,-633.83,205.57999999999993
554,0.221999,716,4826777,-5050.32,-559.83,1788.58
555,0.222410,717,4827188,-5050.32,-559.83,1788.58
556,0.222812,718,4827590,-2756.32,378.17,2325.58
557,0.223225,719,4828003,-2756.32,378.17,2325.58
558,0.223616,720,4828394,-2756.32,378.17,2325.58
559,0.224019,721,4828797,-553.3199999999999,424.17,3191.58
560,0.224413,722,4829191,-553.3199999999999,424.17,3191.58
561,0.224823,723,4829601,2693.68,852.17,3188.58
562,0.225213,724,4829991,2693.68,852.17,3188.58
563,0.225593,725,4830371,2693.68,852.17,3188.58
564,0.225985,726,4830763,5865.68,1662.17,1528.58
565,0.226379,727,4831157,5865.68,1662.17,1528.58
566,0.226774,728,4831552,5865.68,1662.17,1528.58
567,0.227178,729,4831956,7854.68,1117.17,961.5799999999999
568,0.227558,730,4832336,7854.68,1117.17,961.5799999999999
569,0.227949,731,4832727,11289.68,61.17,1539.58
570,0.228350,732,4833128,11289.68,61.17,1539.58
571,0.228741,733,4833519,11289.68,61.17,1539.58
572,0.229140,734,4833918,9090.68,-191.82999999999998,149.57999999999993
573,0.229541,735,4834319,9090.68,-191.82999999999998,149.57999999999993
574,0.229937,736,4834715,2180.68,-235.82999999999998,-2329.42
575,0.230340,737,4835118,2180.68,-235.82999999999998,-2329.42
576,0.230739,738,4835517,2180.68,-235.82999999999998,-2329.42
577,0.231143,739,4835921,-2811.32,-504.83,-3580.42
578,0.231546,740,4836324,-2811.32,-504.83,-3580.42
579,0.231950,741,4836728,-2954.32,-717.83,-3556.42
580,0.232359,742,4837137,-2954.32,-717.83,-3556.42
581,0.232768,743,4837546,-2954.32,-717.83,-3556.42
582,0.233182,744,4837960,-1450.32,-892.83,-3065.42
583,0.233582,745,4838360,-1450.32,-892.83,-3065.42
584,0.233995,746,4838773,-703.3199999999999,-1166.83,-2679.42
585,0.234406,747,4839184,-703.3199999999999,-1166.83,-2679.42
586,0.234817,748,4839595,206.68,-1034.83,-2232.42
587,0.235216,749,4839994,206.68,-1034.83,-2232.42
588,0.235613,750,4840391,206.68,-1034.83,-2232.42
589,0.236014,751,4840792,-686.3199999999999,-233.82999999999998,-875.4200000000001
590,0.236423,752,4841201,-686.3199999999999,-233.82999999999998,-875.4200000000001
591,0.236832,753,4841610,-486.32,-283.83,1271.58
592,0.237246,754,4842024,-486.32,-283.83,1271.58
593,0.237651,755,4842429,-486.32,-283.83,1271.58
594,0.238067,756,4842845,-563.3199999999999,350.17,1872.58
595,0.238463,757,4843241,-563.3199999999999,350.17,1872.58
596,0.238871,758,4843649,1281.68,1149.17,1935.58
597,0.239258,759,4844036,1281.68,1149.17,1935.58
598,0.239656,760,4844434,1281.68,1149.17,1935.58
599,0.240043,761,4844821,1087.68,906.17,3227.58
600,0.240436,762,4845214,1087.68,906.17,3227.58
601,0.240829,763,4845607,1141.68,848.17,4345.58
602,0.241226,764,4846004,1141.68,848.17,4345.58
603,0.241615,765,4846393,1141.68,848.17,4345.58
604,0.242004,766,4846782,-4930.32,800.17,3296.58
605,0.242413,767,4847191,-4930.32,800.17,3296.58
606,0.242814,768,4847592,-10114.32,-130.82999999999998,1285.58
607,0.243229,769,4848007,-10114.32,-130.82999999999998,1285.58
608,0.243627,770,4848405,-10114.32,-130.82999999999998,1285.58
609,0.244044,771,4848822,-10476.32,79.17,-160.42000000000007
610,0.244445,772,4849223,-10476.32,79.17,-160.42000000000007
611,0.244849,773,4849627,-8731.32,438.17,-1351.42
612,0.245254,774,4850032,-8731.32,438.17,-1351.42
613,0.245645,775,4850423,-8731.32,438.17,-1351.42
614,0.246046,776,4850824,1670.68,-381.83,-1802.42
615,0.246447,777,4851225,1670.68,-381.83,-1802.42
616,0.246855,778,4851633,7965.68,-152.82999999999998,-2721.42
617,0.247255,779,4852033,7965.68,-152.82999999999998,-2721.42
618,0.247645,780,4852423,7965.68,-152.82999999999998,-2721.42
619,0.248053,781,4852831,12170.68,128.17000000000002,-1557.42
620,0.248441,782,4853219,12170.68,128.17000000000002,-1557.42
621,0.248835,783,4853613,9583.68,-160.82999999999998,513.5799999999999
622,0.249243,784,4854021,9583.68,-160.82999999999998,513.5799999999999
623,0.249634,785,4854412,9583.68,-160.82999999999998,513.5799999999999
624,0.250037,786,4854815,2883.68,144.17000000000002,-367.4200000000001
625,0.250431,787,4855209,2883.68,144.17000000000002,-367.4200000000001
626,0.250820,788,4855598,-1464.32,689.17,-634.4200000000001
627,0.251231,789,4856009,-1464.32,689.17,-634.4200000000001
628,0.251622,790,4856400,-1464.32,689.17,-634.4200000000001
629,0.252029,791,4856807,-3784.32,-446.83,236.57999999999993
630,0.252439,792,4857217,-3784.32,-446.83,236.57999999999993
631,0.252854,793,4857632,-2532.32,-598.83,-440.4200000000001
632,0.253274,794,4858052,-2532.32,-598.83,-440.4200000000001
633,0.253679,795,4858457,-2532.32,-598.83,-440.4200000000001
634,0.254095,796,4858873,142.68,-396.83,-1969.42
635,0.254506,797,4859284,142.68,-396.83,-1969.42
636,0.254909,798,4859687,1119.68,-791.83,-2988.42
637,0.255311,799,4860089,1119.68,-791.83,-2988.42
638,0.255706,800,4860484,1119.68,-791.83,-2988.42
639,0.256107,801,4860885,-472.32,-355.83,-3012.42
640,0.256527,802,4861305,-472.32,-355.83,-3012.42
641,0.256931,803,4861709,-2355.32,-430.83,-2168.42
642,0.257341,804,4862119,-2355.32,-430.83,-2168.42
643,0.257752,805,4862530,-2355.32,-430.83,-2168.42
644,0.258159,806,4862937,-4813.32,-650.83,-499.4200000000001
645,0.258569,807,4863347,-4813.32,-650.83,-499.4200000000001
646,0.258980,808,4863758,-5677.32,-479.83,1483.58
647,0.259390,809,4864168,-5677.32,-479.83,1483.58
648,0.259785,810,4864563,-5677.32,-479.83,1483.58
649,0.260201,811,4864979,-4332.32,35.17,2461.58
650,0.260589,812,4865367,-4332.32,35.17,2461.58
651,0.260987,813,4865765,-1647.32,440.17,2900.58
652,0.261395,814,4866173,-1647.32,440.17,2900.58
653,0.261789,815,4866567,-1647.32,440.17,2900.58
654,0.262188,816,4866966,520.6800000000001,749.17,3372.58
655,0.262561,817,4867339,520.6800000000001,749.17,3372.58
656,0.262952,818,4867730,3126.68,1403.17,2386.58
657,0.263346,819,4868124,3126.68,1403.17,2386.58
658,0.263740,820,4868518,3126.68,1403.17,2386.58
659,0.264129,821,4868907,8510.68,1460.17,1000.5799999999999
660,0.264528,822,4869306,8510.68,1460.17,1000.5799999999999
661,0.264909,823,4869687,12053.68,446.17,1194.58
662,0.265310,824,4870088,12053.68,446.17,1194.58
663,0.265699,825,4870477,12053.68,446.17,1194.58
664,0.266069,826,4870847,9990.68,-138.82999999999998,759.5799999999999
665,0.266476,827,4871254,9990.68,-138.82999999999998,759.5799999999999
666,0.266869,828,4871647,4673.68,-190.82999999999998,-1374.42
667,0.267278,829,4872056,4673.68,-190.82999999999998,-1374.42
668,0.267675,830,4872453,4673.68,-190.82999999999998,-1374.42
669,0.268077,831,4872855,-982.3199999999999,-583.83,-3317.42
670,0.268488,832,4873266,-982.3199999999999,-583.83,-3317.42
671,0.268898,833,4873676,-4182.32,-551.83,-3843.42
672,0.269313,834,4874091,-4182.32,-551.83,-3843.42
673,0.269726,835,4874504,-4182.32,-551.83,-3843.42
674,0.270140,836,4874918,-2471.32,-735.83,-3231.42
675,0.270543,837,4875321,-2471.32,-735.83,-3231.42
676,0.270945,838,4875723,-187.32,-1397.83,-2721.42
677,0.271356,839,4876134,-187.32,-1397.83,-2721.42
678,0.271769,840,4876547,-187.32,-1397.83,-2721.42
679,0.272182,841,4876960,348.68,-1040.83,-2601.42
680,0.272569,842,4877347,348.68,-1040.83,-2601.42
681,0.272969,843,4877747,-310.32,-312.83,-1599.42
682,0.273372,844,4878150,-310.32,-312.83,-1599.42
683,0.273777,845,4878555,-310.32,-312.83,-1599.42
684,0.274191,846,4878969,-253.32,-354.83,380.5799999999999
685,0.274587,847,4879365,-253.32,-354.83,380.5799999999999
686,0.275005,848,4879783,-952.3199999999999,24.17,1723.58
687,0.275412,849,4880190,-952.3199999999999,24.17,1723.58
688,0.275815,850,4880593,412.68,881.17,1771.58
689,0.276207,851,4880985,412.68,881.17,1771.58
690,0.276588,852,4881366,412.68,881.17,1771.58
691,0.276979,853,4881757,1251.68,1216.17,2471.58
692,0.277374,854,4882152,1251.68,1216.17,2471.58
693,0.277756,855,4882534,1251.68,1216.17,2471.58
694,0.278158,856,4882936,1376.68,920.17,4117.58
695,0.278537,857,4883315,1376.68,920.17,4117.58
696,0.278926,858,4883704,-2316.32,737.17,4081.58
697,0.279323,859,4884101,-2316.32,737.17,4081.58
698,0.279722,860,4884500,-2316.32,737.17,4081.58
699,0.280123,861,4884901,-9640.32,514.17,2200.58
700,0.280531,862,4885309,-9640.32,514.17,2200.58
701,0.280919,863,4885697,-10320.32,-28.83,610.5799999999999
702,0.281336,864,4886114,-10320.32,-28.83,610.5799999999999
703,0.281749,865,4886527,-10320.32,-28.83,610.5799999999999
704,0.282164,866,4886942,-9928.32,-46.83,-886.4200000000001
705,0.282559,867,4887337,-9928.32,-46.83,-886.4200000000001
706,0.282962,868,4887740,-2682.32,141.17000000000002,-1640.42
707,0.283363,869,4888141,-2682.32,141.17000000000002,-1640.42
708,0.283766,870,4888544,-2682.32,141.17000000000002,-1640.42
709,0.284172,871,4888950,6130.68,-175.82999999999998,-2626.42
710,0.284567,872,4889345,6130.68,-175.82999999999998,-2626.42
711,0.284971,873,4889749,12113.68,-237.82999999999998,-2188.42
712,0.285365,874,4890143,12113.68,-237.82999999999998,-2188.42
713,0.285776,875,4890554,12113.68,-237.82999999999998,-2188.42
714,0.286183,876,4890961,11696.68,-200.82999999999998,31.579999999999927
715,0.286569,877,4891347,11696.68,-200.82999999999998,31.579999999999927
716,0.286968,878,4891746,4728.68,358.17,-297.4200000000001
717,0.287362,879,4892140,4728.68,358.17,-297.4200000000001
718,0.287756,880,4892534,4728.68,358.17,-297.4200000000001
719,0.288156,881,4892934,-417.32,408.17,-641.4200000000001
720,0.288557,882,4893335,-417.32,408.17,-641.4200000000001
721,0.288953,883,4893731,-4115.32,-287.83,23.579999999999927
722,0.289362,884,4894140,-4115.32,-287.83,23.579999999999927
723,0.289772,885,4894550,-4115.32,-287.83,23.579999999999927
724,0.290187,886,4894965,-2965.32,-501.83,15.579999999999927
725,0.290582,887,4895360,-2965.32,-501.83,15.579999999999927
726,0.290996,888,4895774,-455.32,-524.83,-1514.42
727,0.291406,889,4896184,-455.32,-524.83,-1514.42
728,0.291816,890,4896594,1417.68,-587.83,-2812.42
729,0.292223,891,4897001,1417.68,-587.83,-2812.42
730,0.292614,892,4897392,1417.68,-587.83,-2812.42
731,0.293012,893,4897790,517.6800000000001,-494.83,-2879.42
732,0.293413,894,4898191,517.6800000000001,-494.83,-2879.42
733,0.293815,895,4898593,-1944.32,-437.83,-2561.42
734,0.294229,896,4899007,-1944.32,-437.83,-2561.42
735,0.294626,897,4899404,-1944.32,-437.83,-2561.42
736,0.295030,898,4899808,-4764.32,-419.83,-1316.42
737,0.295446,899,4900224,-4764.32,-419.83,-1316.42
738,0.295856,900,4900634,-5601.32,-602.83,972.5799999999999
739,0.296271,901,4901049,-5601.32,-602.83,972.5799999999999
740,0.296675,902,4901453,-5601.32,-602.83,972.5799999999999
741,0.297090,903,4901868,-4293.32,-220.82999999999998,2421.58
742,0.297497,904,4902275,-4293.32,-220.82999999999998,2421.58
743,0.297908,905,4902686,-2355.32,365.17,2812.58
744,0.298303,906,4903081,-2355.32,365.17,2812.58
745,0.298700,907,4903478,-2355.32,365.17,2812.58
746,0.299101,908,4903879,-148.32,492.17,3236.58
747,0.299485,909,4904263,-148.32,492.17,3236.58
748,0.299889,910,4904667,3067.68,1230.17,2830.58
749,0.300277,911,4905055,3067.68,1230.17,2830.58
750,0.300674,912,4905452,3067.68,1230.17,2830.58
751,0.301074,913,4905852,7179.68,1618.17,1313.58
752,0.301462,914,4906240,7179.68,1618.17,1313.58
753,0.301856,915,4906634,9437.68,699.17,923.5799999999999
754,0.302254,916,4907032,9437.68,699.17,923.5799999999999
755,0.302643,917,4907421,9437.68,699.17,923.5799999999999
756,0.303037,918,4907815,9843.68,-122.83,1139.58
757,0.303446,919,4908224,9843.68,-122.83,1139.58
758,0.303841,920,4908619,6947.68,-213.82999999999998,-546.4200000000001
759,0.304247,921,4909025,6947.68,-213.82999999999998,-546.4200000000001
760,0.304644,922,4909422,6947.68,-213.82999999999998,-546.4200000000001
761,0.305052,923,4909830,843.6800000000001,-348.83,-2971.42
762,0.305446,924,4910224,843.6800000000001,-348.83,-2971.42
763,0.305855,925,4910633,-3784.32,-460.83,-3964.42
764,0.306269,926,4911047,-3784.32,-460.83,-3964.42
765,0.306674,927,4911452,-3784.32,-460.83,-3964.42
766,0.307090,928,4911868,-2504.32,-864.83,-3440.42
767,0.307503,929,4912281,-2504.32,-864.83,-3440.42
768,0.307900,930,4912678,-1023.3199999999999,-1168.83,-2834.42
769,0.308305,931,4913083,-1023.3199999999999,-1168.83,-2834.42
770,0.308708,932,4913486,-1023.3199999999999,-1168.83,-2834.42
771,0.309124,933,4913902,539.6800000000001,-1241.83,-2450.42
772,0.309529,934,4914307,539.6800000000001,-1241.83,-2450.42
773,0.309924,935,4914702,319.68,-577.83,-2017.42
774,0.310319,936,4915097,319.68,-577.83,-2017.42
775,0.310731,937,4915509,319.68,-577.83,-2017.42
776,0.311137,938,4915915,-879.3199999999999,-218.82999999999998,-263.4200000000001
777,0.311539,939,4916317,-879.3199999999999,-218.82999999999998,-263.4200000000001
778,0.311942,940,4916720,-470.32,-347.83,1752.58
779,0.312353,941,4917131,-470.32,-347.83,1752.58
780,0.312755,942,4917533,-470.32,-347.83,1752.58
781,0.313168,943,4917946,-463.32,1072.17,1861.58
782,0.313556,944,4918334,-463.32,1072.17,1861.58
783,0.313955,945,4918733,712.6800000000001,1238.17,2030.58
784,0.314349,946,4919127,712.6800000000001,1238.17,2030.58
785,0.314746,947,4919524,712.6800000000001,1238.17,2030.58
786,0.315151,948,4919929,286.68,533.17,3720.58
787,0.315538,949,4920316,286.68,533.17,3720.58
788,0.315926,950,4920704,-148.32,956.17,4356.58
789,0.316328,951,4921106,-148.32,956.17,4356.58
790,0.316730,952,4921508,-148.32,956.17,4356.58
791,0.317126,953,4921904,-5351.32,332.17,2725.58
792,0.317531,954,4922309,-5351.32,332.17,2725.58
793,0.317927,955,4922705,-10169.32,198.17000000000002,831.5799999999999
794,0.318323,956,4923101,-10169.32,198.17000000000002,831.5799999999999
795,0.318724,957,4923502,-10169.32,198.17000000000002,831.5799999999999
796,0.319122,958,4923900,-11611.32,244.17000000000002,-746.4200000000001
797,0.319518,959,4924296,-11611.32,244.17000000000002,-746.4200000000001
798,0.319908,960,4924686,-5557.32,-173.82999999999998,-1437.42
799,0.320318,961,4925096,-5557.32,-173.82999999999998,-1437.42
800,0.320729,962,4925507,-5557.32,-173.82999999999998,-1437.42
801,0.321143,963,4925921,4156.68,-54.83,-2145.42
802,0.321538,964,4926316,4156.68,-54.83,-2145.42
803,0.321926,965,4926704,10812.68,-57.83,-2478.42
804,0.322335,966,4927113,10812.68,-57.83,-2478.42
805,0.322737,967,4927515,10812.68,-57.83,-2478.42
806,0.323142,968,4927920,12303.68,-112.83,-651.4200000000001
807,0.323537,969,4928315,12303.68,-112.83,-651.4200000000001
808,0.323933,970,4928711,6327.68,73.17,109.57999999999993
809,0.324321,971,4929099,6327.68,73.17,109.57999999999993
810,0.324712,972,4929490,6327.68,73.17,109.57999999999993
811,0.325106,973,4929884,1177.68,303.17,-574.4200000000001
812,0.325504,974,4930282,1177.68,303.17,-574.4200000000001
813,0.325894,975,4930672,-3370.32,261.17,-368.4200000000001
814,0.326296,976,4931074,-3370.32,261.17,-368.4200000000001
815,0.326699,977,4931477,-3370.32,261.17,-368.4200000000001
816,0.327101,978,4931879,-3064.32,-489.83,122.57999999999993
817,0.327522,979,4932300,-3064.32,-489.83,122.57999999999993
818,0.327926,980,4932704,-1201.32,-677.83,-1035.42
819,0.328335,981,4933113,-1201.32,-677.83,-1035.42
820,0.328744,982,4933522,-1201.32,-677.83,-1035.42
821,0.329159,983,4933937,411.68,-291.83,-2537.42
822,0.329554,984,4934332,411.68,-291.83,-2537.42
823,0.329942,985,4934720,1135.68,-727.83,-2810.42
824,0.330344,986,4935122,1135.68,-727.83,-2810.42
825,0.330755,987,4935533,1135.68,-727.83,-2810.42
826,0.331161,988,4935939,-1046.32,-570.83,-2577.42
827,0.331563,989,4936341,-1046.32,-570.83,-2577.42
828,0.331975,990,4936753,-4514.32,-91.83,-1753.42
829,0.332384,991,4937162,-4514.32,-91.83,-1753.42
830,0.332792,992,4937570,-4514.32,-91.83,-1753.42
831,0.333206,993,4937984,-5526.32,-659.83,229.57999999999993
832,0.333611,994,4938389,-5526.32,-659.83,229.57999999999993
833,0.334020,995,4938798,-4891.32,-465.83,2090.58
834,0.334430,996,4939208,-4891.32,-465.83,2090.58
835,0.334840,997,4939618,-2712.32,224.17000000000002,2709.58
836,0.335246,998,4940024,-2712.32,224.17000000000002,2709.58
837,0.335636,999,4940414,-2712.32,224.17000000000002,2709.58
838,0.336046,1000,4940824,-1106.32,499.17,3153.58
839,0.336449,1001,4941227,-1106.32,499.17,3153.58
840,0.336851,1002,4941629,2270.68,968.17,3329.58
841,0.337243,1003,4942021,2270.68,968.17,3329.58
842,0.337633,1004,4942411,2270.68,968.17,3329.58
843,0.338030,1005,4942808,6308.68,1467.17,1589.58
844,0.338424,1006,4943202,6308.68,1467.17,1589.58
845,0.338819,1007,4943597,8013.68,1224.17,609.5799999999999
846,0.339216,1008,4943994,8013.68,1224.17,609.5799999999999
847,0.339598,1009,4944376,8013.68,1224.17,609.5799999999999
848,0.339997,1010,4944775,11380.68,80.17,1498.58
849,0.340383,1011,4945161,11380.68,80.17,1498.58
850,0.340778,1012,4945556,11380.68,80.17,1498.58
851,0.341175,1013,4945953,9223.68,-317.83,35.57999999999993
852,0.341569,1014,4946347,9223.68,-317.83,35.57999999999993
853,0.341976,1015,4946754,1738.68,-132.82999999999998,-2757.42
854,0.342378,1016,4947156,1738.68,-132.82999999999998,-2757.42
855,0.342780,1017,4947558,1738.68,-132.82999999999998,-2757.42
856,0.343185,1018,4947963,-3332.32,-472.83,-3585.42
857,0.343574,1019,4948352,-3332.32,-472.83,-3585.42
858,0.343988,1020,4948766,-2836.32,-921.83,-3309.42
859,0.344399,1021,4949177,-2836.32,-921.83,-3309.42
860,0.344809,1022,4949587,-1447.32,-951.83,-3222.42
861,0.345223,1023,4950001,-1447.32,-951.83,-3222.42
862,0.345622,1024,4950400,-1447.32,-951.83,-3222.42
863,0.346033,1025,4950811,-51.31999999999999,-956.83,-2698.42
864,0.346443,1026,4951221,-51.31999999999999,-956.83,-2698.42
865,0.346852,1027,4951630,339.68,-978.83,-2020.42
866,0.347260,1028,4952038,339.68,-978.83,-2020.42
867,0.347651,1029,4952429,339.68,-978.83,-2020.42
868,0.348059,1030,4952837,-677.3199999999999,-265.83,-956.4200000000001
869,0.348468,1031,4953246,-677.3199999999999,-265.83,-956.4200000000001
870,0.348878,1032,4953656,-694.3199999999999,-215.82999999999998,1066.58
871,0.349282,1033,4954060,-694.3199999999999,-215.82999999999998,1066.58
872,0.349699,1034,4954477,-694.3199999999999,-215.82999999999998,1066.58
873,0.350109,1035,4954887,-361.32,274.17,1937.58
874,0.350516,1036,4955294,-361.32,274.17,1937.58
875,0.350912,1037,4955690,998.6800000000001,1183.17,2035.58
876,0.351299,1038,4956077,998.6800000000001,1183.17,2035.58
877,0.351696,1039,4956474,998.6800000000001,1183.17,2035.58
878,0.352090,1040,4956868,361.68,991.17,3232.58
879,0.352490,1041,4957268,361.68,991.17,3232.58
880,0.352877,1042,4957655,1000.6800000000001,807.17,4442.58
881,0.353266,1043,4958044,1000.6800000000001,807.17,4442.58
882,0.353664,1044,4958442,1000.6800000000001,807.17,4442.58
883,0.354050,1045,4958828,-4087.32,414.17,3260.58
884,0.354460,1046,4959238,-4087.32,414.17,3260.58
885,0.354855,1047,4959633,-10134.32,172.17000000000002,1268.58
886,0.355260,1048,4960038,-10134.32,172.17000000000002,1268.58
887,0.355652,1049,4960430,-10134.32,172.17000000000002,1268.58
888,0.356054,1050,4960832,-12126.32,291.17,-263.4200000000001
889,0.356464,1051,4961242,-12126.32,291.17,-263.4200000000001
890,0.356859,1052,4961637,-8129.32,61.17,-1400.42
891,0.357263,1053,4962041,-8129.32,61.17,-1400.42
892,0.357668,1054,4962446,-8129.32,61.17,-1400.42
893,0.358070,1055,4962848,2536.68,-186.82999999999998,-1697.42
894,0.358457,1056,4963235,2536.68,-186.82999999999998,-1697.42
895,0.358859,1057,4963637,9005.68,-210.82999999999998,-2603.42
896,0.359258,1058,4964036,9005.68,-210.82999999999998,-2603.42
897,0.359663,1059,4964441,9005.68,-210.82999999999998,-2603.42
898,0.360058,1060,4964836,12248.68,4.170000000000002,-1467.42
899,0.360452,1061,4965230,12248.68,4.170000000000002,-1467.42
900,0.360846,1062,4965624,8725.68,80.17,277.5799999999999
901,0.361245,1063,4966023,8725.68,80.17,277.5799999999999
902,0.361634,1064,4966412,8725.68,80.17,277.5799999999999
903,0.362029,1065,4966807,2667.68,237.17000000000002,-366.4200000000001
904,0.362423,1066,4967201,2667.68,237.17000000000002,-366.4200000000001
905,0.362818,1067,4967596,-2206.32,411.17,-561.4200000000001
906,0.363229,1068,4968007,-2206.32,411.17,-561.4200000000001
907,0.363615,1069,4968393,-2206.32,411.17,-561.4200000000001
908,0.364005,1070,4968783,-3758.32,-500.83,19.579999999999927
909,0.364421,1071,4969199,-3758.32,-500.83,19.579999999999927
910,0.364831,1072,4969609,-2637.32,-549.83,-650.4200000000001
911,0.365245,1073,4970023,-2637.32,-549.83,-650.4200000000001
912,0.365643,1074,4970421,-2637.32,-549.83,-650.4200000000001
913,0.366046,1075,4970824,677.6800000000001,-373.83,-1971.42
914,0.366443,1076,4971221,677.6800000000001,-373.83,-1971.42
915,0.366845,1077,4971623,1460.68,-631.83,-2839.42
916,0.367245,1078,4972023,1460.68,-631.83,-2839.42
917,0.367643,1079,4972421,1460.68,-631.83,-2839.42
918,0.368039,1080,4972817,-759.3199999999999,-565.83,-2936.42
919,0.368455,1081,4973233,-759.3199999999999,-565.83,-2936.42
920,0.368866,1082,4973644,-2903.32,-316.83,-2052.42
921,0.369279,1083,4974057,-2903.32,-316.83,-2052.42
922,0.369683,1084,4974461,-2903.32,-316.83,-2052.42
923,0.370099,1085,4974877,-5825.32,-440.83,-250.42000000000007
924,0.370514,1086,4975292,-5825.32,-440.83,-250.42000000000007
925,0.370918,1087,4975696,-5131.32,-518.83,1737.58
926,0.371328,1088,4976106,-5131.32,-518.83,1737.58
927,0.371731,1089,4976509,-5131.32,-518.83,1737.58
928,0.372146,1090,4976924,-3021.32,101.17,2588.58
929,0.372540,1091,4977318,-3021.32,101.17,2588.58
930,0.372936,1092,4977714,-1046.32,345.17,3002.58
931,0.373339,1093,4978117,-1046.32,345.17,3002.58
932,0.373738,1094,4978516,-1046.32,345.17,3002.58
933,0.374151,1095,4978929,985.6800000000001,837.17,3368.58
934,0.374538,1096,4979316,985.6800000000001,837.17,3368.58
935,0.374920,1097,4979698,3221.68,1524.17,2000.58
936,0.375314,1098,4980092,3221.68,1524.17,2000.58
937,0.375709,1099,4980487,3221.68,1524.17,2000.58
938,0.376102,1100,4980880,7906.68,1320.17,937.5799999999999
939,0.376501,1101,4981279,7906.68,1320.17,937.5799999999999
940,0.376890,1102,4981668,11976.68,266.17,1439.58
941,0.377285,1103,4982063,11976.68,266.17,1439.58
942,0.377680,1104,4982458,11976.68,266.17,1439.58
943,0.378075,1105,4982853,9420.68,-255.82999999999998,513.5799999999999
944,0.378489,1106,4983267,9420.68,-255.82999999999998,513.5799999999999
945,0.378883,1107,4983661,3713.68,-212.82999999999998,-1744.42
946,0.379292,1108,4984070,3713.68,-212.82999999999998,-1744.42
947,0.379687,1109,4984465,3713.68,-212.82999999999998,-1744.42
948,0.380098,1110,4984876,-1577.32,-361.83,-3440.42
949,0.380511,1111,4985289,-1577.32,-361.83,-3440.42
950,0.380915,1112,4985693,-3734.32,-618.83,-3925.42
951,0.381324,1113,4986102,-3734.32,-618.83,-3925.42
952,0.381735,1114,4986513,-3734.32,-618.83,-3925.42
953,0.382148,1115,4986926,-1993.32,-863.83,-3370.42
954,0.382549,1116,4987327,-1993.32,-863.83,-3370.42
955,0.382947,1117,4987725,190.68,-1415.83,-2521.42
956,0.383350,1118,4988128,190.68,-1415.83,-2521.42
957,0.383751,1119,4988529,190.68,-1415.83,-2521.42
958,0.384157,1120,4988935,1098.68,-1089.83,-2356.42
959,0.384552,1121,4989330,1098.68,-1089.83,-2356.42
960,0.384948,1122,4989726,-234.32,-59.83,-1506.42
961,0.385357,1123,4990135,-234.32,-59.83,-1506.42
962,0.385768,1124,4990546,-234.32,-59.83,-1506.42
963,0.386183,1125,4990961,-526.3199999999999,-410.83,955.5799999999999
964,0.386578,1126,4991356,-526.3199999999999,-410.83,955.5799999999999
965,0.386992,1127,4991770,-1603.32,339.17,1931.58
966,0.387388,1128,4992166,-1603.32,339.17,1931.58
967,0.387797,1129,4992575,-639.3199999999999,997.17,1736.58
968,0.388203,1130,4992981,-639.3199999999999,997.17,1736.58
969,0.388591,1131,4993369,-639.3199999999999,997.17,1736.58
970,0.388997,1132,4993775,695.6800000000001,825.17,2855.58
971,0.389392,1133,4994170,695.6800000000001,825.17,2855.58
972,0.389778,1134,4994556,695.6800000000001,825.17,2855.58
973,0.390176,1135,4994954,2668.68,921.17,4133.58
974,0.390562,1136,4995340,2668.68,921.17,4133.58
975,0.390953,1137,4995731,-2854.32,963.17,3633.58
976,0.391355,1138,4996133,-2854.32,963.17,3633.58
977,0.391761,1139,4996539,-2854.32,963.17,3633.58
978,0.392168,1140,4996946,-9056.32,19.17,2042.58
979,0.392556,1141,4997334,-9056.32,19.17,2042.58
980,0.392962,1142,4997740,-9935.32,50.17,267.5799999999999
981,0.393364,1143,4998142,-9935.32,50.17,267.5799999999999
982,0.393766,1144,4998544,-9935.32,50.17,267.5799999999999
983,0.394173,1145,4998951,-10390.32,405.17,-1124.42
984,0.394561,1146,4999339,-10390.32,405.17,-1124.42
985,0.394968,1147,4999746,-1160.32,-341.83,-1389.42
986,0.395377,1148,5000155,-1160.32,-341.83,-1389.42
987,0.395787,1149,5000565,-1160.32,-341.83,-1389.42
988,0.396202,1150,5000980,6871.68,-8.829999999999998,-2528.42
989,0.396581,1151,5001359,6871.68,-8.829999999999998,-2528.42
990,0.396980,1152,5001758,12135.68,-99.83,-2230.42
991,0.397374,1153,5002152,12135.68,-99.83,-2230.42
992,0.397784,1154,5002562,12135.68,-99.83,-2230.42
993,0.398189,1155,5002967,10466.68,-236.82999999999998,6.579999999999927
994,0.398576,1156,5003354,10466.68,-236.82999999999998,6.579999999999927
995,0.398975,1157,5003753,4088.68,285.17,-293.4200000000001
996,0.399370,1158,5004148,4088.68,285.17,-293.4200000000001
997,0.399760,1159,5004538,4088.68,285.17,-293.4200000000001
998,0.400159,1160,5004937,-753.3199999999999,384.17,-842.4200000000001
999,0.400561,1161,5005339,-753.3199999999999,384.17,-842.4200000000001
1000,0.400956,1162,5005734,-4270.32,-312.83,-249.42000000000007
1001,0.401367,1163,5006145,-4270.32,-312.83,-249.42000000000007
1002,0.401779,1164,5006557,-4270.32,-312.83,-249.42000000000007
1003,0.402194,1165,5006972,-2856.32,-432.83,-253.42000000000007
1004,0.402590,1166,5007368,-2856.32,-432.83,-253.42000000000007
1005,0.403005,1167,5007783,370.68,-598.83,-1355.42
1006,0.403399,1168,5008177,370.68,-598.83,-1355.42
1007,0.403807,1169,5008585,1424.68,-547.83,-2563.42
1008,0.404214,1170,5008992,1424.68,-547.83,-2563.42
1009,0.404609,1171,5009387,1424.68,-547.83,-2563.42
1010,0.405014,1172,5009792,-607.3199999999999,-463.83,-2685.42
1011,0.405424,1173,5010202,-607.3199999999999,-463.83,-2685.42
1012,0.405833,1174,5010611,-2636.32,-413.83,-2275.42
1013,0.406246,1175,5011024,-2636.32,-413.83,-2275.42
1014,0.406644,1176,5011422,-2636.32,-413.83,-2275.42
1015,0.407059,1177,5011837,-5173.32,-391.83,-657.4200000000001
1016,0.407469,1178,5012247,-5173.32,-391.83,-657.4200000000001
1017,0.407880,1179,5012658,-5716.32,-653.83,1110.58
1018,0.408291,1180,5013069,-5716.32,-653.83,1110.58
1019,0.408703,1181,5013481,-5716.32,-653.83,1110.58
1020,0.409113,1182,5013891,-3351.32,66.17,2089.58
1021,0.409512,1183,5014290,-3351.32,66.17,2089.58
1022,0.409915,1184,5014693,-1364.32,423.17,2847.58
1023,0.410309,1185,5015087,-1364.32,423.17,2847.58
1024,0.410715,1186,5015493,-1364.32,423.17,2847.58
1025,0.411116,1187,5015894,1003.6800000000001,456.17,3133.58
1026,0.411516,1188,5016294,1003.6800000000001,456.17,3133.58
1027,0.411904,1189,5016682,3136.68,1374.17,2308.58
1028,0.412299,1190,5017077,3136.68,1374.17,2308.58
1029,0.412696,1191,5017474,3136.68,1374.17,2308.58
1030,0.413091,1192,5017869,7600.68,1411.17,1256.58
1031,0.413490,1193,5018268,7600.68,1411.17,1256.58
1032,0.413879,1194,5018657,10551.68,548.17,1203.58
1033,0.414274,1195,5019052,10551.68,548.17,1203.58
1034,0.414673,1196,5019451,10551.68,548.17,1203.58
1035,0.415066,1197,5019844,8773.68,-151.82999999999998,665.5799999999999
1036,0.415468,1198,5020246,8773.68,-151.82999999999998,665.5799999999999
1037,0.415870,1199,5020648,5398.68,-385.83,-1078.42
1038,0.416273,1200,5021051,5398.68,-385.83,-1078.42
1039,0.416672,1201,5021450,5398.68,-385.83,-1078.42
1040,0.417066,1202,5021844,-35.31999999999999,-322.83,-3011.42
1041,0.417483,1203,5022261,-35.31999999999999,-322.83,-3011.42
1042,0.417893,1204,5022671,-3457.32,-455.83,-3946.42
1043,0.418288,1205,5023066,-3457.32,-455.83,-3946.42
1044,0.418704,1206,5023482,-3457.32,-455.83,-3946.42
1045,0.419115,1207,5023893,-2172.32,-871.83,-3507.42
1046,0.419525,1208,5024303,-2172.32,-871.83,-3507.42
1047,0.419929,1209,5024707,-674.3199999999999,-1071.83,-2777.42
1048,0.420345,1210,5025123,-674.3199999999999,-1071.83,-2777.42
1049,0.420749,1211,5025527,-674.3199999999999,-1071.83,-2777.42
1050,0.421163,1212,5025941,777.6800000000001,-1044.83,-2140.42
1051,0.421563,1213,5026341,777.6800000000001,-1044.83,-2140.42
1052,0.421967,1214,5026745,11.680000000000007,-629.83,-1466.42
1053,0.422375,1215,5027153,11.680000000000007,-629.83,-1466.42
1054,0.422786,1216,5027564,11.680000000000007,-629.83,-1466.42
1055,0.423198,1217,5027976,-852.3199999999999,-288.83,288.5799999999999
1056,0.423593,1218,5028371,-852.3199999999999,-288.83,288.5799999999999
1057,0.424007,1219,5028785,-1528.32,-26.83,1890.58
1058,0.424417,1220,5029195,-1528.32,-26.83,1890.58
1059,0.424825,1221,5029603,-70.32,1100.17,1600.58
1060,0.425231,1222,5030009,-70.32,1100.17,1600.58
1061,0.425622,1223,5030400,-70.32,1100.17,1600.58
1062,0.426011,1224,5030789,1216.68,1123.17,2339.58
1063,0.426406,1225,5031184,1216.68,1123.17,2339.58
1064,0.426808,1226,5031586,1117.68,581.17,3775.58
1065,0.427200,1227,5031978,1117.68,581.17,3775.58
1066,0.427586,1228,5032364,1117.68,581.17,3775.58
1067,0.427977,1229,5032755,-320.32,981.17,3778.58
1068,0.428385,1230,5033163,-320.32,981.17,3778.58
1069,0.428787,1231,5033565,-320.32,981.17,3778.58
1070,0.429192,1232,5033970,-7492.32,327.17,2694.58
1071,0.429579,1233,5034357,-7492.32,327.17,2694.58
1072,0.429975,1234,5034753,-10264.32,-180.82999999999998,741.5799999999999
1073,0.430392,1235,5035170,-10264.32,-180.82999999999998,741.5799999999999
1074,0.430803,1236,5035581,-11206.32,329.17,-1275.42
1075,0.431210,1237,5035988,-11206.32,329.17,-1275.42
1076,0.431598,1238,5036376,-11206.32,329.17,-1275.42
1077,0.432010,1239,5036788,-4443.32,-8.829999999999998,-1594.42
1078,0.432404,1240,5037182,-4443.32,-8.829999999999998,-1594.42
1079,0.432806,1241,5037584,5398.68,-216.82999999999998,-2238.42
1080,0.433214,1242,5037992,5398.68,-216.82999999999998,-2238.42
1081,0.433596,1243,5038374,5398.68,-216.82999999999998,-2238.42
1082,0.434002,1244,5038780,11581.68,-27.83,-2458.42
1083,0.434404,1245,5039182,11581.68,-27.83,-2458.42
1084,0.434800,1246,5039578,12086.68,-285.83,-330.4200000000001
1085,0.435214,1247,5039992,12086.68,-285.83,-330.4200000000001
1086,0.435601,1248,5040379,12086.68,-285.83,-330.4200000000001
1087,0.436013,1249,5040791,5342.68,150.17000000000002,53.57999999999993
1088,0.436408,1250,5041186,5342.68,150.17000000000002,53.57999999999993
1089,0.436803,1251,5041581,-119.32,507.17,-615.4200000000001
1090,0.437209,1252,5041987,-119.32,507.17,-615.4200000000001
1091,0.437596,1253,5042374,-119.32,507.17,-615.4200000000001
1092,0.437996,1254,5042774,-4051.32,-37.83,15.579999999999927
1093,0.438406,1255,5043184,-4051.32,-37.83,15.579999999999927
1094,0.438816,1256,5043594,-3205.32,-509.83,38.57999999999993
1095,0.439230,1257,5044008,-3205.32,-509.83,38.57999999999993
1096,0.439629,1258,5044407,-3205.32,-509.83,38.57999999999993
1097,0.440039,1259,5044817,-340.32,-568.83,-1348.42
1098,0.440450,1260,5045228,-340.32,-568.83,-1348.42
1099,0.440860,1261,5045638,1315.68,-447.83,-2480.42
1100,0.441265,1262,5046043,1315.68,-447.83,-2480.42
1101,0.441663,1263,5046441,1315.68,-447.83,-2480.42
1102,0.442059,1264,5046837,561.6800000000001,-543.83,-2846.42
1103,0.442468,1265,5047246,561.6800000000001,-543.83,-2846.42
1104,0.442869,1266,5047647,-1885.32,-619.83,-2630.42
1105,0.443281,1267,5048059,-1885.32,-619.83,-2630.42
1106,0.443687,1268,5048465,-1885.32,-619.83,-2630.42
1107,0.444103,1269,5048881,-4964.32,-364.83,-1446.42
1108,0.444516,1270,5049294,-4964.32,-364.83,-1446.42
1109,0.444921,1271,5049699,-5948.32,-580.83,641.5799999999999
1110,0.445330,1272,5050108,-5948.32,-580.83,641.5799999999999
1111,0.445740,1273,5050518,-5948.32,-580.83,641.5799999999999
1112,0.446154,1274,5050932,-4288.32,-325.83,2114.58
1113,0.446557,1275,5051335,-4288.32,-325.83,2114.58
1114,0.446961,1276,5051739,-2156.32,445.17,2629.58
1115,0.447363,1277,5052141,-2156.32,445.17,2629.58
1116,0.447758,1278,5052536,-2156.32,445.17,2629.58
1117,0.448172,1279,5052950,-10.319999999999993,544.17,3216.58
1118,0.448559,1280,5053337,-10.319999999999993,544.17,3216.58
1119,0.448965,1281,5053743,4011.68,928.17,3042.58
1120,0.449347,1282,5054125,4011.68,928.17,3042.58
1121,0.449737,1283,5054515,4011.68,928.17,3042.58
1122,0.450126,1284,5054904,7110.68,1674.17,1359.58
1123,0.450532,1285,5055310,7110.68,1674.17,1359.58
1124,0.450921,1286,5055699,8000.68,896.17,865.5799999999999
1125,0.451315,1287,5056093,8000.68,896.17,865.5799999999999
1126,0.451704,1288,5056482,8000.68,896.17,865.5799999999999
1127,0.452098,1289,5056876,9652.68,-231.82999999999998,1155.58
1128,0.452513,1290,5057291,9652.68,-231.82999999999998,1155.58
1129,0.452910,1291,5057688,7478.68,-192.82999999999998,-511.4200000000001
1130,0.453312,1292,5058090,7478.68,-192.82999999999998,-511.4200000000001
1131,0.453714,1293,5058492,7478.68,-192.82999999999998,-511.4200000000001
1132,0.454117,1294,5058895,1173.68,-308.83,-2757.42
1133,0.454517,1295,5059295,1173.68,-308.83,-2757.42
1134,0.454920,1296,5059698,-3130.32,-577.83,-3796.42
1135,0.455330,1297,5060108,-3130.32,-577.83,-3796.42
1136,0.455740,1298,5060518,-3130.32,-577.83,-3796.42
1137,0.456153,1299,5060931,-2605.32,-737.83,-3617.42
1138,0.456556,1300,5061334,-2605.32,-737.83,-3617.42
1139,0.456960,1301,5061738,-807.3199999999999,-1068.83,-2882.42
1140,0.457364,1302,5062142,-807.3199999999999,-1068.83,-2882.42
1141,0.457777,1303,5062555,-807.3199999999999,-1068.83,-2882.42
1142,0.458191,1304,5062969,161.68,-1257.83,-2316.42
1143,0.458578,1305,5063356,161.68,-1257.83,-2316.42
1144,0.458984,1306,5063762,-242.32,-592.83,-1905.42
1145,0.459393,1307,5064171,-242.32,-592.83,-1905.42
1146,0.459796,1308,5064574,-1072.32,-317.83,-451.4200000000001
1147,0.460217,1309,5064995,-1072.32,-317.83,-451.4200000000001
1148,0.460616,1310,5065394,-1072.32,-317.83,-451.4200000000001
1149,0.461021,1311,5065799,-301.32,-129.82999999999998,1573.58
1150,0.461431,1312,5066209,-301.32,-129.82999999999998,1573.58
1151,0.461841,1313,5066619,432.68,766.17,2068.58
1152,0.462232,1314,5067010,432.68,766.17,2068.58
1153,0.462621,1315,5067399,432.68,766.17,2068.58
1154,0.463010,1316,5067788,694.6800000000001,1164.17,2231.58
1155,0.463398,1317,5068176,694.6800000000001,1164.17,2231.58
1156,0.463787,1318,5068565,839.6800000000001,769.17,3529.58
1157,0.464192,1319,5068970,839.6800000000001,769.17,3529.58
1158,0.464570,1320,5069348,839.6800000000001,769.17,3529.58
1159,0.464962,1321,5069740,349.68,819.17,4147.58
1160,0.465356,1322,5070134,349.68,819.17,4147.58
1161,0.465750,1323,5070528,349.68,819.17,4147.58
1162,0.466124,1324,5070902,-5084.32,269.17,3092.58
1163,0.466527,1325,5071305,-5084.32,269.17,3092.58
1164,0.466916,1326,5071694,-10450.32,25.17,1102.58
1165,0.467317,1327,5072095,-10450.32,25.17,1102.58
1166,0.467728,1328,5072506,-10450.32,25.17,1102.58
1167,0.468130,1329,5072908,-12835.32,482.17,-1113.42
1168,0.468530,1330,5073308,-12835.32,482.17,-1113.42
1169,0.468927,1331,5073705,-6355.32,-270.83,-1744.42
1170,0.469337,1332,5074115,-6355.32,-270.83,-1744.42
1171,0.469749,1333,5074527,-6355.32,-270.83,-1744.42
1172,0.470164,1334,5074942,4204.68,-329.83,-1789.42
1173,0.470559,1335,5075337,4204.68,-329.83,-1789.42
1174,0.470956,1336,5075734,9984.68,59.17,-2715.42
1175,0.471343,1337,5076121,9984.68,59.17,-2715.42
1176,0.471738,1338,5076516,9984.68,59.17,-2715.42
1177,0.472131,1339,5076909,12179.68,-23.83,-948.4200000000001
1178,0.472528,1340,5077306,12179.68,-23.83,-948.4200000000001
1179,0.472910,1341,5077688,7019.68,-92.83,310.5799999999999
1180,0.473319,1342,5078097,7019.68,-92.83,310.5799999999999
1181,0.473722,1343,5078500,7019.68,-92.83,310.5799999999999
1182,0.474116,1344,5078894,1116.68,505.17,-549.4200000000001
1183,0.474514,1345,5079292,1116.68,505.17,-549.4200000000001
1184,0.474904,1346,5079682,-2789.32,310.17,-40.42000000000007
1185,0.475305,1347,5080083,-2789.32,310.17,-40.42000000000007
1186,0.475715,1348,5080493,-2789.32,310.17,-40.42000000000007
1187,0.476110,1349,5080888,-2895.32,-519.83,132.57999999999993
1188,0.476531,1350,5081309,-2895.32,-519.83,132.57999999999993
1189,0.476934,1351,5081712,-1464.32,-281.83,-979.4200000000001
1190,0.477345,1352,5082123,-1464.32,-281.83,-979.4200000000001
1191,0.477755,1353,5082533,-1464.32,-281.83,-979.4200000000001
1192,0.478170,1354,5082948,991.6800000000001,-521.83,-2116.42
1193,0.478556,1355,5083334,991.6800000000001,-521.83,-2116.42
1194,0.478962,1356,5083740,1378.68,-680.83,-2855.42
1195,0.479363,1357,5084141,1378.68,-680.83,-2855.42
1196,0.479767,1358,5084545,1378.68,-680.83,-2855.42
1197,0.480174,1359,5084952,-1191.32,-590.83,-2909.42
1198,0.480568,1360,5085346,-1191.32,-590.83,-2909.42
1199,0.480983,1361,5085761,-4223.32,-318.83,-1872.42
1200,0.481393,1362,5086171,-4223.32,-318.83,-1872.42
1201,0.481803,1363,5086581,-6653.32,-589.83,62.57999999999993
1202,0.482218,1364,5086996,-6653.32,-589.83,62.57999999999993
1203,0.482617,1365,5087395,-6653.32,-589.83,62.57999999999993
1204,0.483018,1366,5087796,-4906.32,-597.83,1665.58
1205,0.483430,1367,5088208,-4906.32,-597.83,1665.58
1206,0.483840,1368,5088618,-2816.32,321.17,2344.58
1207,0.484245,1369,5089023,-2816.32,321.17,2344.58
1208,0.484635,1370,5089413,-2816.32,321.17,2344.58
1209,0.485034,1371,5089812,-668.3199999999999,365.17,3190.58
1210,0.485436,1372,5090214,-668.3199999999999,365.17,3190.58
1211,0.485840,1373,5090618,2906.68,867.17,3251.58
1212,0.486229,1374,5091007,2906.68,867.17,3251.58
1213,0.486615,1375,5091393,2906.68,867.17,3251.58
1214,0.487008,1376,5091786,5146.68,1639.17,1600.58
1215,0.487402,1377,5092180,5146.68,1639.17,1600.58
1216,0.487792,1378,5092570,7674.68,1088.17,1045.58
1217,0.488185,1379,5092963,7674.68,1088.17,1045.58
1218,0.488571,1380,5093349,7674.68,1088.17,1045.58
1219,0.488963,1381,5093741,10837.68,204.17000000000002,1509.58
1220,0.489357,1382,5094135,10837.68,204.17000000000002,1509.58
1221,0.489753,1383,5094531,10837.68,204.17000000000002,1509.58
1222,0.490152,1384,5094930,9289.68,-193.82999999999998,299.5799999999999
1223,0.490553,1385,5095331,9289.68,-193.82999999999998,299.5799999999999
1224,0.490950,1386,5095728,2689.68,-205.82999999999998,-2105.42
1225,0.491352,1387,5096130,2689.68,-205.82999999999998,-2105.42
1226,0.491756,1388,5096534,2689.68,-205.82999999999998,-2105.42
1227,0.492163,1389,5096941,-2583.32,-510.83,-3538.42
1228,0.492566,1390,5097344,-2583.32,-510.83,-3538.42
1229,0.492977,1391,5097755,-2848.32,-706.83,-3675.42
1230,0.493388,1392,5098166,-2848.32,-706.83,-3675.42
1231,0.493790,1393,5098568,-1805.32,-872.83,-3211.42
1232,0.494212,1394,5098990,-1805.32,-872.83,-3211.42
1233,0.494616,1395,5099394,-1805.32,-872.83,-3211.42
1234,0.495026,1396,5099804,-430.32,-1108.83,-2838.42
1235,0.495436,1397,5100214,-430.32,-1108.83,-2838.42
1236,0.495846,1398,5100624,329.68,-927.83,-2178.42
1237,0.496238,1399,5101016,329.68,-927.83,-2178.42
1238,0.496632,1400,5101410,329.68,-927.83,-2178.42
1239,0.497033,1401,5101811,-525.3199999999999,-479.83,-750.4200000000001
1240,0.497450,1402,5102228,-525.3199999999999,-479.83,-750.4200000000001
1241,0.497859,1403,5102637,-169.32,-286.83,1071.58
1242,0.498273,1404,5103051,-169.32,-286.83,1071.58
1243,0.498676,1405,5103454,-169.32,-286.83,1071.58
1244,0.499091,1406,5103869,-743.3199999999999,380.17,1874.58
1245,0.499471,1407,5104249,-743.3199999999999,380.17,1874.58
1246,0.499867,1408,5104645,956.6800000000001,1015.17,2033.58
1247,0.500258,1409,5105036,956.6800000000001,1015.17,2033.58
1248,0.500649,1410,5105427,956.6800000000001,1015.17,2033.58
1249,0.501043,1411,5105821,987.6800000000001,900.17,3103.58
1250,0.501437,1412,5106215,987.6800000000001,900.17,3103.58
1251,0.501830,1413,5106608,1119.68,993.17,3985.58
1252,0.502227,1414,5107005,1119.68,993.17,3985.58
1253,0.502618,1415,5107396,1119.68,993.17,3985.58
1254,0.503005,1416,5107783,-4446.32,977.17,3306.58
1255,0.503415,1417,5108193,-4446.32,977.17,3306.58
1256,0.503817,1418,5108595,-10172.32,-18.83,1535.58
1257,0.504222,1419,5109000,-10172.32,-18.83,1535.58
1258,0.504615,1420,5109393,-10172.32,-18.83,1535.58
1259,0.505009,1421,5109787,-9633.32,-192.82999999999998,75.57999999999993
1260,0.505426,1422,5110204,-9633.32,-192.82999999999998,75.57999999999993
1261,0.505837,1423,5110615,-8786.32,499.17,-1430.42
1262,0.506243,1424,5111021,-8786.32,499.17,-1430.42
1263,0.506633,1425,5111411,-8786.32,499.17,-1430.42
1264,0.507045,1426,5111823,112.68,-79.83,-1742.42
1265,0.507454,1427,5112232,112.68,-79.83,-1742.42
1266,0.507861,1428,5112639,7247.68,-307.83,-2415.42
1267,0.508260,1429,5113038,7247.68,-307.83,-2415.42
1268,0.508667,1430,5113445,7247.68,-307.83,-2415.42
1269,0.509069,1431,5113847,11796.68,-32.83,-1719.42
1270,0.509464,1432,5114242,11796.68,-32.83,-1719.42
1271,0.509872,1433,5114650,10159.68,-187.82999999999998,376.5799999999999
1272,0.510274,1434,5115052,10159.68,-187.82999999999998,376.5799999999999
1273,0.510671,1435,5115449,10159.68,-187.82999999999998,376.5799999999999
1274,0.511067,1436,5115845,3343.68,210.17000000000002,-260.4200000000001
1275,0.511459,1437,5116237,3343.68,210.17000000000002,-260.4200000000001
1276,0.511849,1438,5116627,-1352.32,606.17,-623.4200000000001
1277,0.512255,1439,5117033,-1352.32,606.17,-623.4200000000001
1278,0.512648,1440,5117426,-1352.32,606.17,-623.4200000000001
1279,0.513057,1441,5117835,-3815.32,-408.83,-74.42000000000007
1280,0.513467,1442,5118245,-3815.32,-408.83,-74.42000000000007
1281,0.513878,1443,5118656,-2541.32,-581.83,-423.4200000000001
1282,0.514281,1444,5119059,-2541.32,-581.83,-423.4200000000001
1283,0.514680,1445,5119458,-2541.32,-581.83,-423.4200000000001
1284,0.515090,1446,5119868,546.6800000000001,-422.83,-1730.42
1285,0.515497,1447,5120275,546.6800000000001,-422.83,-1730.42
1286,0.515894,1448,5120672,1249.68,-538.83,-2980.42
1287,0.516289,1449,5121067,1249.68,-538.83,-2980.42
1288,0.516699,1450,5121477,1249.68,-538.83,-2980.42
1289,0.517093,1451,5121871,-775.3199999999999,-300.83,-2956.42
1290,0.517514,1452,5122292,-775.3199999999999,-300.83,-2956.42
1291,0.517917,1453,5122695,-2317.32,-662.83,-2101.42
1292,0.518328,1454,5123106,-2317.32,-662.83,-2101.42
1293,0.518738,1455,5123516,-2317.32,-662.83,-2101.42
1294,0.519152,1456,5123930,-4788.32,-508.83,-457.4200000000001
1295,0.519547,1457,5124325,-4788.32,-508.83,-457.4200000000001
1296,0.519951,1458,5124729,-5928.32,-240.82999999999998,1584.58
1297,0.520361,1459,5125139,-5928.32,-240.82999999999998,1584.58
1298,0.520770,1460,5125548,-5928.32,-240.82999999999998,1584.58
1299,0.521185,1461,5125963,-4078.32,-362.83,2358.58
1300,0.521579,1462,5126357,-4078.32,-362.83,2358.58
1301,0.521993,1463,5126771,-1550.32,338.17,2600.58
1302,0.522396,1464,5127174,-1550.32,338.17,2600.58
1303,0.522799,1465,5127577,824.6800000000001,918.17,3471.58
1304,0.523191,1466,5127969,824.6800000000001,918.17,3471.58
1305,0.523577,1467,5128355,824.6800000000001,918.17,3471.58
1306,0.523969,1468,5128747,3421.68,1256.17,2608.58
1307,0.524358,1469,5129136,3421.68,1256.17,2608.58
1308,0.524748,1470,5129526,3421.68,1256.17,2608.58
1309,0.525157,1471,5129935,7532.68,1503.17,676.5799999999999
1310,0.525544,1472,5130322,7532.68,1503.17,676.5799999999999
1311,0.525926,1473,5130704,11130.68,550.17,997.5799999999999
1312,0.526320,1474,5131098,11130.68,550.17,997.5799999999999
1313,0.526716,1475,5131494,11130.68,550.17,997.5799999999999
1314,0.527109,1476,5131887,9829.68,-359.83,1060.58
1315,0.527523,1477,5132301,9829.68,-359.83,1060.58
1316,0.527912,1478,5132690,5140.68,-220.82999999999998,-1245.42
1317,0.528315,1479,5133093,5140.68,-220.82999999999998,-1245.42
1318,0.528716,1480,5133494,5140.68,-220.82999999999998,-1245.42
1319,0.529125,1481,5133903,-352.32,-387.83,-3276.42
1320,0.529530,1482,5134308,-352.32,-387.83,-3276.42
1321,0.529934,1483,5134712,-4067.32,-518.83,-3737.42
1322,0.530344,1484,5135122,-4067.32,-518.83,-3737.42
1323,0.530754,1485,5135532,-4067.32,-518.83,-3737.42
1324,0.531168,1486,5135946,-2607.32,-670.83,-3351.42
1325,0.531571,1487,5136349,-2607.32,-670.83,-3351.42
1326,0.531983,1488,5136761,-341.32,-1262.83,-2866.42
1327,0.532393,1489,5137171,-341.32,-1262.83,-2866.42
1328,0.532803,1490,5137581,595.6800000000001,-1142.83,-2312.42
1329,0.533210,1491,5137988,595.6800000000001,-1142.83,-2312.42
1330,0.533598,1492,5138376,595.6800000000001,-1142.83,-2312.42
1331,0.534004,1493,5138782,153.68,-417.83,-1454.42
1332,0.534406,1494,5139184,153.68,-417.83,-1454.42
1333,0.534807,1495,5139585,-357.32,-246.82999999999998,186.57999999999993
1334,0.535221,1496,5139999,-357.32,-246.82999999999998,186.57999999999993
1335,0.535625,1497,5140403,-357.32,-246.82999999999998,186.57999999999993
1336,0.536036,1498,5140814,-684.3199999999999,-69.83,1812.58
1337,0.536445,1499,5141223,-684.3199999999999,-69.83,1812.58
1338,0.536855,1500,5141633,-42.31999999999999,883.17,2152.58
1339,0.537255,1501,5142033,-42.31999999999999,883.17,2152.58
1340,0.537652,1502,5142430,-42.31999999999999,883.17,2152.58
1341,0.538061,1503,5142839,479.68,1097.17,2415.58
1342,0.538448,1504,5143226,479.68,1097.17,2415.58
1343,0.538841,1505,5143619,-142.32,777.17,3716.58
1344,0.539254,1506,5144032,-142.32,777.17,3716.58
1345,0.539645,1507,5144423,-142.32,777.17,3716.58
1346,0.540053,1508,5144831,-405.32,789.17,4154.58
1347,0.540447,1509,5145225,-405.32,789.17,4154.58
1348,0.540849,1510,5145627,-7352.32,619.17,2117.58
1349,0.541263,1511,5146041,-7352.32,619.17,2117.58
1350,0.541653,1512,5146431,-7352.32,619.17,2117.58
1351,0.542062,1513,5146840,-10039.32,-32.83,504.5799999999999
1352,0.542471,1514,5147249,-10039.32,-32.83,504.5799999999999
1353,0.542881,1515,5147659,-10220.32,-95.83,-838.4200000000001
1354,0.543291,1516,5148069,-10220.32,-95.83,-838.4200000000001
1355,0.543703,1517,5148481,-10220.32,-95.83,-838.4200000000001
1356,0.544107,1518,5148885,-4817.32,115.17,-1660.42
1357,0.544508,1519,5149286,-4817.32,115.17,-1660.42
1358,0.544911,1520,5149689,5081.68,-255.82999999999998,-2326.42
1359,0.545314,1521,5150092,5081.68,-255.82999999999998,-2326.42
1360,0.545716,1522,5150494,5081.68,-255.82999999999998,-2326.42
1361,0.546119,1523,5150897,11047.68,-122.83,-2568.42
1362,0.546518,1524,5151296,11047.68,-122.83,-2568.42
1363,0.546922,1525,5151700,12496.68,86.17,-319.4200000000001
1364,0.547311,1526,5152089,12496.68,86.17,-319.4200000000001
1365,0.547707,1527,5152485,12496.68,86.17,-319.4200000000001
1366,0.548102,1528,5152880,5934.68,74.17,134.57999999999993
1367,0.548501,1529,5153279,5934.68,74.17,134.57999999999993
1368,0.548889,1530,5153667,0.6800000000000068,353.17,-784.4200000000001
1369,0.549289,1531,5154067,0.6800000000000068,353.17,-784.4200000000001
1370,0.549699,1532,5154477,0.6800000000000068,353.17,-784.4200000000001
1371,0.550100,1533,5154878,-3744.32,158.17000000000002,-138.42000000000007
1372,0.550507,1534,5155285,-3744.32,158.17000000000002,-138.42000000000007
1373,0.550897,1535,5155675,-3033.32,-654.83,156.57999999999993
1374,0.551309,1536,5156087,-3033.32,-654.83,156.57999999999993
1375,0.551715,1537,5156493,-3033.32,-654.83,156.57999999999993
1376,0.552131,1538,5156909,-799.3199999999999,-460.83,-1300.42
1377,0.552544,1539,5157322,-799.3199999999999,-460.83,-1300.42
1378,0.552947,1540,5157725,921.6800000000001,-446.83,-2492.42
1379,0.553350,1541,5158128,921.6800000000001,-446.83,-2492.42
1380,0.553748,1542,5158526,921.6800000000001,-446.83,-2492.42
1381,0.554160,1543,5158938,641.6800000000001,-630.83,-2797.42
1382,0.554555,1544,5159333,641.6800000000001,-630.83,-2797.42
1383,0.554951,1545,5159729,-1499.32,-425.83,-2558.42
1384,0.555354,1546,5160132,-1499.32,-425.83,-2558.42
1385,0.555767,1547,5160545,-1499.32,-425.83,-2558.42
1386,0.556181,1548,5160959,-4911.32,-500.83,-1530.42
1387,0.556581,1549,5161359,-4911.32,-500.83,-1530.42
1388,0.556995,1550,5161773,-5433.32,-554.83,675.5799999999999
1389,0.557406,1551,5162184,-5433.32,-554.83,675.5799999999999
1390,0.557815,1552,5162593,-4495.32,-244.82999999999998,2289.58
1391,0.558230,1553,5163008,-4495.32,-244.82999999999998,2289.58
1392,0.558629,1554,5163407,-4495.32,-244.82999999999998,2289.58
1393,0.559039,1555,5163817,-3045.32,179.17000000000002,2601.58
1394,0.559442,1556,5164220,-3045.32,179.17000000000002,2601.58
1395,0.559838,1557,5164616,-1136.32,640.17,3064.58
1396,0.560244,1558,5165022,-1136.32,640.17,3064.58
1397,0.560634,1559,5165412,-1136.32,640.17,3064.58
1398,0.561044,1560,5165822,3350.68,1100.17,3030.58
1399,0.561439,1561,5166217,3350.68,1100.17,3030.58
1400,0.561828,1562,5166606,7545.68,1543.17,1432.58
1401,0.562226,1563,5167004,7545.68,1543.17,1432.58
1402,0.562616,1564,5167394,7545.68,1543.17,1432.58
1403,0.562998,1565,5167776,8892.68,1006.17,911.5799999999999
1404,0.563393,1566,5168171,8892.68,1006.17,911.5799999999999
1405,0.563786,1567,5168564,10710.68,-74.83,1330.58
1406,0.564200,1568,5168978,10710.68,-74.83,1330.58
1407,0.564587,1569,5169365,10710.68,-74.83,1330.58
1408,0.564987,1570,5169765,7714.68,-233.82999999999998,-265.4200000000001
1409,0.565391,1571,5170169,7714.68,-233.82999999999998,-265.4200000000001
1410,0.565786,1572,5170564,1207.68,-294.83,-2645.42
1411,0.566185,1573,5170963,1207.68,-294.83,-2645.42
1412,0.566566,1574,5171344,1207.68,-294.83,-2645.42
1413,0.566972,1575,5171750,-3726.32,-477.83,-3814.42
1414,0.567381,1576,5172159,-3726.32,-477.83,-3814.42
1415,0.567791,1577,5172569,-2880.32,-744.83,-3519.42
1416,0.568204,1578,5172982,-2880.32,-744.83,-3519.42
1417,0.568599,1579,5173377,-2880.32,-744.83,-3519.42
1418,0.569018,1580,5173796,-1262.32,-1113.83,-3015.42
1419,0.569428,1581,5174206,-1262.32,-1113.83,-3015.42
1420,0.569839,1582,5174617,315.68,-1389.83,-2690.42
1421,0.570244,1583,5175022,315.68,-1389.83,-2690.42
1422,0.570634,1584,5175412,315.68,-1389.83,-2690.42
1423,0.571033,1585,5175811,583.6800000000001,-645.83,-2068.42
1424,0.571441,1586,5176219,583.6800000000001,-645.83,-2068.42
1425,0.571843,1587,5176621,-397.32,-202.82999999999998,-447.4200000000001
1426,0.572257,1588,5177035,-397.32,-202.82999999999998,-447.4200000000001
1427,0.572664,1589,5177442,-397.32,-202.82999999999998,-447.4200000000001
1428,0.573067,1590,5177845,-586.3199999999999,-489.83,1441.58
1429,0.573483,1591,5178261,-586.3199999999999,-489.83,1441.58
1430,0.573893,1592,5178671,-875.3199999999999,864.17,1953.58
1431,0.574295,1593,5179073,-875.3199999999999,864.17,1953.58
1432,0.574699,1594,5179477,-875.3199999999999,864.17,1953.58
1433,0.575094,1595,5179872,44.68000000000001,1245.17,2069.58
1434,0.575502,1596,5180280,44.68000000000001,1245.17,2069.58
1435,0.575898,1597,5180676,-579.3199999999999,615.17,3480.58
1436,0.576293,1598,5181071,-579.3199999999999,615.17,3480.58
1437,0.576704,1599,5181482,-579.3199999999999,615.17,3480.58
1438,0.577098,1600,5181876,347.68,1111.17,4420.58
1439,0.577497,1601,5182275,347.68,1111.17,4420.58
1440,0.577887,1602,5182665,-3294.32,327.17,3150.58
1441,0.578295,1603,5183073,-3294.32,327.17,3150.58
1442,0.578684,1604,5183462,-3294.32,327.17,3150.58
1443,0.579053,1605,5183831,-9288.32,148.17000000000002,1192.58
1444,0.579460,1606,5184238,-9288.32,148.17000000000002,1192.58
1445,0.579862,1607,5184640,-12004.32,382.17,-384.4200000000001
1446,0.580264,1608,5185042,-12004.32,382.17,-384.4200000000001
1447,0.580663,1609,5185441,-12004.32,382.17,-384.4200000000001
1448,0.581059,1610,5185837,-6707.32,-147.82999999999998,-1472.42
1449,0.581476,1611,5186254,-6707.32,-147.82999999999998,-1472.42
1450,0.581885,1612,5186663,3247.68,-109.83,-2160.42
1451,0.582287,1613,5187065,3247.68,-109.83,-2160.42
1452,0.582676,1614,5187454,3247.68,-109.83,-2160.42
1453,0.583061,1615,5187839,9551.68,-104.83,-2786.42
1454,0.583457,1616,5188235,9551.68,-104.83,-2786.42
1455,0.583859,1617,5188637,12381.68,-71.83,-1242.42
1456,0.584258,1618,5189036,12381.68,-71.83,-1242.42
1457,0.584663,1619,5189441,12381.68,-71.83,-1242.42
1458,0.585066,1620,5189844,7461.68,-38.83,112.57999999999993
1459,0.585459,1621,5190237,7461.68,-38.83,112.57999999999993
1460,0.585868,1622,5190646,1788.68,208.17000000000002,-478.4200000000001
1461,0.586258,1623,5191036,1788.68,208.17000000000002,-478.4200000000001
1462,0.586648,1624,5191426,1788.68,208.17000000000002,-478.4200000000001
1463,0.587050,1625,5191828,-2827.32,344.17,-469.4200000000001
1464,0.587452,1626,5192230,-2827.32,344.17,-469.4200000000001
1465,0.587854,1627,5192632,-3522.32,-449.83,185.57999999999993
1466,0.588268,1628,5193046,-3522.32,-449.83,185.57999999999993
1467,0.588674,1629,5193452,-3522.32,-449.83,185.57999999999993
1468,0.589085,1630,5193863,-1960.32,-635.83,-733.4200000000001
1469,0.589499,1631,5194277,-1960.32,-635.83,-733.4200000000001
1470,0.589896,1632,5194674,78.68,-238.82999999999998,-2387.42
1471,0.590312,1633,5195090,78.68,-238.82999999999998,-2387.42
1472,0.590722,1634,5195500,78.68,-238.82999999999998,-2387.42
1473,0.591131,1635,5195909,1906.68,-735.83,-2574.42
1474,0.591531,1636,5196309,1906.68,-735.83,-2574.42
1475,0.591928,1637,5196706,-696.3199999999999,-574.83,-2428.42
1476,0.592337,1638,5197115,-696.3199999999999,-574.83,-2428.42
1477,0.592747,1639,5197525,-696.3199999999999,-574.83,-2428.42
1478,0.593162,1640,5197940,-3815.32,-103.83,-1848.42
1479,0.593566,1641,5198344,-3815.32,-103.83,-1848.42
1480,0.593970,1642,5198748,-5806.32,-678.83,69.57999999999993
1481,0.594379,1643,5199157,-5806.32,-678.83,69.57999999999993
1482,0.594790,1644,5199568,-5183.32,-564.83,2085.58
1483,0.595204,1645,5199982,-5183.32,-564.83,2085.58
1484,0.595600,1646,5200378,-5183.32,-564.83,2085.58
1485,0.596019,1647,5200797,-3221.32,298.17,2495.58
1486,0.596423,1648,5201201,-3221.32,298.17,2495.58
1487,0.596825,1649,5201603,-1355.32,575.17,2824.58
1488,0.597230,1650,5202008,-1355.32,575.17,2824.58
1489,0.597620,1651,5202398,-1355.32,575.17,2824.58
1490,0.598023,1652,5202801,2157.68,792.17,3304.58
1491,0.598403,1653,5203181,2157.68,792.17,3304.58
1492,0.598792,1654,5203570,5249.68,1468.17,1590.58
1493,0.599184,1655,5203962,5249.68,1468.17,1590.58
1494,0.599553,1656,5204331,5249.68,1468.17,1590.58
1495,0.599935,1657,5204713,8493.68,1152.17,823.5799999999999
1496,0.600328,1658,5205106,8493.68,1152.17,823.5799999999999
1497,0.600727,1659,5205505,8493.68,1152.17,823.5799999999999
1498,0.601122,1660,5205900,11481.68,97.17,1473.58
1499,0.601520,1661,5206298,11481.68,97.17,1473.58
1500,0.601909,1662,5206687,9393.68,-130.82999999999998,84.57999999999993
1501,0.602318,1663,5207096,9393.68,-130.82999999999998,84.57999999999993
1502,0.602722,1664,5207500,9393.68,-130.82999999999998,84.57999999999993
1503,0.603124,1665,5207902,2162.68,-148.82999999999998,-2359.42
1504,0.603530,1666,5208308,2162.68,-148.82999999999998,-2359.42
1505,0.603926,1667,5208704,-2697.32,-658.83,-3450.42
1506,0.604336,1668,5209114,-2697.32,-658.83,-3450.42
1507,0.604746,1669,5209524,-2697.32,-658.83,-3450.42
1508,0.605159,1670,5209937,-2778.32,-771.83,-3510.42
1509,0.605562,1671,5210340,-2778.32,-771.83,-3510.42
1510,0.605966,1672,5210744,-1720.32,-866.83,-3350.42
1511,0.606370,1673,5211148,-1720.32,-866.83,-3350.42
1512,0.606783,1674,5211561,142.68,-1079.83,-2624.42
1513,0.607195,1675,5211973,142.68,-1079.83,-2624.42
1514,0.607591,1676,5212369,142.68,-1079.83,-2624.42
1515,0.608003,1677,5212781,426.68,-998.83,-2013.42
1516,0.608406,1678,5213184,426.68,-998.83,-2013.42
1517,0.608808,1679,5213586,-863.3199999999999,-336.83,-1004.4200000000001
1518,0.609223,1680,5214001,-863.3199999999999,-336.83,-1004.4200000000001
1519,0.609622,1681,5214400,-863.3199999999999,-336.83,-1004.4200000000001
1520,0.610027,1682,5214805,-1134.32,-157.82999999999998,1030.58
1521,0.610437,1683,5215215,-1134.32,-157.82999999999998,1030.58
1522,0.610846,1684,5215624,-947.3199999999999,281.17,1984.58
1523,0.611246,1685,5216024,-947.3199999999999,281.17,1984.58
1524,0.611644,1686,5216422,-947.3199999999999,281.17,1984.58
1525,0.612046,1687,5216824,527.6800000000001,1074.17,2019.58
1526,0.612440,1688,5217218,527.6800000000001,1074.17,2019.58
1527,0.612834,1689,5217612,759.6800000000001,1039.17,3261.58
1528,0.613231,1690,5218009,759.6800000000001,1039.17,3261.58
1529,0.613621,1691,5218399,759.6800000000001,1039.17,3261.58
1530,0.614016,1692,5218794,2129.68,776.17,4370.58
1531,0.614403,1693,5219181,2129.68,776.17,4370.58
1532,0.614805,1694,5219583,-3818.32,667.17,3089.58
1533,0.615212,1695,5219990,-3818.32,667.17,3089.58
1534,0.615599,1696,5220377,-3818.32,667.17,3089.58
1535,0.616004,1697,5220782,-10069.32,196.17000000000002,1591.58
1536,0.616405,1698,5221183,-10069.32,196.17000000000002,1591.58
1537,0.616807,1699,5221585,-11702.32,102.17,-27.420000000000073
1538,0.617219,1700,5221997,-11702.32,102.17,-27.420000000000073
1539,0.617602,1701,5222380,-11702.32,102.17,-27.420000000000073
1540,0.618014,1702,5222792,-8895.32,288.17,-1527.42
1541,0.618417,1703,5223195,-8895.32,288.17,-1527.42
1542,0.618819,1704,5223597,2030.68,-407.83,-1598.42
1543,0.619225,1705,5224003,2030.68,-407.83,-1598.42
1544,0.619606,1706,5224384,2030.68,-407.83,-1598.42
1545,0.620013,1707,5224791,8751.68,-326.83,-2644.42
1546,0.620415,1708,5225193,8751.68,-326.83,-2644.42
1547,0.620817,1709,5225595,12490.68,189.17000000000002,-1804.42
1548,0.621216,1710,5225994,12490.68,189.17000000000002,-1804.42
1549,0.621595,1711,5226373,12490.68,189.17000000000002,-1804.42
1550,0.621992,1712,5226770,9114.68,-121.83,153.57999999999993
1551,0.622395,1713,5227173,9114.68,-121.83,153.57999999999993
1552,0.622796,1714,5227574,2287.68,122.17,-547.4200000000001
1553,0.623195,1715,5227973,2287.68,122.17,-547.4200000000001
1554,0.623575,1716,5228353,2287.68,122.17,-547.4200000000001
1555,0.623966,1717,5228744,-2131.32,652.17,-723.4200000000001
1556,0.624369,1718,5229147,-2131.32,652.17,-723.4200000000001
1557,0.624778,1719,5229556,-3696.32,-405.83,155.57999999999993
1558,0.625190,1720,5229968,-3696.32,-405.83,155.57999999999993
1559,0.625585,1721,5230363,-3696.32,-405.83,155.57999999999993
1560,0.626000,1722,5230778,-2288.32,-636.83,-367.4200000000001
1561,0.626409,1723,5231187,-2288.32,-636.83,-367.4200000000001
1562,0.626819,1724,5231597,579.6800000000001,-354.83,-1746.42
1563,0.627225,1725,5232003,579.6800000000001,-354.83,-1746.42
1564,0.627622,1726,5232400,579.6800000000001,-354.83,-1746.42
1565,0.628012,1727,5232790,1166.68,-699.83,-2669.42
1566,0.628409,1728,5233187,1166.68,-699.83,-2669.42
1567,0.628810,1729,5233588,-918.3199999999999,-440.83,-2577.42
1568,0.629230,1730,5234008,-918.3199999999999,-440.83,-2577.42
1569,0.629630,1731,5234408,-918.3199999999999,-440.83,-2577.42
1570,0.630040,1732,5234818,-2878.32,-326.83,-1939.42
1571,0.630450,1733,5235228,-2878.32,-326.83,-1939.42
1572,0.630861,1734,5235639,-5641.32,-561.83,-578.4200000000001
1573,0.631274,1735,5236052,-5641.32,-561.83,-578.4200000000001
1574,0.631680,1736,5236458,-5641.32,-561.83,-578.4200000000001
1575,0.632091,1737,5236869,-5494.32,-426.83,1448.58
1576,0.632505,1738,5237283,-5494.32,-426.83,1448.58
1577,0.632909,1739,5237687,-2736.32,-41.83,2469.58
1578,0.633319,1740,5238097,-2736.32,-41.83,2469.58
1579,0.633730,1741,5238508,-2736.32,-41.83,2469.58
1580,0.634145,1742,5238923,-724.3199999999999,359.17,2755.58
1581,0.634546,1743,5239324,-724.3199999999999,359.17,2755.58
1582,0.634941,1744,5239719,1096.68,837.17,3195.58
1583,0.635336,1745,5240114,1096.68,837.17,3195.58
1584,0.635730,1746,5240508,1096.68,837.17,3195.58
1585,0.636119,1747,5240897,3126.68,1369.17,2087.58
1586,0.636511,1748,5241289,3126.68,1369.17,2087.58
1587,0.636900,1749,5241678,7796.68,1252.17,993.5799999999999
1588,0.637295,1750,5242073,7796.68,1252.17,993.5799999999999
1589,0.637699,1751,5242477,7796.68,1252.17,993.5799999999999
1590,0.638089,1752,5242867,11505.68,328.17,1310.58
1591,0.638488,1753,5243266,11505.68,328.17,1310.58
1592,0.638882,1754,5243660,8895.68,-245.82999999999998,382.5799999999999
1593,0.639284,1755,5244062,8895.68,-245.82999999999998,382.5799999999999
1594,0.639682,1756,5244460,8895.68,-245.82999999999998,382.5799999999999
1595,0.640091,1757,5244869,3886.68,-210.82999999999998,-1646.42
1596,0.640490,1758,5245268,3886.68,-210.82999999999998,-1646.42
1597,0.640894,1759,5245672,-776.3199999999999,-468.83,-3256.42
1598,0.641303,1760,5246081,-776.3199999999999,-468.83,-3256.42
1599,0.641714,1761,5246492,-776.3199999999999,-468.83,-3256.42
1600,0.642124,1762,5246902,-3252.32,-584.83,-3873.42
1601,0.642537,1763,5247315,-3252.32,-584.83,-3873.42
1602,0.642933,1764,5247711,-1927.32,-808.83,-3243.42
1603,0.643352,1765,5248130,-1927.32,-808.83,-3243.42
1604,0.643763,1766,5248541,-1927.32,-808.83,-3243.42
1605,0.644177,1767,5248955,-200.32,-1127.83,-2551.42
1606,0.644572,1768,5249350,-200.32,-1127.83,-2551.42
1607,0.644986,1769,5249764,312.68,-941.83,-2244.42
1608,0.645382,1770,5250160,312.68,-941.83,-2244.42
1609,0.645776,1771,5250554,-689.3199999999999,-542.83,-1194.42
1610,0.646193,1772,5250971,-689.3199999999999,-542.83,-1194.42
1611,0.646589,1773,5251367,-689.3199999999999,-542.83,-1194.42
1612,0.647003,1774,5251781,-686.3199999999999,-183.82999999999998,978.5799999999999
1613,0.647412,1775,5252190,-686.3199999999999,-183.82999999999998,978.5799999999999
1614,0.647821,1776,5252599,-1356.32,227.17000000000002,1885.58
1615,0.648220,1777,5252998,-1356.32,227.17000000000002,1885.58
1616,0.648603,1778,5253381,-1356.32,227.17000000000002,1885.58
1617,0.649009,1779,5253787,409.68,845.17,1638.58
1618,0.649398,1780,5254176,409.68,845.17,1638.58
1619,0.649779,1781,5254557,1600.68,1106.17,2788.58
1620,0.650177,1782,5254955,1600.68,1106.17,2788.58
1621,0.650564,1783,5255342,1600.68,1106.17,2788.58
1622,0.650955,1784,5255733,1789.68,885.17,3942.58
1623,0.651345,1785,5256123,1789.68,885.17,3942.58
1624,0.651741,1786,5256519,1789.68,885.17,3942.58
1625,0.652140,1787,5256918,-2476.32,798.17,3550.58
1626,0.652542,1788,5257320,-2476.32,798.17,3550.58
1627,0.652939,1789,5257717,-9572.32,354.17,2039.58
1628,0.653335,1790,5258113,-9572.32,354.17,2039.58
1629,0.653730,1791,5258508,-9572.32,354.17,2039.58
1630,0.654142,1792,5258920,-9956.32,-159.82999999999998,359.5799999999999
1631,0.654544,1793,5259322,-9956.32,-159.82999999999998,359.5799999999999
1632,0.654947,1794,5259725,-9988.32,186.17000000000002,-1326.42
1633,0.655348,1795,5260126,-9988.32,186.17000000000002,-1326.42
1634,0.655762,1796,5260540,-9988.32,186.17000000000002,-1326.42
1635,0.656168,1797,5260946,-2343.32,47.17,-1703.42
1636,0.656563,1798,5261341,-2343.32,47.17,-1703.42
1637,0.656959,1799,5261737,6474.68,-338.83,-2495.42
1638,0.657361,1800,5262139,6474.68,-338.83,-2495.42
1639,0.657763,1801,5262541,6474.68,-338.83,-2495.42
1640,0.658170,1802,5262948,11905.68,-66.83,-2184.42
1641,0.658566,1803,5263344,11905.68,-66.83,-2184.42
1642,0.658962,1804,5263740,11312.68,-163.82999999999998,63.57999999999993
1643,0.659366,1805,5264144,11312.68,-163.82999999999998,63.57999999999993
1644,0.659770,1806,5264548,4531.68,234.17000000000002,-307.4200000000001
1645,0.660163,1807,5264941,4531.68,234.17000000000002,-307.4200000000001
1646,0.660556,1808,5265334,4531.68,234.17000000000002,-307.4200000000001
1647,0.660939,1809,5265717,-363.32,518.17,-606.4200000000001
1648,0.661340,1810,5266118,-363.32,518.17,-606.4200000000001
1649,0.661748,1811,5266526,-363.32,518.17,-606.4200000000001
1650,0.662153,1812,5266931,-3660.32,-294.83,124.57999999999993
1651,0.662557,1813,5267335,-3660.32,-294.83,124.57999999999993
1652,0.662961,1814,5267739,-2734.32,-464.83,-79.42000000000007
1653,0.663371,1815,5268149,-2734.32,-464.83,-79.42000000000007
1654,0.663783,1816,5268561,-508.32,-366.83,-1395.42
1655,0.664194,1817,5268972,-508.32,-366.83,-1395.42
1656,0.664589,1818,5269367,-508.32,-366.83,-1395.42
1657,0.665004,1819,5269782,613.6800000000001,-539.83,-2576.42
1658,0.665406,1820,5270184,613.6800000000001,-539.83,-2576.42
1659,0.665808,1821,5270586,-332.32,-380.83,-2768.42
1660,0.666206,1822,5270984,-332.32,-380.83,-2768.42
1661,0.666595,1823,5271373,-332.32,-380.83,-2768.42
1662,0.667009,1824,5271787,-2536.32,-540.83,-2295.42
1663,0.667418,1825,5272196,-2536.32,-540.83,-2295.42
1664,0.667827,1826,5272605,-4936.32,-562.83,-1014.4200000000001
1665,0.668240,1827,5273018,-4936.32,-562.83,-1014.4200000000001
1666,0.668639,1828,5273417,-4936.32,-562.83,-1014.4200000000001
1667,0.669047,1829,5273825,-5231.32,-412.83,904.5799999999999
1668,0.669458,1830,5274236,-5231.32,-412.83,904.5799999999999
1669,0.669870,1831,5274648,-3822.32,-253.82999999999998,2226.58
1670,0.670280,1832,5275058,-3822.32,-253.82999999999998,2226.58
1671,0.670688,1833,5275466,-3822.32,-253.82999999999998,2226.58
1672,0.671104,1834,5275882,-1727.32,278.17,2674.58
1673,0.671510,1835,5276288,-1727.32,278.17,2674.58
1674,0.671907,1836,5276685,-73.32,726.17,3179.58
1675,0.672310,1837,5277088,-73.32,726.17,3179.58
1676,0.672713,1838,5277491,-73.32,726.17,3179.58
1677,0.673108,1839,5277886,3463.68,1141.17,2822.58
1678,0.673507,1840,5278285,3463.68,1141.17,2822.58
1679,0.673895,1841,5278673,7234.68,1535.17,1142.58
1680,0.674290,1842,5279068,7234.68,1535.17,1142.58
1681,0.674688,1843,5279466,7234.68,1535.17,1142.58
1682,0.675083,1844,5279861,9311.68,862.17,814.5799999999999
1683,0.675480,1845,5280258,9311.68,862.17,814.5799999999999
1684,0.675874,1846,5280652,10426.68,-288.83,1136.58
1685,0.676285,1847,5281063,10426.68,-288.83,1136.58
1686,0.676682,1848,5281460,10426.68,-288.83,1136.58
1687,0.677083,1849,5281861,6939.68,-346.83,-810.4200000000001
1688,0.677497,1850,5282275,6939.68,-346.83,-810.4200000000001
1689,0.677892,1851,5282670,729.6800000000001,-372.83,-3141.42
1690,0.678301,1852,5283079,729.6800000000001,-372.83,-3141.42
1691,0.678692,1853,5283470,729.6800000000001,-372.83,-3141.42
1692,0.679082,1854,5283860,-4155.32,-363.83,-3994.42
1693,0.679497,1855,5284275,-4155.32,-363.83,-3994.42
1694,0.679901,1856,5284679,-2946.32,-749.83,-3394.42
1695,0.680312,1857,5285090,-2946.32,-749.83,-3394.42
1696,0.680723,1858,5285501,-2946.32,-749.83,-3394.42
1697,0.681137,1859,5285915,-507.32,-1295.83,-2738.42
1698,0.681545,1860,5286323,-507.32,-1295.83,-2738.42
1699,0.681949,1861,5286727,725.6800000000001,-956.83,-2507.42
1700,0.682344,1862,5287122,725.6800000000001,-956.83,-2507.42
1701,0.682740,1863,5287518,725.6800000000001,-956.83,-2507.42
1702,0.683109,1864,5287887,256.68,-606.83,-1502.42
1703,0.683483,1865,5288261,256.68,-606.83,-1502.42
1704,0.683873,1866,5288651,-1133.32,-555.83,165.57999999999993
1705,0.684290,1867,5289068,-1133.32,-555.83,165.57999999999993
1706,0.684696,1868,5289474,-1133.32,-555.83,165.57999999999993
1707,0.685106,1869,5289884,-1553.32,109.17,1765.58
1708,0.685512,1870,5290290,-1553.32,109.17,1765.58
1709,0.685909,1871,5290687,-69.32,949.17,1800.58
1710,0.686304,1872,5291082,-69.32,949.17,1800.58
1711,0.686707,1873,5291485,-69.32,949.17,1800.58
1712,0.687109,1874,5291887,715.6800000000001,1132.17,2025.58
1713,0.687501,1875,5292279,715.6800000000001,1132.17,2025.58
1714,0.687890,1876,5292668,756.6800000000001,762.17,3965.58
1715,0.688279,1877,5293057,756.6800000000001,762.17,3965.58
1716,0.688675,1878,5293453,756.6800000000001,762.17,3965.58
1717,0.689063,1879,5293841,661.6800000000001,876.17,4136.58
1718,0.689452,1880,5294230,661.6800000000001,876.17,4136.58
1719,0.689847,1881,5294625,-6046.32,435.17,2733.58
1720,0.690252,1882,5295030,-6046.32,435.17,2733.58
1721,0.690651,1883,5295429,-6046.32,435.17,2733.58
1722,0.691052,1884,5295830,-10555.32,-194.82999999999998,1105.58
1723,0.691468,1885,5296246,-10555.32,-194.82999999999998,1105.58
1724,0.691877,1886,5296655,-12068.32,287.17,-1108.42
1725,0.692272,1887,5297050,-12068.32,287.17,-1108.42
1726,0.692677,1888,5297455,-12068.32,287.17,-1108.42
1727,0.693078,1889,5297856,-5884.32,131.17000000000002,-1838.42
1728,0.693493,1890,5298271,-5884.32,131.17000000000002,-1838.42
1729,0.693883,1891,5298661,4786.68,-286.83,-2187.42
1730,0.694279,1892,5299057,4786.68,-286.83,-2187.42
1731,0.694682,1893,5299460,4786.68,-286.83,-2187.42
1732,0.695078,1894,5299856,11423.68,88.17,-2814.42
1733,0.695478,1895,5300256,11423.68,88.17,-2814.42
1734,0.695868,1896,5300646,12588.68,-98.83,-683.4200000000001
1735,0.696271,1897,5301049,12588.68,-98.83,-683.4200000000001
1736,0.696674,1898,5301452,12588.68,-98.83,-683.4200000000001
1737,0.697077,1899,5301855,6590.68,-211.82999999999998,269.5799999999999
1738,0.697479,1900,5302257,6590.68,-211.82999999999998,269.5799999999999
1739,0.697874,1901,5302652,613.6800000000001,438.17,-725.4200000000001
1740,0.698269,1902,5303047,613.6800000000001,438.17,-725.4200000000001
1741,0.698652,1903,5303430,613.6800000000001,438.17,-725.4200000000001
1742,0.699045,1904,5303823,-3920.32,258.17,-71.42000000000007
1743,0.699438,1905,5304216,-3920.32,258.17,-71.42000000000007
1744,0.699828,1906,5304606,-2821.32,-629.83,225.57999999999993
1745,0.700243,1907,5305021,-2821.32,-629.83,225.57999999999993
1746,0.700643,1908,5305421,-2821.32,-629.83,225.57999999999993
1747,0.701055,1909,5305833,-973.3199999999999,-556.83,-1243.42
1748,0.701465,1910,5306243,-973.3199999999999,-556.83,-1243.42
1749,0.701873,1911,5306651,637.6800000000001,-228.82999999999998,-2454.42
1750,0.702277,1912,5307055,637.6800000000001,-228.82999999999998,-2454.42
1751,0.702674,1913,5307452,637.6800000000001,-228.82999999999998,-2454.42
1752,0.703078,1914,5307856,928.6800000000001,-731.83,-2701.42
1753,0.703480,1915,5308258,928.6800000000001,-731.83,-2701.42
1754,0.703874,1916,5308652,-1763.32,-632.83,-2829.42
1755,0.704286,1917,5309064,-1763.32,-632.83,-2829.42
1756,0.704690,1918,5309468,-1763.32,-632.83,-2829.42
1757,0.705106,1919,5309884,-4612.32,-147.82999999999998,-1771.42
1758,0.705520,1920,5310298,-4612.32,-147.82999999999998,-1771.42
1759,0.705924,1921,5310702,-5765.32,-644.83,680.5799999999999
1760,0.706333,1922,5311111,-5765.32,-644.83,680.5799999999999
1761,0.706744,1923,5311522,-5765.32,-644.83,680.5799999999999
1762,0.707159,1924,5311937,-4264.32,-472.83,2113.58
1763,0.707563,1925,5312341,-4264.32,-472.83,2113.58
1764,0.707966,1926,5312744,-2535.32,488.17,2382.58
1765,0.708368,1927,5313146,-2535.32,488.17,2382.58
1766,0.708771,1928,5313549,-711.3199999999999,482.17,3290.58
1767,0.709177,1929,5313955,-711.3199999999999,482.17,3290.58
1768,0.709565,1930,5314343,-711.3199999999999,482.17,3290.58
1769,0.709971,1931,5314749,3232.68,860.17,3272.58
1770,0.710358,1932,5315136,3232.68,860.17,3272.58
1771,0.710755,1933,5315533,6243.68,1579.17,1267.58
1772,0.711153,1934,5315931,6243.68,1579.17,1267.58
1773,0.711548,1935,5316326,6243.68,1579.17,1267.58
1774,0.711929,1936,5316707,7718.68,1086.17,767.5799999999999
1775,0.712323,1937,5317101,7718.68,1086.17,767.5799999999999
1776,0.712722,1938,5317500,7718.68,1086.17,767.5799999999999
1777,0.713116,1939,5317894,10424.68,-60.83,1404.58
1778,0.713530,1940,5318308,10424.68,-60.83,1404.58
1779,0.713920,1941,5318698,8518.68,-342.83,-314.4200000000001
1780,0.714321,1942,5319099,8518.68,-342.83,-314.4200000000001
1781,0.714731,1943,5319509,8518.68,-342.83,-314.4200000000001
1782,0.715138,1944,5319916,1832.68,-178.82999999999998,-2620.42
1783,0.715540,1945,5320318,1832.68,-178.82999999999998,-2620.42
1784,0.715930,1946,5320708,-2950.32,-544.83,-3566.42
1785,0.716340,1947,5321118,-2950.32,-544.83,-3566.42
1786,0.716751,1948,5321529,-2950.32,-544.83,-3566.42
1787,0.717171,1949,5321949,-2580.32,-830.83,-3625.42
1788,0.717574,1950,5322352,-2580.32,-830.83,-3625.42
1789,0.717986,1951,5322764,-1431.32,-932.83,-3154.42
1790,0.718396,1952,5323174,-1431.32,-932.83,-3154.42
1791,0.718812,1953,5323590,163.68,-1304.83,-2400.42
1792,0.719224,1954,5324002,163.68,-1304.83,-2400.42
1793,0.719606,1955,5324384,163.68,-1304.83,-2400.42
1794,0.720009,1956,5324787,-71.32,-718.83,-2042.42
1795,0.720421,1957,5325199,-71.32,-718.83,-2042.42
1796,0.720831,1958,5325609,-799.3199999999999,-241.82999999999998,-732.4200000000001
1797,0.721242,1959,5326020,-799.3199999999999,-241.82999999999998,-732.4200000000001
1798,0.721643,1960,5326421,-799.3199999999999,-241.82999999999998,-732.4200000000001
1799,0.722053,1961,5326831,-436.32,-266.83,1501.58
1800,0.722457,1962,5327235,-436.32,-266.83,1501.58
1801,0.722867,1963,5327645,-604.3199999999999,621.17,2007.58
1802,0.723273,1964,5328051,-604.3199999999999,621.17,2007.58
1803,0.723673,1965,5328451,-604.3199999999999,621.17,2007.58
1804,0.724067,1966,5328845,1030.68,1051.17,2110.58
1805,0.724460,1967,5329238,1030.68,1051.17,2110.58
1806,0.724855,1968,5329633,491.68,1024.17,3219.58
1807,0.725260,1969,5330038,491.68,1024.17,3219.58
1808,0.725643,1970,5330421,491.68,1024.17,3219.58
1809,0.726036,1971,5330814,1322.68,792.17,4408.58
1810,0.726430,1972,5331208,1322.68,792.17,4408.58
1811,0.726818,1973,5331596,-5076.32,558.17,3166.58
1812,0.727231,1974,5332009,-5076.32,558.17,3166.58
1813,0.727621,1975,5332399,-5076.32,558.17,3166.58
1814,0.728024,1976,5332802,-10543.32,189.17000000000002,951.5799999999999
1815,0.728427,1977,5333205,-10543.32,189.17000000000002,951.5799999999999
1816,0.728830,1978,5333608,-11108.32,88.17,-367.4200000000001
1817,0.729235,1979,5334013,-11108.32,88.17,-367.4200000000001
1818,0.729626,1980,5334404,-11108.32,88.17,-367.4200000000001
1819,0.730030,1981,5334808,-7901.32,198.17000000000002,-1537.42
1820,0.730425,1982,5335203,-7901.32,198.17000000000002,-1537.42
1821,0.730833,1983,5335611,3048.68,-200.82999999999998,-1752.42
1822,0.731240,1984,5336018,3048.68,-200.82999999999998,-1752.42
1823,0.731627,1985,5336405,3048.68,-200.82999999999998,-1752.42
1824,0.732026,1986,5336804,8693.68,-129.82999999999998,-2628.42
1825,0.732429,1987,5337207,8693.68,-129.82999999999998,-2628.42
1826,0.732824,1988,5337602,11797.68,-102.83,-1224.42
1827,0.733236,1989,5338014,11797.68,-102.83,-1224.42
1828,0.733625,1990,5338403,11797.68,-102.83,-1224.42
1829,0.734022,1991,5338800,8162.68,-127.83,477.5799999999999
1830,0.734418,1992,5339196,8162.68,-127.83,477.5799999999999
1831,0.734826,1993,5339604,1936.68,330.17,-623.4200000000001
1832,0.735224,1994,5340002,1936.68,330.17,-623.4200000000001
1833,0.735598,1995,5340376,1936.68,330.17,-623.4200000000001
1834,0.735990,1996,5340768,-1167.32,397.17,-541.4200000000001
1835,0.736393,1997,5341171,-1167.32,397.17,-541.4200000000001
1836,0.736787,1998,5341565,-2760.32,-298.83,-34.42000000000007
1837,0.737208,1999,5341986,-2760.32,-298.83,-34.42000000000007
1838,0.737693,2000,5342471,-2760.32,-298.83,-34.42000000000007
1839,0.738112,2001,5342890,-1640.32,-477.83,-637.4200000000001
1840,0.738526,2002,5343304,-1640.32,-477.83,-637.4200000000001
1841,0.738930,2003,5343708,674.6800000000001,-436.83,-1909.42
1842,0.739333,2004,5344111,674.6800000000001,-436.83,-1909.42
1843,0.739736,2005,5344514,674.6800000000001,-436.83,-1909.42
1844,0.740141,2006,5344919,1043.68,-666.83,-2862.42
1845,0.740536,2007,5345314,1043.68,-666.83,-2862.42
1846,0.740932,2008,5345710,-1207.32,-364.83,-2922.42
1847,0.741347,2009,5346125,-1207.32,-364.83,-2922.42
1848,0.741758,2010,5346536,-3350.32,-433.83,-1851.42
1849,0.742174,2011,5346952,-3350.32,-433.83,-1851.42
1850,0.742570,2012,5347348,-3350.32,-433.83,-1851.42
1851,0.742984,2013,5347762,-5604.32,-683.83,-71.42000000000007
1852,0.743394,2014,5348172,-5604.32,-683.83,-71.42000000000007
1853,0.743805,2015,5348583,-5780.32,-477.83,1394.58
1854,0.744220,2016,5348998,-5780.32,-477.83,1394.58
1855,0.744609,2017,5349387,-5780.32,-477.83,1394.58
1856,0.745023,2018,5349801,-3696.32,20.17,2330.58
1857,0.745419,2019,5350197,-3696.32,20.17,2330.58
1858,0.745827,2020,5350605,-750.3199999999999,385.17,3056.58
1859,0.746234,2021,5351012,-750.3199999999999,385.17,3056.58
1860,0.746624,2022,5351402,-750.3199999999999,385.17,3056.58
1861,0.747026,2023,5351804,567.6800000000001,827.17,3186.58
1862,0.747412,2024,5352190,567.6800000000001,827.17,3186.58
1863,0.747799,2025,5352577,2765.68,1416.17,2196.58
1864,0.748196,2026,5352974,2765.68,1416.17,2196.58
1865,0.748577,2027,5353355,2765.68,1416.17,2196.58
1866,0.748976,2028,5353754,8012.68,1239.17,1105.58
1867,0.749363,2029,5354141,8012.68,1239.17,1105.58
1868,0.749768,2030,5354546,11820.68,543.17,1172.58
1869,0.750161,2031,5354939,11820.68,543.17,1172.58
1870,0.750550,2032,5355328,11820.68,543.17,1172.58
1871,0.750932,2033,5355710,10051.68,-222.82999999999998,760.5799999999999
1872,0.751340,2034,5356118,10051.68,-222.82999999999998,760.5799999999999
1873,0.751737,2035,5356515,10051.68,-222.82999999999998,760.5799999999999
1874,0.752145,2036,5356923,4678.68,-296.83,-1385.42
1875,0.752540,2037,5357318,4678.68,-296.83,-1385.42
1876,0.752937,2038,5357715,-400.32,-234.82999999999998,-3321.42
1877,0.753346,2039,5358124,-400.32,-234.82999999999998,-3321.42
1878,0.753763,2040,5358541,-3855.32,-669.83,-3983.42
1879,0.754182,2041,5358960,-3855.32,-669.83,-3983.42
1880,0.754585,2042,5359363,-3855.32,-669.83,-3983.42
1881,0.754997,2043,5359775,-2491.32,-999.83,-3169.42
1882,0.755406,2044,5360184,-2491.32,-999.83,-3169.42
1883,0.755816,2045,5360594,-723.3199999999999,-980.83,-2933.42
1884,0.756231,2046,5361009,-723.3199999999999,-980.83,-2933.42
1885,0.756630,2047,5361408,-723.3199999999999,-980.83,-2933.42
1886,0.757041,2048,5361819,782.6800000000001,-1293.83,-2537.42
1887,0.757443,2049,5362221,782.6800000000001,-1293.83,-2537.42
1888,0.757846,2050,5362624,-249.32,-485.83,-1407.42
1889,0.758259,2051,5363037,-249.32,-485.83,-1407.42
1890,0.758659,2052,5363437,-249.32,-485.83,-1407.42
1891,0.759075,2053,5363853,-152.32,-174.82999999999998,338.5799999999999
1892,0.759485,2054,5364263,-152.32,-174.82999999999998,338.5799999999999
1893,0.759889,2055,5364667,-107.32,-63.83,1895.58
1894,0.760299,2056,5365077,-107.32,-63.83,1895.58
1895,0.760710,2057,5365488,-107.32,-63.83,1895.58
1896,0.761120,2058,5365898,68.68,885.17,1924.58
1897,0.761528,2059,5366306,68.68,885.17,1924.58
1898,0.761916,2060,5366694,1044.68,972.17,2828.58
1899,0.762310,2061,5367088,1044.68,972.17,2828.58
1900,0.762707,2062,5367485,1044.68,972.17,2828.58
1901,0.763101,2063,5367879,-51.31999999999999,1028.17,3827.58
1902,0.763508,2064,5368286,-51.31999999999999,1028.17,3827.58
1903,0.763912,2065,5368690,-3679.32,950.17,3849.58
1904,0.764307,2066,5369085,-3679.32,950.17,3849.58
1905,0.764719,2067,5369497,-3679.32,950.17,3849.58
1906,0.765120,2068,5369898,-9452.32,229.17000000000002,2487.58
1907,0.765520,2069,5370298,-9452.32,229.17000000000002,2487.58
1908,0.765917,2070,5370695,-9508.32,-82.83,551.5799999999999
1909,0.766300,2071,5371078,-9508.32,-82.83,551.5799999999999
1910,0.766715,2072,5371493,-9508.32,-82.83,551.5799999999999
1911,0.767126,2073,5371904,-8897.32,244.17000000000002,-1066.42
1912,0.767524,2074,5372302,-8897.32,244.17000000000002,-1066.42
1913,0.767929,2075,5372707,-2269.32,-186.82999999999998,-1473.42
1914,0.768332,2076,5373110,-2269.32,-186.82999999999998,-1473.42
1915,0.768749,2077,5373527,-2269.32,-186.82999999999998,-1473.42
1916,0.769165,2078,5373943,6271.68,-135.82999999999998,-2469.42
1917,0.769560,2079,5374338,6271.68,-135.82999999999998,-2469.42
1918,0.769956,2080,5374734,11538.68,0.1700000000000017,-2286.42
1919,0.770352,2081,5375130,11538.68,0.1700000000000017,-2286.42
1920,0.770741,2082,5375519,11538.68,0.1700000000000017,-2286.42
1921,0.771147,2083,5375925,10968.68,-61.83,-5.420000000000073
1922,0.771542,2084,5376320,10968.68,-61.83,-5.420000000000073
1923,0.771939,2085,5376717,4911.68,304.17,-279.4200000000001
1924,0.772326,2086,5377104,4911.68,304.17,-279.4200000000001
1925,0.772722,2087,5377500,4911.68,304.17,-279.4200000000001
1926,0.773115,2088,5377893,118.68,367.17,-747.4200000000001
1927,0.773527,2089,5378305,118.68,367.17,-747.4200000000001
1928,0.773922,2090,5378700,-3511.32,-341.83,0.5799999999999272
1929,0.774324,2091,5379102,-3511.32,-341.83,0.5799999999999272
1930,0.774742,2092,5379520,-3511.32,-341.83,0.5799999999999272
1931,0.775155,2093,5379933,-2785.32,-339.83,-368.4200000000001
1932,0.775551,2094,5380329,-2785.32,-339.83,-368.4200000000001
1933,0.775956,2095,5380734,-154.32,-395.83,-1677.42
1934,0.776365,2096,5381143,-154.32,-395.83,-1677.42
1935,0.776777,2097,5381555,946.6800000000001,-754.83,-2634.42
1936,0.777183,2098,5381961,946.6800000000001,-754.83,-2634.42
1937,0.777570,2099,5382348,946.6800000000001,-754.83,-2634.42
1938,0.777976,2100,5382754,-248.32,-423.83,-3104.42
1939,0.778385,2101,5383163,-248.32,-423.83,-3104.42
1940,0.778795,2102,5383573,-1790.32,-556.83,-2631.42
1941,0.779211,2103,5383989,-1790.32,-556.83,-2631.42
1942,0.779606,2104,5384384,-1790.32,-556.83,-2631.42
1943,0.780025,2105,5384803,-4671.32,-462.83,-984.4200000000001
1944,0.780436,2106,5385214,-4671.32,-462.83,-984.4200000000001
1945,0.780845,2107,5385623,-5639.32,-470.83,1222.58
1946,0.781260,2108,5386038,-5639.32,-470.83,1222.58
1947,0.781667,2109,5386445,-5639.32,-470.83,1222.58
1948,0.782075,2110,5386853,-4370.32,-271.83,2383.58
1949,0.782486,2111,5387264,-4370.32,-271.83,2383.58
1950,0.782875,2112,5387653,-3031.32,213.17000000000002,2842.58
1951,0.783267,2113,5388045,-3031.32,213.17000000000002,2842.58
1952,0.783667,2114,5388445,-3031.32,213.17000000000002,2842.58
1953,0.784061,2115,5388839,-936.3199999999999,725.17,3500.58
1954,0.784470,2116,5389248,-936.3199999999999,725.17,3500.58
1955,0.784871,2117,5389649,2695.68,1315.17,2603.58
1956,0.785259,2118,5390037,2695.68,1315.17,2603.58
1957,0.785651,2119,5390429,2695.68,1315.17,2603.58
1958,0.786045,2120,5390823,8229.68,1639.17,1138.58
1959,0.786435,2121,5391213,8229.68,1639.17,1138.58
1960,0.786828,2122,5391606,11439.68,691.17,1500.58
1961,0.787226,2123,5392004,11439.68,691.17,1500.58
1962,0.787606,2124,5392384,11439.68,691.17,1500.58
1963,0.788011,2125,5392789,10364.68,-215.82999999999998,1245.58
1964,0.788414,2126,5393192,10364.68,-215.82999999999998,1245.58
1965,0.788816,2127,5393594,6170.68,-92.83,-778.4200000000001
1966,0.789222,2128,5394000,6170.68,-92.83,-778.4200000000001
1967,0.789603,2129,5394381,6170.68,-92.83,-778.4200000000001
1968,0.790009,2130,5394787,-50.31999999999999,-401.83,-2854.42
1969,0.790418,2131,5395196,-50.31999999999999,-401.83,-2854.42
1970,0.790828,2132,5395606,-4100.32,-445.83,-4035.42
1971,0.791241,2133,5396019,-4100.32,-445.83,-4035.42
1972,0.791637,2134,5396415,-4100.32,-445.83,-4035.42
1973,0.792052,2135,5396830,-2479.32,-787.83,-3674.42
1974,0.792461,2136,5397239,-2479.32,-787.83,-3674.42
1975,0.792872,2137,5397650,-292.32,-1419.83,-2991.42
1976,0.793286,2138,5398064,-292.32,-1419.83,-2991.42
1977,0.793690,2139,5398468,-292.32,-1419.83,-2991.42
1978,0.794106,2140,5398884,732.6800000000001,-1068.83,-3012.42
1979,0.794512,2141,5399290,732.6800000000001,-1068.83,-3012.42
1980,0.794909,2142,5399687,129.68,-746.83,-2075.42
1981,0.795313,2143,5400091,129.68,-746.83,-2075.42
1982,0.795722,2144,5400500,129.68,-746.83,-2075.42
1983,0.796137,2145,5400915,-770.3199999999999,-583.83,-34.42000000000007
1984,0.796540,2146,5401318,-770.3199999999999,-583.83,-34.42000000000007
1985,0.796943,2147,5401721,-690.3199999999999,-41.83,1721.58
1986,0.797353,2148,5402131,-690.3199999999999,-41.83,1721.58
1987,0.797763,2149,5402541,-116.32,931.17,1895.58
1988,0.798169,2150,5402947,-116.32,931.17,1895.58
1989,0.798563,2151,5403341,-116.32,931.17,1895.58
1990,0.798952,2152,5403730,334.68,1139.17,2344.58
1991,0.799347,2153,5404125,334.68,1139.17,2344.58
1992,0.799727,2154,5404505,334.68,1139.17,2344.58
1993,0.800114,2155,5404892,-323.32,693.17,4192.58
1994,0.800528,2156,5405306,-323.32,693.17,4192.58
1995,0.800916,2157,5405694,-1282.32,1135.17,4161.58
1996,0.801319,2158,5406097,-1282.32,1135.17,4161.58
1997,0.801723,2159,5406501,-1282.32,1135.17,4161.58
1998,0.802126,2160,5406904,-6068.32,531.17,2839.58
1999,0.802532,2161,5407310,-6068.32,531.17,2839.58
2000,0.802929,2162,5407707,-9546.32,-155.82999999999998,1267.58
2001,0.803337,2163,5408115,-9546.32,-155.82999999999998,1267.58
2002,0.803748,2164,5408526,-9546.32,-155.82999999999998,1267.58
2003,0.804163,2165,5408941,-10711.32,354.17,-903.4200000000001
2004,0.804559,2166,5409337,-10711.32,354.17,-903.4200000000001
2005,0.804947,2167,5409725,-4716.32,123.17,-1677.42
2006,0.805349,2168,5410127,-4716.32,123.17,-1677.42
2007,0.805761,2169,5410539,4779.68,-246.82999999999998,-2116.42
2008,0.806168,2170,5410946,4779.68,-246.82999999999998,-2116.42
2009,0.806562,2171,5411340,4779.68,-246.82999999999998,-2116.42
2010,0.806958,2172,5411736,11030.68,46.17,-2554.42
2011,0.807346,2173,5412124,11030.68,46.17,-2554.42
2012,0.807741,2174,5412519,11030.68,46.17,-2554.42
2013,0.808140,2175,5412918,11988.68,-98.83,-727.4200000000001
2014,0.808542,2176,5413320,11988.68,-98.83,-727.4200000000001
2015,0.808931,2177,5413709,5925.68,-46.83,7.579999999999927
2016,0.809341,2178,5414119,5925.68,-46.83,7.579999999999927
2017,0.809744,2179,5414522,5925.68,-46.83,7.579999999999927
2018,0.810150,2180,5414928,639.6800000000001,345.17,-725.4200000000001
2019,0.810529,2181,5415307,639.6800000000001,345.17,-725.4200000000001
2020,0.810911,2182,5415689,-3645.32,69.17,-251.42000000000007
2021,0.811319,2183,5416097,-3645.32,69.17,-251.42000000000007
2022,0.811715,2184,5416493,-3645.32,69.17,-251.42000000000007
2023,0.812118,2185,5416896,-2716.32,-561.83,-82.42000000000007
2024,0.812531,2186,5417309,-2716.32,-561.83,-82.42000000000007
2025,0.812934,2187,5417712,-568.3199999999999,-632.83,-1473.42
2026,0.813345,2188,5418123,-568.3199999999999,-632.83,-1473.42
2027,0.813756,2189,5418534,628.6800000000001,-395.83,-2671.42
2028,0.814163,2190,5418941,628.6800000000001,-395.83,-2671.42
2029,0.814558,2191,5419336,628.6800000000001,-395.83,-2671.42
2030,0.814955,2192,5419733,1184.68,-700.83,-2728.42
2031,0.815349,2193,5420127,1184.68,-700.83,-2728.42
2032,0.815761,2194,5420539,-1420.32,-515.83,-2690.42
2033,0.816176,2195,5420954,-1420.32,-515.83,-2690.42
2034,0.816571,2196,5421349,-1420.32,-515.83,-2690.42
2035,0.816983,2197,5421761,-4724.32,-63.83,-1523.42
2036,0.817386,2198,5422164,-4724.32,-63.83,-1523.42
2037,0.817801,2199,5422579,-6253.32,-755.83,958.5799999999999
2038,0.818215,2200,5422993,-6253.32,-755.83,958.5799999999999
2039,0.818621,2201,5423399,-6253.32,-755.83,958.5799999999999
2040,0.819030,2202,5423808,-4699.32,-498.83,2236.58
2041,0.819440,2203,5424218,-4699.32,-498.83,2236.58
2042,0.819850,2204,5424628,-2609.32,514.17,2493.58
2043,0.820257,2205,5425035,-2609.32,514.17,2493.58
2044,0.820648,2206,5425426,-2609.32,514.17,2493.58
2045,0.821050,2207,5425828,-1019.3199999999999,485.17,3340.58
2046,0.821460,2208,5426238,-1019.3199999999999,485.17,3340.58
2047,0.821861,2209,5426639,2760.68,904.17,3290.58
2048,0.822252,2210,5427030,2760.68,904.17,3290.58
2049,0.822643,2211,5427421,2760.68,904.17,3290.58
2050,0.823032,2212,5427810,6137.68,1705.17,1212.58
2051,0.823428,2213,5428206,6137.68,1705.17,1212.58
2052,0.823816,2214,5428594,7971.68,1050.17,757.5799999999999
2053,0.824213,2215,5428991,7971.68,1050.17,757.5799999999999
2054,0.824601,2216,5429379,7971.68,1050.17,757.5799999999999
2055,0.824998,2217,5429776,11105.68,-124.83,1498.58
2056,0.825399,2218,5430177,11105.68,-124.83,1498.58
2057,0.825800,2219,5430578,9197.68,-272.83,-235.42000000000007
2058,0.826214,2220,5430992,9197.68,-272.83,-235.42000000000007
2059,0.826601,2221,5431379,9197.68,-272.83,-235.42000000000007
2060,0.827007,2222,5431785,1878.68,-183.82999999999998,-2652.42
2061,0.827403,2223,5432181,1878.68,-183.82999999999998,-2652.42
2062,0.827811,2224,5432589,-3100.32,-618.83,-3631.42
2063,0.828225,2225,5433003,-3100.32,-618.83,-3631.42
2064,0.828624,2226,5433402,-3100.32,-618.83,-3631.42
2065,0.829029,2227,5433807,-3419.32,-780.83,-3689.42
2066,0.829439,2228,5434217,-3419.32,-780.83,-3689.42
2067,0.829848,2229,5434626,-1282.32,-958.83,-3087.42
2068,0.830263,2230,5435041,-1282.32,-958.83,-3087.42
2069,0.830668,2231,5435446,-1282.32,-958.83,-3087.42
2070,0.831077,2232,5435855,238.68,-1239.83,-2656.42
2071,0.831478,2233,5436256,238.68,-1239.83,-2656.42
2072,0.831880,2234,5436658,269.68,-634.83,-2251.42
2073,0.832281,2235,5437059,269.68,-634.83,-2251.42
2074,0.832673,2236,5437451,269.68,-634.83,-2251.42
