row,seconds,esp32_index,micros,ax,ay,az
0,0.000000,13739,15353993,-1965.6,128.47,1505.0600000000004
1,0.001000,13740,15354993,-1906.6,386.47,2816.0600000000004
2,0.002000,13741,15355993,-655.6,1163.47,2463.0600000000004
3,0.003000,13742,15356993,-688.6,1398.47,2880.0600000000004
4,0.004000,13743,15357993,429.4,900.47,4134.06
5,0.005000,13744,15358993,-2148.6,551.47,3791.0600000000004
6,0.006000,13745,15359993,-8822.6,103.47,1896.0600000000004
7,0.007000,13746,15360993,-10436.6,-295.53,-11.9399999999996
8,0.008000,13747,15361993,-9437.6,180.47,-2229.9399999999996
9,0.009000,13748,15362993,-1538.6,40.47,-2575.9399999999996
10,0.010000,13749,15363993,8045.4,-582.53,-2942.9399999999996
11,0.011000,13750,15364993,13142.4,-376.53,-2575.9399999999996
12,0.012000,13751,15365993,10592.4,-48.53,-151.9399999999996
13,0.013000,13752,15366993,2003.4,120.47,-13.9399999999996
14,0.014000,13753,15367993,-4249.6,388.47,-15.9399999999996
15,0.015000,13754,15368993,-6482.6,-74.53,1084.0600000000004
16,0.016000,13755,15369993,-3924.6,-449.53,540.0600000000004
17,0.017000,13756,15370993,-6.600000000000023,-307.53,-939.9399999999996
18,0.018000,13757,15371993,1365.4,-256.53,-1544.9399999999996
19,0.019000,13758,15372993,-91.60000000000002,-120.53,-1649.9399999999996
20,0.020000,13759,15373993,-2635.6,-305.53,-1434.9399999999996
21,0.021000,13760,15374993,-6272.6,-315.53,13.0600000000004
22,0.022000,13761,15375993,-5778.6,-325.53,1872.0600000000004
23,0.022999,13762,15376992,-2380.6,-125.53,2335.0600000000004
24,0.023999,13763,15377992,-441.6,385.47,2709.0600000000004
25,0.025000,13764,15378993,4593.4,687.47,2950.0600000000004
26,0.026000,13765,15379993,6737.4,1155.47,793.0600000000004
27,0.027000,13766,15380993,6356.4,833.47,-170.9399999999996
28,0.028000,13767,15381993,6445.4,28.47,671.0600000000004
29,0.029000,13768,15382993,5698.4,-300.53,-444.9399999999996
30,0.030000,13769,15383993,2217.4,-418.53,-2371.9399999999996
31,0.031000,13770,15384993,-1956.6,-386.53,-2940.9399999999996
32,0.032000,13771,15385993,-1281.6,-177.53,-2799.9399999999996
33,0.033000,13772,15386993,-1036.6,-544.53,-2485.9399999999996
34,0.034000,13773,15387993,-688.6,-1053.53,-1258.9399999999996
35,0.035000,13774,15388993,-986.6,-331.53,-549.9399999999996
36,0.036000,13775,15389993,-582.6,-187.53,455.0600000000004
37,0.037000,13776,15390993,-2202.6,-56.53,2062.0600000000004
38,0.038000,13777,15391993,-2638.6,958.47,2590.0600000000004
39,0.038999,13778,15392992,-805.6,1362.47,2451.0600000000004
40,0.040000,13779,15393993,-529.6,1048.47,3250.0600000000004
41,0.041000,13780,15394993,1867.4,602.47,4552.06
42,0.042000,13781,15395993,-4683.6,775.47,3026.0600000000004
43,0.043000,13782,15396993,-9376.6,-403.53,1188.0600000000004
44,0.044000,13783,15397993,-11776.6,-88.53,-647.9399999999996
45,0.045000,13784,15398993,-8837.6,412.47,-2413.9399999999996
46,0.046000,13785,15399993,3181.4,-514.53,-2582.9399999999996
47,0.047000,13786,15400993,10127.4,-385.53,-3312.9399999999996
48,0.048000,13787,15401993,12875.4,-195.53,-1792.9399999999996
49,0.049000,13788,15402993,7819.4,-79.53,198.0600000000004
50,0.050000,13789,15403993,216.39999999999998,177.47,-219.9399999999996
51,0.051000,13790,15404993,-5076.6,415.47,278.0600000000004
52,0.052000,13791,15405993,-5744.6,-258.53,1106.0600000000004
53,0.053000,13792,15406993,-2913.6,-316.53,208.0600000000004
54,0.054000,13793,15407993,733.4,-184.53,-1359.9399999999996
55,0.055000,13794,15408993,1729.4,-280.53,-1716.9399999999996
56,0.056000,13795,15409993,-1357.6,-369.53,-1391.9399999999996
57,0.057000,13796,15410993,-4422.6,-271.53,-997.9399999999996
58,0.057999,13797,15411992,-6901.6,-251.53,671.0600000000004
59,0.059000,13798,15412993,-4975.6,-340.53,2041.0600000000004
60,0.060000,13799,15413993,-863.6,77.47,2356.0600000000004
61,0.061000,13800,15414993,2691.4,395.47,2879.0600000000004
62,0.062000,13801,15415993,4077.4,896.47,2324.0600000000004
63,0.063000,13802,15416993,5185.4,1189.47,504.0600000000004
64,0.064000,13803,15417993,7924.4,413.47,241.0600000000004
65,0.065000,13804,15418993,5979.4,37.47,258.0600000000004
66,0.066000,13805,15419993,4440.4,-312.53,-882.9399999999996
67,0.067000,13806,15420993,1811.4,-642.53,-2505.9399999999996
68,0.068000,13807,15421993,-1700.6,-291.53,-3157.9399999999996
69,0.069000,13808,15422993,-1806.6,-223.53,-2673.9399999999996
70,0.070000,13809,15423993,-921.6,-739.53,-2145.9399999999996
71,0.071000,13810,15424993,-725.6,-811.53,-1286.9399999999996
72,0.072000,13811,15425993,-1052.6,-387.53,-356.9399999999996
73,0.073000,13812,15426993,-1474.6,37.47,1072.0600000000004
74,0.074000,13813,15427993,-2969.6,183.47,2438.0600000000004
75,0.075000,13814,15428993,-511.6,780.47,2501.0600000000004
76,0.076000,13815,15429993,-500.6,1555.47,2514.0600000000004
77,0.077000,13816,15430993,-455.6,977.47,3948.0600000000004
78,0.078000,13817,15431993,677.4,495.47,4396.06
79,0.079000,13818,15432993,-5458.6,290.47,2522.0600000000004
80,0.080000,13819,15433993,-11471.6,22.47,517.0600000000004
81,0.081000,13820,15434993,-13077.6,63.47,-1608.9399999999996
82,0.082000,13821,15435993,-4855.6,10.469999999999999,-2494.9399999999996
83,0.083000,13822,15436993,6124.4,-326.53,-2670.9399999999996
84,0.084000,13823,15437993,12707.4,-441.53,-3126.9399999999996
85,0.085000,13824,15438993,12297.4,-228.53,-930.9399999999996
86,0.086000,13825,15439993,4829.4,50.47,285.0600000000004
87,0.087000,13826,15440993,-2192.6,327.47,-191.9399999999996
88,0.088000,13827,15441993,-6021.6,150.47,608.0600000000004
89,0.089000,13828,15442993,-4879.6,-300.53,1011.0600000000004
90,0.090000,13829,15443993,-2003.6,-331.53,-323.9399999999996
91,0.091000,13830,15444993,1601.4,-298.53,-1626.9399999999996
92,0.092000,13831,15445993,1448.4,-290.53,-1638.9399999999996
93,0.093000,13832,15446993,-2303.6,-154.53,-1736.9399999999996
94,0.094000,13833,15447993,-5561.6,-367.53,-680.9399999999996
95,0.095000,13834,15448993,-6373.6,-392.53,1338.0600000000004
96,0.096000,13835,15449993,-3629.6,-194.53,2263.0600000000004
97,0.097000,13836,15450993,-734.6,144.47,2697.0600000000004
98,0.098000,13837,15451993,3848.4,596.47,3082.0600000000004
99,0.099000,13838,15452993,5044.4,1042.47,1434.0600000000004
100,0.100000,13839,15453993,5399.4,968.47,25.0600000000004
101,0.101000,13840,15454993,7406.4,298.47,544.0600000000004
102,0.102000,13841,15455993,6657.4,-200.53,-90.9399999999996
103,0.103000,13842,15456993,3179.4,-328.53,-1690.9399999999996
104,0.104000,13843,15457993,-406.6,-409.53,-2625.9399999999996
105,0.105000,13844,15458993,-1060.6,-427.53,-2951.9399999999996
106,0.106000,13845,15459993,-1712.6,-343.53,-2744.9399999999996
107,0.107000,13846,15460993,-1035.6,-816.53,-1585.9399999999996
108,0.108000,13847,15461993,-603.6,-975.53,-836.9399999999996
109,0.109000,13848,15462993,-1389.6,-34.53,-223.9399999999996
110,0.110000,13849,15463993,-1968.6,17.47,1423.0600000000004
111,0.111000,13850,15464993,-1870.6,340.47,2587.0600000000004
112,0.112000,13851,15465993,-270.6,1246.47,2634.0600000000004
113,0.113000,13852,15466993,-439.6,1400.47,2817.0600000000004
114,0.114000,13853,15467993,-135.60000000000002,1026.47,4013.0600000000004
115,0.115000,13854,15468993,-1352.6,446.47,4042.0600000000004
116,0.116000,13855,15469993,-8269.6,133.47,2148.0600000000004
117,0.117000,13856,15470993,-11322.6,-59.53,3.0600000000004
118,0.118000,13857,15471993,-9715.6,-83.53,-2127.9399999999996
119,0.119000,13858,15472993,-2405.6,-6.530000000000001,-2715.9399999999996
120,0.120000,13859,15473993,7642.4,-364.53,-2931.9399999999996
121,0.120999,13860,15474992,12971.4,-543.53,-2662.9399999999996
122,0.122000,13861,15475993,11003.4,106.47,-334.9399999999996
123,0.123000,13862,15476993,2826.4,20.47,114.0600000000004
124,0.124000,13863,15477993,-4039.6,278.47,-156.9399999999996
125,0.125000,13864,15478993,-6327.6,20.47,1045.0600000000004
126,0.126000,13865,15479993,-3925.6,-550.53,772.0600000000004
127,0.126999,13866,15480992,-285.6,-185.53,-888.9399999999996
128,0.128000,13867,15481993,1471.4,-153.53,-1594.9399999999996
129,0.129000,13868,15482993,224.39999999999998,-281.53,-1426.9399999999996
130,0.130000,13869,15483993,-2828.6,-127.53,-1557.9399999999996
131,0.131000,13870,15484993,-6258.6,-345.53,-183.9399999999996
132,0.131999,13871,15485992,-5593.6,-472.53,1882.0600000000004
133,0.133000,13872,15486993,-2489.6,-13.530000000000001,2290.0600000000004
134,0.134000,13873,15487993,-739.6,193.47,2658.0600000000004
135,0.135000,13874,15488993,4454.4,569.47,2904.0600000000004
136,0.136000,13875,15489993,6491.4,1223.47,958.0600000000004
137,0.137000,13876,15490993,5670.4,885.47,-140.9399999999996
138,0.138000,13877,15491993,6273.4,196.47,557.0600000000004
139,0.139000,13878,15492993,6407.4,-377.53,-200.9399999999996
140,0.139999,13879,15493992,2817.4,-405.53,-2096.9399999999996
141,0.141000,13880,15494993,-1615.6,-358.53,-2927.9399999999996
142,0.142000,13881,15495993,-945.6,-356.53,-2845.9399999999996
143,0.143000,13882,15496993,-1220.6,-318.53,-2475.9399999999996
144,0.144000,13883,15497993,-1134.6,-1024.53,-1304.9399999999996
145,0.145000,13884,15498993,-1220.6,-584.53,-656.9399999999996
146,0.146000,13885,15499993,-1230.6,-127.53,135.0600000000004
147,0.147000,13886,15500993,-1806.6,121.47,1914.0600000000004
148,0.148000,13887,15501993,-2270.6,779.47,2583.0600000000004
149,0.149000,13888,15502993,-430.6,1119.47,2507.0600000000004
150,0.150000,13889,15503993,24.399999999999977,1230.47,3271.0600000000004
151,0.151000,13890,15504993,1736.4,871.47,4259.06
152,0.151999,13891,15505992,-4427.6,728.47,3308.0600000000004
153,0.153000,13892,15506993,-9682.6,-374.53,1628.0600000000004
154,0.154000,13893,15507993,-11224.6,-215.53,-584.9399999999996
155,0.155000,13894,15508993,-9167.6,554.47,-2482.9399999999996
156,0.156000,13895,15509993,1721.4,-417.53,-2448.9399999999996
157,0.157000,13896,15510993,9515.4,-531.53,-3307.9399999999996
158,0.158000,13897,15511993,13280.4,-197.53,-2040.9399999999996
159,0.159000,13898,15512993,8428.4,-143.53,202.0600000000004
160,0.160000,13899,15513993,637.4,184.47,-144.9399999999996
161,0.161000,13900,15514993,-4981.6,397.47,218.0600000000004
162,0.162000,13901,15515993,-6478.6,-113.53,1003.0600000000004
163,0.163000,13902,15516993,-2881.6,-472.53,275.0600000000004
164,0.164000,13903,15517993,908.4,-293.53,-987.9399999999996
165,0.165000,13904,15518993,1711.4,-204.53,-1601.9399999999996
166,0.166000,13905,15519993,-795.6,-204.53,-1745.9399999999996
167,0.167000,13906,15520993,-3948.6,-220.53,-1204.9399999999996
168,0.168000,13907,15521993,-6592.6,-350.53,612.0600000000004
169,0.169000,13908,15522993,-5474.6,-310.53,1974.0600000000004
170,0.170000,13909,15523993,-1477.6,45.47,2257.0600000000004
171,0.171000,13910,15524993,1875.4,382.47,2898.0600000000004
172,0.172000,13911,15525993,4119.4,720.47,2522.0600000000004
173,0.173000,13912,15526993,6136.4,1242.47,466.0600000000004
174,0.174000,13913,15527993,7689.4,700.47,117.0600000000004
175,0.175000,13914,15528993,5794.4,-43.53,359.0600000000004
176,0.176000,13915,15529993,4611.4,-328.53,-861.9399999999996
177,0.177000,13916,15530993,1859.4,-629.53,-2293.9399999999996
178,0.178000,13917,15531993,-1803.6,-254.53,-2991.9399999999996
179,0.179000,13918,15532993,-1697.6,-211.53,-2930.9399999999996
180,0.180000,13919,15533993,-1027.6,-852.53,-2171.9399999999996
181,0.180999,13920,15534992,-695.6,-827.53,-1007.9399999999996
182,0.182000,13921,15535993,-861.6,-438.53,-416.9399999999996
183,0.183000,13922,15536993,-1505.6,91.47,593.0600000000004
184,0.184000,13923,15537993,-2975.6,177.47,2438.0600000000004
185,0.185000,13924,15538993,-544.6,780.47,2784.0600000000004
186,0.186000,13925,15539993,-722.6,1577.47,2478.0600000000004
187,0.187000,13926,15540993,-679.6,972.47,3730.0600000000004
188,0.188000,13927,15541993,762.4,683.47,4335.06
189,0.189000,13928,15542993,-4626.6,260.47,2817.0600000000004
190,0.190000,13929,15543993,-10197.6,-163.53,832.0600000000004
191,0.191000,13930,15544993,-13145.6,162.47,-1374.9399999999996
192,0.192000,13931,15545993,-5845.6,-115.53,-2610.9399999999996
193,0.193000,13932,15546993,5242.4,-403.53,-2584.9399999999996
194,0.194000,13933,15547993,11756.4,-208.53,-3348.9399999999996
195,0.195000,13934,15548993,12125.4,-199.53,-1514.9399999999996
196,0.196000,13935,15549993,5416.4,-65.53,315.0600000000004
197,0.197000,13936,15550993,-1291.6,158.47,-130.9399999999996
198,0.198000,13937,15551993,-6208.6,373.47,579.0600000000004
199,0.199000,13938,15552993,-5156.6,-223.53,1069.0600000000004
200,0.200000,13939,15553993,-1902.6,-424.53,-36.9399999999996
201,0.201000,13940,15554993,1373.4,-83.53,-1396.9399999999996
202,0.202000,13941,15555993,2164.4,-334.53,-1379.9399999999996
203,0.203000,13942,15556993,-2042.6,-181.53,-1713.9399999999996
204,0.204000,13943,15557993,-5364.6,-256.53,-961.9399999999996
205,0.205000,13944,15558993,-6645.6,-467.53,1197.0600000000004
206,0.206000,13945,15559993,-3944.6,-216.53,2086.0600000000004
207,0.207000,13946,15560993,-790.6,86.47,2546.0600000000004
208,0.208000,13947,15561993,2808.4,465.47,2859.0600000000004
209,0.209000,13948,15562993,4209.4,1075.47,1457.0600000000004
210,0.210000,13949,15563993,5933.4,919.47,278.0600000000004
211,0.211000,13950,15564993,8244.4,321.47,527.0600000000004
212,0.212000,13951,15565993,6521.4,-78.53,-41.9399999999996
213,0.213000,13952,15566993,3531.4,-337.53,-1383.9399999999996
214,0.214000,13953,15567993,-73.60000000000002,-375.53,-2434.9399999999996
215,0.215000,13954,15568993,-1204.6,-455.53,-2799.9399999999996
216,0.216000,13955,15569993,-1731.6,-314.53,-2728.9399999999996
217,0.217000,13956,15570993,-1080.6,-599.53,-1784.9399999999996
218,0.218000,13957,15571993,-473.6,-980.53,-786.9399999999996
219,0.219000,13958,15572993,-1604.6,-209.53,-246.9399999999996
220,0.220000,13959,15573993,-2036.6,103.47,1148.0600000000004
221,0.221000,13960,15574993,-1923.6,182.47,2402.0600000000004
222,0.222000,13961,15575993,-333.6,1135.47,2481.0600000000004
223,0.223000,13962,15576993,-678.6,1494.47,2849.0600000000004
224,0.224000,13963,15577993,-145.60000000000002,820.47,3997.0600000000004
225,0.225000,13964,15578993,-503.6,595.47,3866.0600000000004
226,0.226000,13965,15579993,-7073.6,250.47,2383.0600000000004
227,0.227000,13966,15580993,-10833.6,-270.53,403.0600000000004
228,0.228000,13967,15581993,-10935.6,195.47,-2303.9399999999996
229,0.229000,13968,15582993,-3560.6,-135.53,-2598.9399999999996
230,0.230000,13969,15583993,6924.4,-424.53,-2704.9399999999996
231,0.231000,13970,15584993,13198.4,-326.53,-2971.9399999999996
232,0.232000,13971,15585993,11333.4,-273.53,-515.9399999999996
233,0.233000,13972,15586993,2946.4,136.47,115.0600000000004
234,0.234000,13973,15587993,-3479.6,403.47,-84.9399999999996
235,0.235000,13974,15588993,-6498.6,21.47,1099.0600000000004
236,0.236000,13975,15589993,-4831.6,-309.53,799.0600000000004
237,0.237000,13976,15590993,-790.6,-378.53,-679.9399999999996
238,0.238000,13977,15591993,1839.4,-274.53,-1484.9399999999996
239,0.239000,13978,15592993,1185.4,-125.53,-1428.9399999999996
240,0.240000,13979,15593993,-1606.6,-326.53,-1646.9399999999996
241,0.241000,13980,15594993,-6115.6,-115.53,-529.9399999999996
242,0.242000,13981,15595993,-6410.6,-381.53,1671.0600000000004
243,0.243000,13982,15596993,-3118.6,-296.53,2160.0600000000004
244,0.244000,13983,15597993,-1446.6,283.47,2682.0600000000004
245,0.245000,13984,15598993,4521.4,373.47,3016.0600000000004
246,0.246000,13985,15599993,6692.4,1137.47,884.0600000000004
247,0.247000,13986,15600993,5783.4,1073.47,-23.9399999999996
248,0.247999,13987,15601992,6625.4,158.47,732.0600000000004
249,0.249000,13988,15602993,5976.4,-242.53,-354.9399999999996
250,0.250000,13989,15603993,2656.4,-411.53,-2041.9399999999996
251,0.251000,13990,15604993,-1268.6,-381.53,-2685.9399999999996
252,0.252000,13991,15605993,-1079.6,-270.53,-2785.9399999999996
253,0.253000,13992,15606993,-801.6,-614.53,-2375.9399999999996
254,0.254000,13993,15607993,-1406.6,-734.53,-1434.9399999999996
255,0.255000,13994,15608993,-1203.6,-490.53,-720.9399999999996
256,0.256000,13995,15609993,-805.6,-270.53,-97.9399999999996
257,0.257000,13996,15610993,-1859.6,175.47,1808.0600000000004
258,0.258000,13997,15611993,-1859.6,499.47,2805.0600000000004
259,0.258999,13998,15612992,-661.6,1141.47,2333.0600000000004
260,0.260000,13999,15613993,-545.6,1295.47,3174.0600000000004
261,0.261000,14000,15614993,1236.4,739.47,4102.06
262,0.262000,14001,15615993,-3087.6,649.47,3341.0600000000004
263,0.263000,14002,15616993,-9622.6,-46.53,1547.0600000000004
264,0.264000,14003,15617993,-10081.6,-504.53,-370.9399999999996
265,0.265000,14004,15618993,-9053.6,437.47,-2322.9399999999996
266,0.266000,14005,15619993,-871.6,-134.53,-2482.9399999999996
267,0.267000,14006,15620993,8388.4,-618.53,-3078.9399999999996
268,0.268000,14007,15621993,13047.4,-237.53,-2204.9399999999996
269,0.269000,14008,15622993,10096.4,-320.53,258.0600000000004
270,0.270000,14009,15623993,1335.4,437.47,-228.9399999999996
271,0.271000,14010,15624993,-4393.6,479.47,16.0600000000004
272,0.272000,14011,15625993,-6348.6,-240.53,1040.0600000000004
273,0.272999,14012,15626992,-3627.6,-291.53,401.0600000000004
274,0.274000,14013,15627993,888.4,-321.53,-955.9399999999996
275,0.275000,14014,15628993,1202.4,-244.53,-1598.9399999999996
276,0.276000,14015,15629993,-975.6,-154.53,-1554.9399999999996
277,0.277000,14016,15630993,-3711.6,-360.53,-1340.9399999999996
278,0.278000,14017,15631993,-6574.6,-248.53,157.0600000000004
279,0.279000,14018,15632993,-4956.6,-321.53,1877.0600000000004
280,0.279999,14019,15633992,-949.6,-141.53,2275.0600000000004
281,0.281000,14020,15634993,1176.4,376.47,2793.0600000000004
282,0.282000,14021,15635993,4040.4,697.47,2747.0600000000004
283,0.283000,14022,15636993,5701.4,1238.47,640.0600000000004
284,0.284000,14023,15637993,6530.4,740.47,24.0600000000004
285,0.285000,14024,15638993,6190.4,-2.530000000000001,612.0600000000004
286,0.285999,14025,15639992,5614.4,-363.53,-574.9399999999996
287,0.287000,14026,15640993,2546.4,-515.53,-2407.9399999999996
288,0.287999,14027,15641992,-2123.6,-235.53,-3050.9399999999996
289,0.289000,14028,15642993,-2069.6,-261.53,-2834.9399999999996
290,0.290000,14029,15643993,-1011.6,-687.53,-2399.9399999999996
291,0.291000,14030,15644993,-556.6,-844.53,-1177.9399999999996
292,0.291999,14031,15645992,-1016.6,-417.53,-416.9399999999996
293,0.293000,14032,15646993,-862.6,-124.53,597.0600000000004
294,0.294000,14033,15647993,-2415.6,-72.53,2246.0600000000004
295,0.295000,14034,15648993,-1610.6,962.47,2501.0600000000004
296,0.296000,14035,15649993,-881.6,1544.47,2442.0600000000004
297,0.297000,14036,15650993,-534.6,845.47,3631.0600000000004
298,0.298000,14037,15651993,692.4,798.47,4394.06
299,0.299000,14038,15652993,-4612.6,457.47,2896.0600000000004
300,0.300000,14039,15653993,-9339.6,-318.53,1100.0600000000004
301,0.301000,14040,15654993,-13120.6,236.47,-1053.9399999999996
302,0.302000,14041,15655993,-7171.6,46.47,-2597.9399999999996
303,0.303000,14042,15656993,4952.4,-566.53,-2660.9399999999996
304,0.304000,14043,15657993,11437.4,-173.53,-3233.9399999999996
305,0.305000,14044,15658993,12391.4,-100.53,-1483.9399999999996
306,0.306000,14045,15659993,6486.4,-181.53,335.0600000000004
307,0.307000,14046,15660993,-931.6,267.47,-288.9399999999996
308,0.308000,14047,15661993,-5727.6,355.47,304.0600000000004
309,0.309000,14048,15662993,-5363.6,-311.53,1125.0600000000004
310,0.310000,14049,15663993,-2799.6,-336.53,-33.9399999999996
311,0.311000,14050,15664993,1189.4,-234.53,-1485.9399999999996
312,0.312000,14051,15665993,1761.4,-226.53,-1595.9399999999996
313,0.313000,14052,15666993,-1609.6,-344.53,-1439.9399999999996
314,0.314000,14053,15667993,-4955.6,-273.53,-1017.9399999999996
315,0.315000,14054,15668993,-6465.6,-320.53,980.0600000000004
316,0.316000,14055,15669993,-3867.6,-441.53,2309.0600000000004
317,0.317000,14056,15670993,-1007.6,209.47,2428.0600000000004
318,0.318000,14057,15671993,2679.4,642.47,2968.0600000000004
319,0.319000,14058,15672993,3790.4,895.47,1844.0600000000004
320,0.320000,14059,15673993,5323.4,1048.47,272.0600000000004
321,0.321000,14060,15674993,8631.4,323.47,534.0600000000004
322,0.322000,14061,15675993,6610.4,-74.53,55.0600000000004
323,0.323000,14062,15676993,3680.4,-251.53,-1262.9399999999996
324,0.324000,14063,15677993,526.4,-525.53,-2555.9399999999996
325,0.325000,14064,15678993,-1787.6,-377.53,-3057.9399999999996
326,0.326000,14065,15679993,-1736.6,-349.53,-2674.9399999999996
327,0.327000,14066,15680993,-784.6,-665.53,-1961.9399999999996
328,0.328000,14067,15681993,-118.60000000000002,-922.53,-957.9399999999996
329,0.329000,14068,15682993,-1293.6,-347.53,-316.9399999999996
330,0.330000,14069,15683993,-2104.6,200.47,1105.0600000000004
331,0.331000,14070,15684993,-2403.6,130.47,2449.0600000000004
332,0.332000,14071,15685993,-629.6,1005.47,2515.0600000000004
333,0.333000,14072,15686993,-841.6,1606.47,2744.0600000000004
334,0.333999,14073,15687992,-418.6,811.47,3985.0600000000004
335,0.335000,14074,15688993,-185.60000000000002,643.47,4157.06
336,0.336000,14075,15689993,-6268.6,92.47,2470.0600000000004
337,0.336999,14076,15690992,-10992.6,-105.53,398.0600000000004
338,0.338000,14077,15691993,-11447.6,186.47,-2024.9399999999996
339,0.339000,14078,15692993,-3646.6,-157.53,-2621.9399999999996
340,0.340000,14079,15693993,6384.4,-291.53,-2853.9399999999996
341,0.341000,14080,15694993,13286.4,-444.53,-2847.9399999999996
342,0.342000,14081,15695993,12032.4,-163.53,-650.9399999999996
343,0.343000,14082,15696993,3375.4,85.47,31.0600000000004
344,0.344000,14083,15697993,-3379.6,243.47,-45.9399999999996
345,0.345000,14084,15698993,-6257.6,-21.53,753.0600000000004
346,0.345999,14085,15699992,-4524.6,-334.53,722.0600000000004
347,0.347000,14086,15700993,-1142.6,-426.53,-553.9399999999996
348,0.347999,14087,15701992,1264.4,-232.53,-1588.9399999999996
349,0.349000,14088,15702993,649.4,-238.53,-1491.9399999999996
350,0.350000,14089,15703993,-2273.6,-165.53,-1571.9399999999996
351,0.350999,14090,15704992,-5882.6,-92.53,-431.9399999999996
352,0.352000,14091,15705993,-5452.6,-551.53,1590.0600000000004
353,0.353000,14092,15706993,-2351.6,-233.53,2403.0600000000004
354,0.354000,14093,15707993,-1268.6,295.47,2764.0600000000004
355,0.355000,14094,15708993,4017.4,614.47,2912.0600000000004
356,0.356000,14095,15709993,5824.4,1169.47,1090.0600000000004
357,0.357000,14096,15710993,5291.4,864.47,-42.9399999999996
358,0.358000,14097,15711993,6773.4,178.47,638.0600000000004
359,0.359000,14098,15712993,6555.4,-273.53,-206.9399999999996
360,0.360000,14099,15713993,3102.4,-434.53,-2098.9399999999996
361,0.361000,14100,15714993,-1649.6,-358.53,-2982.9399999999996
362,0.362000,14101,15715993,-935.6,-367.53,-2746.9399999999996
363,0.363000,14102,15716993,-1092.6,-330.53,-2423.9399999999996
364,0.364000,14103,15717993,-964.6,-942.53,-1431.9399999999996
365,0.365000,14104,15718993,-874.6,-499.53,-721.9399999999996
366,0.366000,14105,15719993,-1121.6,-82.53,129.0600000000004
367,0.367000,14106,15720993,-2022.6,-64.53,1859.0600000000004
368,0.368000,14107,15721993,-2608.6,644.47,2492.0600000000004
369,0.369000,14108,15722993,-566.6,1157.47,2432.0600000000004
370,0.370000,14109,15723993,13.399999999999977,1209.47,3169.0600000000004
371,0.371000,14110,15724993,1937.4,885.47,4222.06
372,0.372000,14111,15725993,-3622.6,750.47,3389.0600000000004
373,0.373000,14112,15726993,-9643.6,-299.53,1592.0600000000004
374,0.374000,14113,15727993,-11228.6,-131.53,-370.9399999999996
375,0.375000,14114,15728993,-9777.6,511.47,-2308.9399999999996
376,0.376000,14115,15729993,634.4,-347.53,-2528.9399999999996
377,0.377000,14116,15730993,9070.4,-567.53,-3072.9399999999996
378,0.378000,14117,15731993,13520.4,-387.53,-2192.9399999999996
379,0.379000,14118,15732993,9805.4,-155.53,19.0600000000004
380,0.380000,14119,15733993,1168.4,307.47,-156.9399999999996
381,0.381000,14120,15734993,-4794.6,322.47,-138.9399999999996
382,0.382000,14121,15735993,-6542.6,-243.53,968.0600000000004
383,0.383000,14122,15736993,-3595.6,-448.53,416.0600000000004
384,0.384000,14123,15737993,493.4,-313.53,-1112.9399999999996
385,0.385000,14124,15738993,1480.4,-94.53,-1602.9399999999996
386,0.386000,14125,15739993,-947.6,-181.53,-1444.9399999999996
387,0.387000,14126,15740993,-3591.6,-270.53,-1211.9399999999996
388,0.388000,14127,15741993,-6293.6,-210.53,256.0600000000004
389,0.389000,14128,15742993,-4832.6,-338.53,2037.0600000000004
390,0.390000,14129,15743993,-1146.6,45.47,2413.0600000000004
391,0.391000,14130,15744993,1386.4,259.47,2946.0600000000004
392,0.392000,14131,15745993,3928.4,664.47,2685.0600000000004
393,0.393000,14132,15746993,5424.4,1277.47,465.0600000000004
394,0.394000,14133,15747993,7247.4,540.47,9.0600000000004
395,0.395000,14134,15748993,6056.4,-1.5300000000000011,463.0600000000004
396,0.396000,14135,15749993,4979.4,-380.53,-763.9399999999996
397,0.397000,14136,15750993,2248.4,-616.53,-2489.9399999999996
398,0.398000,14137,15751993,-2038.6,-175.53,-3035.9399999999996
399,0.399000,14138,15752993,-1836.6,-349.53,-2727.9399999999996
400,0.400000,14139,15753993,-843.6,-794.53,-2339.9399999999996
401,0.401000,14140,15754993,-483.6,-681.53,-1168.9399999999996
402,0.402000,14141,15755993,-547.6,-688.53,-170.9399999999996
403,0.403000,14142,15756993,-1547.6,-38.53,547.0600000000004
404,0.404000,14143,15757993,-3182.6,305.47,2265.0600000000004
405,0.405000,14144,15758993,-886.6,715.47,2894.0600000000004
406,0.406000,14145,15759993,-977.6,1625.47,2335.0600000000004
407,0.407000,14146,15760993,-299.6,946.47,3616.0600000000004
408,0.408000,14147,15761993,897.4,692.47,4436.06
409,0.409000,14148,15762993,-4406.6,262.47,2833.0600000000004
410,0.410000,14149,15763993,-9948.6,-158.53,1013.0600000000004
411,0.411000,14150,15764993,-13580.6,264.47,-1297.9399999999996
412,0.412000,14151,15765993,-6446.6,-105.53,-2734.9399999999996
413,0.413000,14152,15766993,4801.4,-355.53,-2581.9399999999996
414,0.414000,14153,15767993,11982.4,-270.53,-3251.9399999999996
415,0.415000,14154,15768993,12882.4,-382.53,-1436.9399999999996
416,0.416000,14155,15769993,5906.4,102.47,178.0600000000004
417,0.417000,14156,15770993,-1187.6,355.47,-243.9399999999996
418,0.418000,14157,15771993,-6152.6,113.47,547.0600000000004
419,0.419000,14158,15772993,-5454.6,-203.53,1059.0600000000004
420,0.420000,14159,15773993,-2400.6,-461.53,114.0600000000004
421,0.421000,14160,15774993,743.4,-128.53,-1473.9399999999996
422,0.422000,14161,15775993,2094.4,-221.53,-1497.9399999999996
423,0.423000,14162,15776993,-1291.6,-240.53,-1526.9399999999996
424,0.424000,14163,15777993,-4859.6,-222.53,-960.9399999999996
425,0.425000,14164,15778993,-6201.6,-479.53,1162.0600000000004
426,0.425999,14165,15779992,-4250.6,-281.53,2155.0600000000004
427,0.426999,14166,15780992,-1402.6,38.47,2491.0600000000004
428,0.428000,14167,15781993,2646.4,518.47,2864.0600000000004
429,0.429000,14168,15782993,4347.4,1109.47,1487.0600000000004
430,0.430000,14169,15783993,6119.4,994.47,213.0600000000004
431,0.431000,14170,15784993,8498.4,330.47,548.0600000000004
432,0.431999,14171,15785992,6309.4,-56.53,-50.9399999999996
433,0.433000,14172,15786993,3135.4,-260.53,-1418.9399999999996
434,0.433999,14173,15787992,-303.6,-560.53,-2412.9399999999996
435,0.435000,14174,15788993,-914.6,-463.53,-2795.9399999999996
436,0.435999,14175,15789992,-1407.6,-191.53,-2715.9399999999996
437,0.437000,14176,15790993,-946.6,-760.53,-1858.9399999999996
438,0.438000,14177,15791993,-354.6,-911.53,-1049.9399999999996
439,0.439000,14178,15792993,-1682.6,-41.53,-233.9399999999996
440,0.440000,14179,15793993,-1964.6,-81.53,1416.0600000000004
441,0.441000,14180,15794993,-2341.6,97.47,2357.0600000000004
442,0.442000,14181,15795993,-738.6,1101.47,2567.0600000000004
443,0.443000,14182,15796993,-807.6,1467.47,2909.0600000000004
444,0.444000,14183,15797993,-148.60000000000002,938.47,3902.0600000000004
445,0.445000,14184,15798993,-437.6,681.47,3852.0600000000004
446,0.446000,14185,15799993,-6796.6,37.47,2386.0600000000004
447,0.447000,14186,15800993,-11210.6,-151.53,227.0600000000004
448,0.448000,14187,15801993,-10892.6,347.47,-2119.9399999999996
449,0.449000,14188,15802993,-3260.6,-128.53,-2546.9399999999996
450,0.450000,14189,15803993,7184.4,-450.53,-2737.9399999999996
451,0.451000,14190,15804993,13668.4,-461.53,-2654.9399999999996
452,0.452000,14191,15805993,11354.4,-74.53,-624.9399999999996
453,0.453000,14192,15806993,3213.4,22.47,72.0600000000004
454,0.454000,14193,15807993,-4001.6,325.47,-311.9399999999996
455,0.455000,14194,15808993,-6672.6,148.47,760.0600000000004
456,0.456000,14195,15809993,-4395.6,-512.53,804.0600000000004
457,0.457000,14196,15810993,-1017.6,-436.53,-668.9399999999996
458,0.458000,14197,15811993,1455.4,-99.53,-1586.9399999999996
459,0.459000,14198,15812993,485.4,-179.53,-1548.9399999999996
460,0.460000,14199,15813993,-1621.6,-215.53,-1463.9399999999996
461,0.461000,14200,15814993,-5573.6,-239.53,-166.9399999999996
462,0.462000,14201,15815993,-6049.6,-480.53,1675.0600000000004
463,0.463000,14202,15816993,-3034.6,-84.53,2162.0600000000004
464,0.464000,14203,15817993,-1370.6,209.47,2793.0600000000004
465,0.465000,14204,15818993,4853.4,604.47,3076.0600000000004
466,0.466000,14205,15819993,6484.4,1242.47,906.0600000000004
467,0.467000,14206,15820993,5884.4,751.47,-184.9399999999996
468,0.468000,14207,15821993,6561.4,279.47,659.0600000000004
469,0.469000,14208,15822993,5887.4,-295.53,-176.9399999999996
470,0.470000,14209,15823993,2583.4,-602.53,-2149.9399999999996
471,0.471000,14210,15824993,-1931.6,-328.53,-3043.9399999999996
472,0.472000,14211,15825993,-748.6,-412.53,-2620.9399999999996
473,0.473000,14212,15826993,-803.6,-403.53,-2399.9399999999996
474,0.474000,14213,15827993,-969.6,-852.53,-1553.9399999999996
475,0.475000,14214,15828993,-1171.6,-610.53,-563.9399999999996
476,0.476000,14215,15829993,-876.6,-224.53,328.0600000000004
477,0.477000,14216,15830993,-1809.6,48.47,1876.0600000000004
478,0.478000,14217,15831993,-2529.6,751.47,2418.0600000000004
479,0.478999,14218,15832992,-794.6,1199.47,2424.0600000000004
480,0.480000,14219,15833993,-271.6,1106.47,3337.0600000000004
481,0.481000,14220,15834993,1618.4,867.47,4101.06
482,0.482000,14221,15835993,-4453.6,828.47,3141.0600000000004
483,0.483000,14222,15836993,-9587.6,-408.53,1643.0600000000004
484,0.484000,14223,15837993,-10752.6,-103.53,-479.9399999999996
485,0.485000,14224,15838993,-9019.6,395.47,-2323.9399999999996
486,0.486000,14225,15839993,1306.4,-450.53,-2341.9399999999996
487,0.487000,14226,15840993,9146.4,-329.53,-3108.9399999999996
488,0.488000,14227,15841993,13482.4,-226.53,-2101.9399999999996
489,0.489000,14228,15842993,8984.4,-96.53,205.0600000000004
490,0.490000,14229,15843993,1030.4,114.47,-31.9399999999996
491,0.491000,14230,15844993,-4602.6,252.47,-69.9399999999996
492,0.492000,14231,15845993,-6537.6,-133.53,845.0600000000004
493,0.493000,14232,15846993,-3202.6,-555.53,309.0600000000004
494,0.494000,14233,15847993,501.4,-227.53,-1282.9399999999996
495,0.495000,14234,15848993,1491.4,-58.53,-1679.9399999999996
496,0.496000,14235,15849993,-864.6,-409.53,-1393.9399999999996
497,0.497000,14236,15850993,-3880.6,-221.53,-1217.9399999999996
498,0.498000,14237,15851993,-6698.6,-335.53,629.0600000000004
499,0.499000,14238,15852993,-5695.6,-358.53,2196.0600000000004
500,0.500000,14239,15853993,-1188.6,144.47,2182.0600000000004
501,0.501000,14240,15854993,1925.4,437.47,2831.0600000000004
502,0.502000,14241,15855993,4678.4,709.47,2831.0600000000004
503,0.503000,14242,15856993,6432.4,1205.47,594.0600000000004
504,0.503999,14243,15857992,6649.4,778.47,-159.9399999999996
505,0.505000,14244,15858993,5479.4,-50.53,590.0600000000004
506,0.506000,14245,15859993,4653.4,-461.53,-624.9399999999996
507,0.507000,14246,15860993,2160.4,-614.53,-2619.9399999999996
508,0.508000,14247,15861993,-1759.6,-283.53,-3077.9399999999996
509,0.509000,14248,15862993,-1818.6,-281.53,-2812.9399999999996
510,0.510000,14249,15863993,-567.6,-699.53,-2352.9399999999996
511,0.511000,14250,15864993,-455.6,-754.53,-1236.9399999999996
512,0.512000,14251,15865993,-498.6,-455.53,-257.9399999999996
513,0.513000,14252,15866993,-1468.6,-175.53,767.0600000000004
514,0.514000,14253,15867993,-3087.6,93.47,2484.0600000000004
515,0.515000,14254,15868993,-1139.6,805.47,2758.0600000000004
516,0.516000,14255,15869993,-1197.6,1602.47,2287.0600000000004
517,0.517000,14256,15870993,-655.6,1004.47,3728.0600000000004
518,0.517999,14257,15871992,791.4,620.47,4333.06
519,0.518999,14258,15872992,-4470.6,333.47,2762.0600000000004
520,0.519999,14259,15873992,-9957.6,-167.53,1061.0600000000004
521,0.521000,14260,15874993,-13088.6,144.47,-1261.9399999999996
522,0.522000,14261,15875993,-6425.6,-37.53,-2574.9399999999996
523,0.523000,14262,15876993,4895.4,-482.53,-2476.9399999999996
524,0.524000,14263,15877993,11711.4,-206.53,-3321.9399999999996
525,0.525000,14264,15878993,13137.4,-130.53,-1314.9399999999996
526,0.526000,14265,15879993,6322.4,-107.53,217.0600000000004
527,0.527000,14266,15880993,-1520.6,318.47,-478.9399999999996
528,0.528000,14267,15881993,-5945.6,127.47,569.0600000000004
529,0.529000,14268,15882993,-5439.6,-363.53,1076.0600000000004
530,0.530000,14269,15883993,-2361.6,-370.53,-124.9399999999996
531,0.530999,14270,15884992,1118.4,-258.53,-1485.9399999999996
532,0.532000,14271,15885993,1588.4,-161.53,-1632.9399999999996
533,0.533000,14272,15886993,-1494.6,-204.53,-1559.9399999999996
534,0.534000,14273,15887993,-5218.6,-224.53,-907.9399999999996
535,0.535000,14274,15888993,-6121.6,-493.53,1298.0600000000004
536,0.536000,14275,15889993,-4319.6,-272.53,2235.0600000000004
537,0.537000,14276,15890993,-1475.6,242.47,2330.0600000000004
538,0.538000,14277,15891993,3223.4,526.47,3057.0600000000004
539,0.539000,14278,15892993,4166.4,1073.47,1859.0600000000004
540,0.539999,14279,15893992,6084.4,936.47,261.0600000000004
541,0.541000,14280,15894993,8472.4,368.47,344.0600000000004
542,0.542000,14281,15895993,6168.4,-35.53,19.0600000000004
543,0.543000,14282,15896993,3301.4,-410.53,-1252.9399999999996
544,0.544000,14283,15897993,-32.60000000000002,-520.53,-2655.9399999999996
545,0.544999,14284,15898992,-1520.6,-361.53,-3099.9399999999996
546,0.546000,14285,15899993,-1197.6,-462.53,-2568.9399999999996
547,0.547000,14286,15900993,-865.6,-687.53,-1909.9399999999996
548,0.548000,14287,15901993,-358.6,-812.53,-1055.9399999999996
549,0.549000,14288,15902993,-1603.6,-339.53,-150.9399999999996
550,0.550000,14289,15903993,-2111.6,153.47,1358.0600000000004
551,0.551000,14290,15904993,-2007.6,175.47,2456.0600000000004
552,0.552000,14291,15905993,-468.6,1042.47,2523.0600000000004
553,0.553000,14292,15906993,-706.6,1613.47,2934.0600000000004
554,0.554000,14293,15907993,-296.6,910.47,3931.0600000000004
555,0.555000,14294,15908993,-667.6,676.47,3989.0600000000004
556,0.556000,14295,15909993,-6799.6,-10.530000000000001,2545.0600000000004
557,0.557000,14296,15910993,-10991.6,-114.53,279.0600000000004
558,0.558000,14297,15911993,-11269.6,286.47,-2135.9399999999996
559,0.559000,14298,15912993,-3336.6,-255.53,-2593.9399999999996
560,0.560000,14299,15913993,6492.4,-257.53,-2959.9399999999996
561,0.561000,14300,15914993,13359.4,-434.53,-2798.9399999999996
562,0.562000,14301,15915993,11940.4,-291.53,-532.9399999999996
563,0.563000,14302,15916993,3633.4,208.47,-0.9399999999995998
564,0.564000,14303,15917993,-3384.6,405.47,-159.9399999999996
565,0.565000,14304,15918993,-6399.6,-57.53,954.0600000000004
566,0.566000,14305,15919993,-4596.6,-421.53,772.0600000000004
567,0.567000,14306,15920993,-1131.6,-345.53,-607.9399999999996
568,0.568000,14307,15921993,1211.4,-171.53,-1574.9399999999996
569,0.569000,14308,15922993,591.4,-128.53,-1575.9399999999996
570,0.570000,14309,15923993,-1969.6,-288.53,-1577.9399999999996
571,0.571000,14310,15924993,-5834.6,-288.53,-369.9399999999996
572,0.572000,14311,15925993,-6006.6,-403.53,1781.0600000000004
573,0.573000,14312,15926993,-2994.6,-120.53,2157.0600000000004
574,0.574000,14313,15927993,-967.6,276.47,2751.0600000000004
575,0.575000,14314,15928993,4307.4,548.47,3160.0600000000004
576,0.576000,14315,15929993,6431.4,1184.47,1012.0600000000004
577,0.577000,14316,15930993,5753.4,1016.47,-138.9399999999996
578,0.578000,14317,15931993,6664.4,186.47,678.0600000000004
579,0.579000,14318,15932993,6031.4,-270.53,-208.9399999999996
580,0.580000,14319,15933993,2728.4,-457.53,-2124.9399999999996
581,0.581000,14320,15934993,-1324.6,-437.53,-2906.9399999999996
582,0.582000,14321,15935993,-844.6,-387.53,-2905.9399999999996
583,0.583000,14322,15936993,-878.6,-438.53,-2585.9399999999996
584,0.584000,14323,15937993,-930.6,-769.53,-1561.9399999999996
585,0.585000,14324,15938993,-1190.6,-844.53,-492.9399999999996
586,0.586000,14325,15939993,-1506.6,-270.53,20.0600000000004
587,0.587000,14326,15940993,-2083.6,161.47,1651.0600000000004
588,0.588000,14327,15941993,-2200.6,649.47,2789.0600000000004
589,0.589000,14328,15942993,-880.6,1247.47,2498.0600000000004
590,0.590000,14329,15943993,-124.60000000000002,1285.47,3112.0600000000004
591,0.591000,14330,15944993,1746.4,891.47,4162.06
592,0.592000,14331,15945993,-3793.6,619.47,3546.0600000000004
593,0.593000,14332,15946993,-9259.6,-177.53,1801.0600000000004
594,0.594000,14333,15947993,-10965.6,-196.53,-393.9399999999996
595,0.595000,14334,15948993,-9660.6,324.47,-2496.9399999999996
596,0.596000,14335,15949993,743.4,-320.53,-2417.9399999999996
597,0.597000,14336,15950993,9369.4,-460.53,-3126.9399999999996
598,0.598000,14337,15951993,13147.4,-315.53,-2500.9399999999996
599,0.599000,14338,15952993,9416.4,-187.53,43.0600000000004
600,0.600000,14339,15953993,1354.4,65.47,-88.9399999999996
601,0.601000,14340,15954993,-4694.6,460.47,-1.9399999999995998
602,0.601999,14341,15955992,-6495.6,-142.53,1105.0600000000004
603,0.603000,14342,15956993,-4013.6,-516.53,299.0600000000004
604,0.604000,14343,15957993,196.39999999999998,-102.53,-1132.9399999999996
605,0.605000,14344,15958993,1788.4,-282.53,-1456.9399999999996
606,0.606000,14345,15959993,-219.60000000000002,-307.53,-1472.9399999999996
607,0.607000,14346,15960993,-3129.6,-111.53,-1329.9399999999996
608,0.608000,14347,15961993,-6237.6,-377.53,490.0600000000004
609,0.609000,14348,15962993,-5646.6,-403.53,2159.0600000000004
610,0.610000,14349,15963993,-2106.6,208.47,2221.0600000000004
611,0.611000,14350,15964993,984.4,362.47,2896.0600000000004
612,0.612000,14351,15965993,4524.4,704.47,2690.0600000000004
613,0.613000,14352,15966993,6616.4,1234.47,487.0600000000004
614,0.614000,14353,15967993,6948.4,617.47,-86.9399999999996
615,0.615000,14354,15968993,5934.4,2.469999999999999,407.0600000000004
616,0.616000,14355,15969993,4915.4,-393.53,-799.9399999999996
617,0.617000,14356,15970993,2050.4,-557.53,-2567.9399999999996
618,0.618000,14357,15971993,-1865.6,-397.53,-2961.9399999999996
619,0.619000,14358,15972993,-1360.6,-294.53,-2729.9399999999996
620,0.620000,14359,15973993,-851.6,-376.53,-2322.9399999999996
621,0.621000,14360,15974993,-621.6,-1079.53,-1028.9399999999996
622,0.622000,14361,15975993,-1085.6,-377.53,-579.9399999999996
623,0.623000,14362,15976993,-1519.6,58.47,681.0600000000004
624,0.624000,14363,15977993,-2638.6,51.47,2485.0600000000004
625,0.625000,14364,15978993,-1598.6,960.47,2478.0600000000004
626,0.626000,14365,15979993,-611.6,1264.47,2519.0600000000004
627,0.627000,14366,15980993,-455.6,1032.47,3708.0600000000004
628,0.628000,14367,15981993,1506.4,719.47,4306.06
629,0.629000,14368,15982993,-4485.6,507.47,2591.0600000000004
630,0.630000,14369,15983993,-9862.6,-319.53,1136.0600000000004
631,0.631000,14370,15984993,-12707.6,-29.53,-1058.9399999999996
632,0.632000,14371,15985993,-7595.6,321.47,-2810.9399999999996
633,0.633000,14372,15986993,4402.4,-499.53,-2355.9399999999996
634,0.634000,14373,15987993,11553.4,-493.53,-3195.9399999999996
635,0.635000,14374,15988993,12800.4,44.47,-1769.9399999999996
636,0.636000,14375,15989993,6684.4,-115.53,388.0600000000004
637,0.637000,14376,15990993,-882.6,171.47,-298.9399999999996
638,0.638000,14377,15991993,-5895.6,391.47,314.0600000000004
639,0.639000,14378,15992993,-5725.6,-351.53,1171.0600000000004
640,0.640000,14379,15993993,-2898.6,-452.53,109.0600000000004
641,0.641000,14380,15994993,1086.4,-156.53,-1270.9399999999996
642,0.642000,14381,15995993,1922.4,-164.53,-1667.9399999999996
643,0.643000,14382,15996993,-1094.6,-249.53,-1391.9399999999996
644,0.644000,14383,15997993,-4682.6,-305.53,-854.9399999999996
645,0.645000,14384,15998993,-6442.6,-387.53,953.0600000000004
646,0.646000,14385,15999993,-5007.6,-172.53,2162.0600000000004
647,0.647000,14386,16000993,-1497.6,124.47,2157.0600000000004
648,0.648000,14387,16001993,2943.4,419.47,2914.0600000000004
649,0.649000,14388,16002993,4248.4,855.47,2146.0600000000004
650,0.650000,14389,16003993,6304.4,1061.47,137.0600000000004
651,0.651000,14390,16004993,8436.4,418.47,150.0600000000004
652,0.652000,14391,16005993,5858.4,-76.53,135.0600000000004
653,0.653000,14392,16006993,3410.4,-276.53,-1199.9399999999996
654,0.654000,14393,16007993,713.4,-510.53,-2613.9399999999996
655,0.655000,14394,16008993,-1418.6,-422.53,-2983.9399999999996
656,0.655999,14395,16009992,-1809.6,-254.53,-2538.9399999999996
657,0.657000,14396,16010993,-797.6,-629.53,-1882.9399999999996
658,0.658000,14397,16011993,-141.60000000000002,-933.53,-955.9399999999996
659,0.659000,14398,16012993,-1436.6,-197.53,-286.9399999999996
660,0.660000,14399,16013993,-1824.6,-22.53,1220.0600000000004
661,0.661000,14400,16014993,-2587.6,100.47,2528.0600000000004
662,0.662000,14401,16015993,-700.6,1075.47,2433.0600000000004
663,0.663000,14402,16016993,-626.6,1455.47,2682.0600000000004
664,0.664000,14403,16017993,-807.6,892.47,3857.0600000000004
665,0.664999,14404,16018992,198.39999999999998,576.47,4032.0600000000004
666,0.665999,14405,16019992,-4806.6,23.47,2321.0600000000004
667,0.666999,14406,16020992,-10815.6,-44.53,429.0600000000004
668,0.668000,14407,16021993,-12579.6,255.47,-1778.9399999999996
669,0.669000,14408,16022993,-4106.6,-226.53,-2649.9399999999996
670,0.670000,14409,16023993,6115.4,-277.53,-2666.9399999999996
671,0.671000,14410,16024993,12306.4,-410.53,-2940.9399999999996
672,0.672000,14411,16025993,11885.4,-143.53,-841.9399999999996
673,0.673000,14412,16026993,4621.4,-3.530000000000001,314.0600000000004
674,0.674000,14413,16027993,-2506.6,248.47,-152.9399999999996
675,0.675000,14414,16028993,-6032.6,196.47,768.0600000000004
676,0.676000,14415,16029993,-4766.6,-309.53,867.0600000000004
677,0.677000,14416,16030993,-1838.6,-383.53,-484.9399999999996
678,0.678000,14417,16031993,1023.4,-210.53,-1490.9399999999996
679,0.679000,14418,16032993,1034.4,-172.53,-1530.9399999999996
680,0.680000,14419,16033993,-2065.6,-308.53,-1567.9399999999996
681,0.681000,14420,16034993,-5734.6,-270.53,-681.9399999999996
682,0.682000,14421,16035993,-5691.6,-287.53,1499.0600000000004
683,0.683000,14422,16036993,-3344.6,-107.53,2244.0600000000004
684,0.684000,14423,16037993,-658.6,221.47,2531.0600000000004
685,0.684999,14424,16038992,3788.4,635.47,3069.0600000000004
686,0.686000,14425,16039993,5261.4,954.47,1395.0600000000004
687,0.686999,14426,16040992,5749.4,885.47,-14.9399999999996
688,0.688000,14427,16041993,7161.4,290.47,551.0600000000004
689,0.689000,14428,16042993,6439.4,-201.53,-100.9399999999996
690,0.690000,14429,16043993,2913.4,-382.53,-1908.9399999999996
691,0.691000,14430,16044993,-760.6,-460.53,-2774.9399999999996
692,0.692000,14431,16045993,-1107.6,-246.53,-2836.9399999999996
693,0.693000,14432,16046993,-1788.6,-349.53,-2657.9399999999996
694,0.694000,14433,16047993,-1130.6,-932.53,-1582.9399999999996
695,0.695000,14434,16048993,-81.60000000000002,-691.53,-597.9399999999996
696,0.696000,14435,16049993,-867.6,-99.53,186.0600000000004
697,0.697000,14436,16050993,-2210.6,-74.53,1562.0600000000004
698,0.698000,14437,16051993,-2492.6,452.47,2488.0600000000004
699,0.699000,14438,16052993,-591.6,1244.47,2595.0600000000004
700,0.700000,14439,16053993,-552.6,1375.47,2830.0600000000004
701,0.701000,14440,16054993,480.4,883.47,3946.0600000000004
702,0.702000,14441,16055993,-1361.6,535.47,3796.0600000000004
703,0.703000,14442,16056993,-8504.6,38.47,1951.0600000000004
704,0.704000,14443,16057993,-11200.6,-207.53,-222.9399999999996
705,0.705000,14444,16058993,-9631.6,93.47,-2300.9399999999996
706,0.706000,14445,16059993,-2219.6,47.47,-2660.9399999999996
707,0.707000,14446,16060993,7806.4,-652.53,-2785.9399999999996
708,0.708000,14447,16061993,13124.4,-430.53,-2577.9399999999996
709,0.709000,14448,16062993,11151.4,-0.5300000000000011,-241.9399999999996
710,0.710000,14449,16063993,2681.4,51.47,249.0600000000004
711,0.711000,14450,16064993,-4328.6,559.47,-70.9399999999996
712,0.712000,14451,16065993,-6327.6,-26.53,917.0600000000004
713,0.713000,14452,16066993,-3827.6,-523.53,696.0600000000004
714,0.714000,14453,16067993,51.39999999999998,-308.53,-851.9399999999996
715,0.715000,14454,16068993,813.4,-80.53,-1738.9399999999996
716,0.716000,14455,16069993,-632.6,-275.53,-1350.9399999999996
717,0.717000,14456,16070993,-2938.6,-390.53,-1373.9399999999996
718,0.718000,14457,16071993,-6342.6,-236.53,-214.9399999999996
719,0.719000,14458,16072993,-5200.6,-270.53,1845.0600000000004
720,0.720000,14459,16073993,-1563.6,-182.53,2340.0600000000004
721,0.721000,14460,16074993,31.399999999999977,285.47,2648.0600000000004
722,0.722000,14461,16075993,4653.4,665.47,2901.0600000000004
723,0.723000,14462,16076993,6178.4,1168.47,952.0600000000004
724,0.724000,14463,16077993,5638.4,898.47,-128.9399999999996
725,0.725000,14464,16078993,6105.4,83.47,525.0600000000004
726,0.725999,14465,16079992,6163.4,-383.53,-297.9399999999996
727,0.727000,14466,16080993,2720.4,-439.53,-2290.9399999999996
728,0.728000,14467,16081993,-1906.6,-373.53,-3002.9399999999996
729,0.729000,14468,16082993,-1201.6,-383.53,-2714.9399999999996
730,0.730000,14469,16083993,-1149.6,-384.53,-2541.9399999999996
731,0.731000,14470,16084993,-997.6,-882.53,-1332.9399999999996
732,0.732000,14471,16085993,-1343.6,-641.53,-503.9399999999996
733,0.733000,14472,16086993,-519.6,-119.53,511.0600000000004
734,0.734000,14473,16087993,-1668.6,42.47,2200.0600000000004
735,0.735000,14474,16088993,-2754.6,838.47,2537.0600000000004
736,0.736000,14475,16089993,-1050.6,1237.47,2482.0600000000004
737,0.737000,14476,16090993,-447.6,1111.47,3300.0600000000004
738,0.738000,14477,16091993,1921.4,797.47,4406.06
739,0.739000,14478,16092993,-4279.6,671.47,3125.0600000000004
740,0.740000,14479,16093993,-9159.6,-389.53,1164.0600000000004
741,0.741000,14480,16094993,-11317.6,-223.53,-682.9399999999996
742,0.742000,14481,16095993,-9192.6,597.47,-2523.9399999999996
743,0.743000,14482,16096993,2372.4,-367.53,-2591.9399999999996
744,0.744000,14483,16097993,10122.4,-610.53,-3151.9399999999996
745,0.745000,14484,16098993,13207.4,-223.53,-1828.9399999999996
746,0.746000,14485,16099993,8149.4,13.469999999999999,263.0600000000004
747,0.747000,14486,16100993,572.4,4.469999999999999,17.0600000000004
748,0.748000,14487,16101993,-5381.6,422.47,124.0600000000004
749,0.749000,14488,16102993,-6283.6,-111.53,864.0600000000004
750,0.750000,14489,16103993,-2731.6,-634.53,360.0600000000004
751,0.751000,14490,16104993,383.4,-150.53,-1181.9399999999996
752,0.752000,14491,16105993,1262.4,-221.53,-1726.9399999999996
753,0.753000,14492,16106993,-1656.6,-234.53,-1562.9399999999996
754,0.754000,14493,16107993,-4359.6,-224.53,-996.9399999999996
755,0.755000,14494,16108993,-5538.6,-353.53,706.0600000000004
756,0.756000,14495,16109993,-3925.6,-295.53,2138.0600000000004
757,0.756999,14496,16110992,-1041.6,165.47,2352.0600000000004
758,0.758000,14497,16111993,1933.4,535.47,2748.0600000000004
759,0.759000,14498,16112993,3205.4,820.47,2418.0600000000004
760,0.760000,14499,16113993,5441.4,1075.47,580.0600000000004
761,0.761000,14500,16114993,8265.4,522.47,77.0600000000004
762,0.762000,14501,16115993,6228.4,-67.53,236.0600000000004
763,0.763000,14502,16116993,4484.4,-465.53,-908.9399999999996
764,0.764000,14503,16117993,1233.4,-509.53,-2737.9399999999996
765,0.765000,14504,16118993,-1870.6,-260.53,-3215.9399999999996
766,0.766000,14505,16119993,-1714.6,-277.53,-2607.9399999999996
767,0.767000,14506,16120993,-779.6,-791.53,-1984.9399999999996
768,0.768000,14507,16121993,-416.6,-820.53,-1023.9399999999996
769,0.769000,14508,16122993,-977.6,-407.53,-130.9399999999996
770,0.770000,14509,16123993,-1745.6,115.47,859.0600000000004
771,0.771000,14510,16124993,-2958.6,141.47,2280.0600000000004
772,0.772000,14511,16125993,-660.6,761.47,2785.0600000000004
773,0.773000,14512,16126993,-1166.6,1747.47,2473.0600000000004
774,0.774000,14513,16127993,-552.6,817.47,3692.0600000000004
775,0.775000,14514,16128993,841.4,420.47,4338.06
776,0.776000,14515,16129993,-5101.6,443.47,2675.0600000000004
777,0.777000,14516,16130993,-10884.6,-44.53,535.0600000000004
778,0.778000,14517,16131993,-12683.6,121.47,-1721.9399999999996
779,0.779000,14518,16132993,-5062.6,6.469999999999999,-2431.9399999999996
780,0.780000,14519,16133993,5817.4,-457.53,-2622.9399999999996
781,0.781000,14520,16134993,12889.4,-299.53,-3236.9399999999996
782,0.782000,14521,16135993,12379.4,-139.53,-1020.9399999999996
783,0.783000,14522,16136993,4971.4,-42.53,299.0600000000004
784,0.784000,14523,16137993,-2190.6,307.47,-224.9399999999996
785,0.785000,14524,16138993,-6242.6,117.47,516.0600000000004
786,0.786000,14525,16139993,-5170.6,-272.53,954.0600000000004
787,0.786999,14526,16140992,-2404.6,-300.53,-273.9399999999996
788,0.788000,14527,16141993,955.4,-287.53,-1626.9399999999996
789,0.789000,14528,16142993,1699.4,-356.53,-1408.9399999999996
790,0.790000,14529,16143993,-1823.6,-198.53,-1447.9399999999996
791,0.791000,14530,16144993,-5070.6,-206.53,-748.9399999999996
792,0.792000,14531,16145993,-5436.6,-345.53,1375.0600000000004
793,0.793000,14532,16146993,-3816.6,-114.53,2276.0600000000004
794,0.794000,14533,16147993,-1368.6,135.47,2705.0600000000004
795,0.795000,14534,16148993,3351.4,573.47,3026.0600000000004
796,0.796000,14535,16149993,4869.4,1058.47,1368.0600000000004
797,0.797000,14536,16150993,5750.4,883.47,185.0600000000004
798,0.797999,14537,16151992,7690.4,280.47,453.0600000000004
799,0.799000,14538,16152993,6821.4,-237.53,-187.9399999999996
800,0.800000,14539,16153993,3042.4,-350.53,-1687.9399999999996
801,0.801000,14540,16154993,-933.6,-315.53,-2888.9399999999996
802,0.802000,14541,16155993,-1001.6,-432.53,-2967.9399999999996
803,0.802999,14542,16156992,-1273.6,-404.53,-2568.9399999999996
804,0.804000,14543,16157993,-1043.6,-661.53,-1566.9399999999996
805,0.805000,14544,16158993,-391.6,-995.53,-590.9399999999996
806,0.806000,14545,16159993,-1460.6,-117.53,-121.9399999999996
807,0.807000,14546,16160993,-2310.6,117.47,1575.0600000000004
808,0.808000,14547,16161993,-2346.6,374.47,2559.0600000000004
809,0.809000,14548,16162993,-1111.6,1404.47,2295.0600000000004
810,0.810000,14549,16163993,-215.60000000000002,1286.47,2898.0600000000004
811,0.811000,14550,16164993,1418.4,632.47,4190.06
812,0.812000,14551,16165993,-1679.6,781.47,3756.0600000000004
813,0.813000,14552,16166993,-8653.6,93.47,2069.0600000000004
814,0.814000,14553,16167993,-10875.6,-455.53,22.0600000000004
815,0.815000,14554,16168993,-10338.6,420.47,-2314.9399999999996
816,0.816000,14555,16169993,-2164.6,-79.53,-2479.9399999999996
817,0.817000,14556,16170993,8233.4,-543.53,-2964.9399999999996
818,0.818000,14557,16171993,13421.4,-352.53,-2603.9399999999996
819,0.818999,14558,16172992,11053.4,-247.53,-245.9399999999996
820,0.820000,14559,16173993,2386.4,285.47,-112.9399999999996
821,0.821000,14560,16174993,-4345.6,433.47,-113.9399999999996
822,0.822000,14561,16175993,-6572.6,-224.53,1023.0600000000004
823,0.823000,14562,16176993,-4268.6,-394.53,681.0600000000004
824,0.824000,14563,16177993,-124.60000000000002,-339.53,-885.9399999999996
825,0.825000,14564,16178993,1178.4,-85.53,-1648.9399999999996
826,0.826000,14565,16179993,-27.600000000000023,-140.53,-1364.9399999999996
827,0.827000,14566,16180993,-2246.6,-411.53,-1387.9399999999996
828,0.828000,14567,16181993,-5830.6,-296.53,-128.9399999999996
829,0.828999,14568,16182992,-5833.6,-257.53,1800.0600000000004
830,0.830000,14569,16183993,-2507.6,-90.53,2274.0600000000004
831,0.831000,14570,16184993,-329.6,280.47,2738.0600000000004
832,0.832000,14571,16185993,4624.4,632.47,2877.0600000000004
833,0.833000,14572,16186993,6493.4,1197.47,764.0600000000004
834,0.834000,14573,16187993,6179.4,798.47,-155.9399999999996
835,0.835000,14574,16188993,6415.4,65.47,507.0600000000004
836,0.836000,14575,16189993,5786.4,-221.53,-416.9399999999996
837,0.837000,14576,16190993,2489.4,-552.53,-2250.9399999999996
838,0.837999,14577,16191992,-1959.6,-386.53,-2941.9399999999996
839,0.838999,14578,16192992,-1265.6,-197.53,-2685.9399999999996
840,0.840000,14579,16193993,-882.6,-496.53,-2382.9399999999996
841,0.841000,14580,16194993,-989.6,-850.53,-1437.9399999999996
842,0.842000,14581,16195993,-1336.6,-507.53,-509.9399999999996
843,0.843000,14582,16196993,-926.6,-135.53,637.0600000000004
844,0.844000,14583,16197993,-2235.6,62.47,2072.0600000000004
845,0.845000,14584,16198993,-2157.6,628.47,2535.0600000000004
846,0.846000,14585,16199993,-719.6,1245.47,2461.0600000000004
847,0.846999,14586,16200992,-300.6,1232.47,3229.0600000000004
848,0.848000,14587,16201993,1696.4,772.47,4275.06
849,0.849000,14588,16202993,-4249.6,481.47,3138.0600000000004
850,0.850000,14589,16203993,-9284.6,-258.53,1276.0600000000004
851,0.851000,14590,16204993,-11933.6,-12.530000000000001,-627.9399999999996
852,0.852000,14591,16205993,-8995.6,369.47,-2588.9399999999996
853,0.853000,14592,16206993,2895.4,-400.53,-2599.9399999999996
854,0.854000,14593,16207993,10349.4,-483.53,-3057.9399999999996
855,0.855000,14594,16208993,13286.4,-282.53,-1936.9399999999996
856,0.856000,14595,16209993,7960.4,-74.53,135.0600000000004
857,0.857000,14596,16210993,-121.60000000000002,220.47,-144.9399999999996
858,0.858000,14597,16211993,-5641.6,307.47,179.0600000000004
859,0.859000,14598,16212993,-6372.6,-142.53,976.0600000000004
860,0.860000,14599,16213993,-2895.6,-449.53,428.0600000000004
861,0.861000,14600,16214993,472.4,-140.53,-1253.9399999999996
862,0.862000,14601,16215993,2324.4,-250.53,-1720.9399999999996
863,0.863000,14602,16216993,-506.6,-260.53,-1415.9399999999996
864,0.864000,14603,16217993,-4000.6,-100.53,-992.9399999999996
865,0.865000,14604,16218993,-6175.6,-484.53,723.0600000000004
866,0.866000,14605,16219993,-5662.6,-288.53,1946.0600000000004
867,0.867000,14606,16220993,-2172.6,148.47,2358.0600000000004
868,0.868000,14607,16221993,2165.4,285.47,2869.0600000000004
869,0.869000,14608,16222993,4323.4,891.47,2120.0600000000004
870,0.870000,14609,16223993,6614.4,1112.47,359.0600000000004
871,0.871000,14610,16224993,8596.4,421.47,175.0600000000004
872,0.872000,14611,16225993,5631.4,80.47,99.0600000000004
873,0.873000,14612,16226993,3664.4,-399.53,-1001.9399999999996
874,0.874000,14613,16227993,850.4,-557.53,-2475.9399999999996
875,0.875000,14614,16228993,-1688.6,-420.53,-2908.9399999999996
876,0.875999,14615,16229992,-1713.6,-315.53,-2476.9399999999996
877,0.877000,14616,16230993,-490.6,-627.53,-1899.9399999999996
878,0.878000,14617,16231993,-483.6,-811.53,-1179.9399999999996
879,0.879000,14618,16232993,-1254.6,-255.53,-486.9399999999996
880,0.880000,14619,16233993,-1376.6,-220.53,1121.0600000000004
881,0.881000,14620,16234993,-2657.6,196.47,2399.0600000000004
882,0.882000,14621,16235993,-656.6,1045.47,2470.0600000000004
883,0.883000,14622,16236993,-769.6,1345.47,2612.0600000000004
884,0.884000,14623,16237993,-705.6,1027.47,3747.0600000000004
885,0.885000,14624,16238993,270.4,689.47,4122.06
886,0.886000,14625,16239993,-4669.6,71.47,2494.0600000000004
887,0.887000,14626,16240993,-10245.6,-89.53,573.0600000000004
888,0.888000,14627,16241993,-13051.6,253.47,-1414.9399999999996
889,0.889000,14628,16242993,-5295.6,-230.53,-2511.9399999999996
890,0.890000,14629,16243993,5526.4,-382.53,-2683.9399999999996
891,0.890999,14630,16244992,12178.4,-341.53,-3074.9399999999996
892,0.892000,14631,16245993,12459.4,-100.53,-940.9399999999996
893,0.893000,14632,16246993,5201.4,15.469999999999999,450.0600000000004
894,0.894000,14633,16247993,-2048.6,185.47,-388.9399999999996
895,0.895000,14634,16248993,-5997.6,320.47,543.0600000000004
896,0.896000,14635,16249993,-5024.6,-353.53,1066.0600000000004
897,0.897000,14636,16250993,-2016.6,-451.53,-208.9399999999996
898,0.898000,14637,16251993,1098.4,-99.53,-1469.9399999999996
899,0.899000,14638,16252993,1202.4,-279.53,-1464.9399999999996
900,0.900000,14639,16253993,-2054.6,-251.53,-1570.9399999999996
901,0.901000,14640,16254993,-5533.6,-145.53,-915.9399999999996
902,0.902000,14641,16255993,-5576.6,-460.53,1290.0600000000004
903,0.903000,14642,16256993,-3299.6,-251.53,2142.0600000000004
904,0.904000,14643,16257993,-749.6,219.47,2508.0600000000004
905,0.905000,14644,16258993,3084.4,550.47,3005.0600000000004
906,0.906000,14645,16259993,4190.4,1030.47,1456.0600000000004
907,0.907000,14646,16260993,5540.4,929.47,159.0600000000004
908,0.908000,14647,16261993,7812.4,306.47,629.0600000000004
909,0.909000,14648,16262993,6817.4,-171.53,21.0600000000004
910,0.910000,14649,16263993,3399.4,-343.53,-1631.9399999999996
911,0.911000,14650,16264993,-436.6,-348.53,-2701.9399999999996
912,0.912000,14651,16265993,-1269.6,-425.53,-2935.9399999999996
913,0.913000,14652,16266993,-1970.6,-399.53,-2656.9399999999996
914,0.914000,14653,16267993,-1082.6,-661.53,-1675.9399999999996
915,0.915000,14654,16268993,159.39999999999998,-941.53,-784.9399999999996
916,0.916000,14655,16269993,-1428.6,-180.53,-178.9399999999996
917,0.917000,14656,16270993,-1991.6,42.47,1674.0600000000004
918,0.918000,14657,16271993,-2101.6,206.47,2578.0600000000004
919,0.919000,14658,16272993,-846.6,1300.47,2254.0600000000004
920,0.920000,14659,16273993,-714.6,1398.47,2894.0600000000004
921,0.921000,14660,16274993,-93.60000000000002,776.47,4033.0600000000004
922,0.922000,14661,16275993,-947.6,579.47,3871.0600000000004
923,0.923000,14662,16276993,-7533.6,55.47,2077.0600000000004
924,0.924000,14663,16277993,-11006.6,-164.53,20.0600000000004
925,0.925000,14664,16278993,-10512.6,162.47,-2172.9399999999996
926,0.926000,14665,16279993,-2716.6,-152.53,-2568.9399999999996
927,0.927000,14666,16280993,7207.4,-372.53,-2892.9399999999996
928,0.928000,14667,16281993,13085.4,-431.53,-2676.9399999999996
929,0.929000,14668,16282993,11892.4,-106.53,-144.9399999999996
930,0.930000,14669,16283993,3132.4,289.47,114.0600000000004
931,0.931000,14670,16284993,-3861.6,244.47,-121.9399999999996
932,0.932000,14671,16285993,-6482.6,1.4699999999999989,977.0600000000004
933,0.933000,14672,16286993,-4354.6,-353.53,666.0600000000004
934,0.934000,14673,16287993,-351.6,-492.53,-842.9399999999996
935,0.935000,14674,16288993,696.4,-166.53,-1663.9399999999996
936,0.936000,14675,16289993,-137.60000000000002,-313.53,-1427.9399999999996
937,0.937000,14676,16290993,-2711.6,-228.53,-1675.9399999999996
938,0.938000,14677,16291993,-5852.6,-134.53,-236.9399999999996
939,0.939000,14678,16292993,-4796.6,-481.53,1913.0600000000004
940,0.940000,14679,16293993,-2098.6,-4.530000000000001,2249.0600000000004
941,0.941000,14680,16294993,-599.6,345.47,2769.0600000000004
942,0.942000,14681,16295993,4209.4,498.47,2958.0600000000004
943,0.943000,14682,16296993,5758.4,1268.47,880.0600000000004
944,0.944000,14683,16297993,5585.4,862.47,-87.9399999999996
945,0.945000,14684,16298993,6824.4,67.47,731.0600000000004
946,0.946000,14685,16299993,6323.4,-237.53,-349.9399999999996
947,0.947000,14686,16300993,2859.4,-582.53,-2295.9399999999996
948,0.948000,14687,16301993,-1905.6,-405.53,-2985.9399999999996
949,0.949000,14688,16302993,-1559.6,-187.53,-2863.9399999999996
950,0.950000,14689,16303993,-919.6,-536.53,-2412.9399999999996
951,0.951000,14690,16304993,-893.6,-961.53,-1281.9399999999996
952,0.952000,14691,16305993,-1115.6,-545.53,-519.9399999999996
953,0.953000,14692,16306993,-814.6,-252.53,178.0600000000004
954,0.954000,14693,16307993,-1815.6,133.47,1968.0600000000004
955,0.955000,14694,16308993,-2365.6,870.47,2560.0600000000004
956,0.955999,14695,16309992,-1176.6,1270.47,2206.0600000000004
957,0.957000,14696,16310993,-328.6,1097.47,3418.0600000000004
958,0.958000,14697,16311993,1739.4,823.47,4425.06
959,0.959000,14698,16312993,-4147.6,682.47,3265.0600000000004
960,0.960000,14699,16313993,-9220.6,-449.53,1455.0600000000004
961,0.961000,14700,16314993,-11180.6,-142.53,-677.9399999999996
962,0.962000,14701,16315993,-9211.6,501.47,-2556.9399999999996
963,0.963000,14702,16316993,1592.4,-321.53,-2518.9399999999996
964,0.964000,14703,16317993,9557.4,-572.53,-3151.9399999999996
965,0.965000,14704,16318993,13212.4,-313.53,-2023.9399999999996
966,0.966000,14705,16319993,8885.4,34.47,354.0600000000004
967,0.967000,14706,16320993,888.4,191.47,-59.9399999999996
968,0.968000,14707,16321993,-5012.6,413.47,68.0600000000004
969,0.968999,14708,16322992,-6336.6,-216.53,886.0600000000004
970,0.970000,14709,16323993,-3090.6,-526.53,165.0600000000004
971,0.971000,14710,16324993,445.4,-80.53,-1262.9399999999996
972,0.972000,14711,16325993,1186.4,-326.53,-1545.9399999999996
973,0.973000,14712,16326993,-1344.6,-428.53,-1524.9399999999996
974,0.974000,14713,16327993,-4118.6,-4.530000000000001,-1331.9399999999996
975,0.975000,14714,16328993,-5800.6,-413.53,760.0600000000004
976,0.976000,14715,16329993,-4324.6,-500.53,2234.0600000000004
977,0.977000,14716,16330993,-1311.6,257.47,2269.0600000000004
978,0.978000,14717,16331993,1680.4,439.47,2872.0600000000004
979,0.979000,14718,16332993,3465.4,879.47,2559.0600000000004
980,0.980000,14719,16333993,5477.4,1127.47,475.0600000000004
981,0.981000,14720,16334993,7946.4,537.47,-82.9399999999996
982,0.982000,14721,16335993,6206.4,2.469999999999999,331.0600000000004
983,0.983000,14722,16336993,5081.4,-511.53,-814.9399999999996
984,0.984000,14723,16337993,1699.4,-529.53,-2648.9399999999996
985,0.985000,14724,16338993,-2125.6,-286.53,-3105.9399999999996
986,0.986000,14725,16339993,-1791.6,-268.53,-2629.9399999999996
987,0.987000,14726,16340993,-937.6,-663.53,-2141.9399999999996
988,0.988000,14727,16341993,-712.6,-1038.53,-1040.9399999999996
989,0.989000,14728,16342993,-1149.6,-325.53,-407.9399999999996
990,0.990000,14729,16343993,-1323.6,-42.53,818.0600000000004
991,0.991000,14730,16344993,-2641.6,139.47,2413.0600000000004
992,0.992000,14731,16345993,-858.6,960.47,2554.0600000000004
993,0.993000,14732,16346993,-605.6,1423.47,2518.0600000000004
994,0.994000,14733,16347993,-737.6,1017.47,3775.0600000000004
995,0.995000,14734,16348993,624.4,690.47,4422.06
996,0.996000,14735,16349993,-4119.6,186.47,2720.0600000000004
997,0.997000,14736,16350993,-10360.6,-107.53,701.0600000000004
998,0.998000,14737,16351993,-13409.6,260.47,-1408.9399999999996
999,0.998999,14738,16352992,-5979.6,-138.53,-2572.9399999999996
1000,1.000000,14739,16353993,5129.4,-394.53,-2700.9399999999996
1001,1.001000,14740,16354993,12035.4,-405.53,-3291.9399999999996
1002,1.002000,14741,16355993,12238.4,-44.53,-1390.9399999999996
1003,1.003000,14742,16356993,5868.4,-160.53,283.0600000000004
1004,1.004000,14743,16357993,-1325.6,203.47,-359.9399999999996
1005,1.005000,14744,16358993,-5954.6,371.47,585.0600000000004
1006,1.006000,14745,16359993,-5216.6,-397.53,1146.0600000000004
1007,1.007000,14746,16360993,-2417.6,-430.53,-77.9399999999996
1008,1.008000,14747,16361993,716.4,-227.53,-1369.9399999999996
1009,1.009000,14748,16362993,1198.4,-217.53,-1562.9399999999996
1010,1.010000,14749,16363993,-1698.6,-153.53,-1469.9399999999996
1011,1.011000,14750,16364993,-4724.6,-182.53,-932.9399999999996
1012,1.012000,14751,16365993,-5327.6,-418.53,1156.0600000000004
1013,1.013000,14752,16366993,-3616.6,-341.53,2264.0600000000004
1014,1.014000,14753,16367993,-1196.6,82.47,2515.0600000000004
1015,1.015000,14754,16368993,2145.4,726.47,2953.0600000000004
1016,1.016000,14755,16369993,3983.4,975.47,1662.0600000000004
1017,1.017000,14756,16370993,5725.4,950.47,165.0600000000004
1018,1.018000,14757,16371993,8480.4,322.47,503.0600000000004
1019,1.019000,14758,16372993,6966.4,-172.53,10.0600000000004
1020,1.020000,14759,16373993,3303.4,-174.53,-1566.9399999999996
1021,1.021000,14760,16374993,-57.60000000000002,-527.53,-2661.9399999999996
1022,1.022000,14761,16375993,-1341.6,-410.53,-2937.9399999999996
1023,1.022999,14762,16376992,-1642.6,-155.53,-2627.9399999999996
1024,1.024000,14763,16377993,-895.6,-880.53,-1752.9399999999996
1025,1.025000,14764,16378993,-437.6,-789.53,-895.9399999999996
1026,1.026000,14765,16379993,-1698.6,-130.53,-79.9399999999996
1027,1.027000,14766,16380993,-2028.6,-3.530000000000001,1364.0600000000004
1028,1.028000,14767,16381993,-2458.6,273.47,2413.0600000000004
1029,1.029000,14768,16382993,-572.6,979.47,2556.0600000000004
1030,1.030000,14769,16383993,-172.60000000000002,1464.47,2860.0600000000004
1031,1.031000,14770,16384993,491.4,882.47,4053.0600000000004
1032,1.032000,14771,16385993,-890.6,637.47,3872.0600000000004
1033,1.033000,14772,16386993,-7931.6,80.47,2274.0600000000004
1034,1.034000,14773,16387993,-11237.6,-245.53,160.0600000000004
1035,1.035000,14774,16388993,-10621.6,322.47,-2191.9399999999996
1036,1.036000,14775,16389993,-3044.6,3.469999999999999,-2531.9399999999996
1037,1.037000,14776,16390993,7536.4,-608.53,-2898.9399999999996
1038,1.038000,14777,16391993,13432.4,-379.53,-2818.9399999999996
1039,1.039000,14778,16392993,11401.4,-67.53,-425.9399999999996
1040,1.040000,14779,16393993,3507.4,-61.53,261.0600000000004
1041,1.041000,14780,16394993,-4105.6,387.47,-228.9399999999996
1042,1.042000,14781,16395993,-6629.6,128.47,829.0600000000004
1043,1.043000,14782,16396993,-4474.6,-419.53,898.0600000000004
1044,1.044000,14783,16397993,-862.6,-419.53,-615.9399999999996
1045,1.045000,14784,16398993,1235.4,-167.53,-1579.9399999999996
1046,1.046000,14785,16399993,198.39999999999998,-146.53,-1491.9399999999996
1047,1.047000,14786,16400993,-2045.6,-262.53,-1530.9399999999996
1048,1.048000,14787,16401993,-5740.6,-125.53,-403.9399999999996
1049,1.049000,14788,16402993,-5360.6,-478.53,1735.0600000000004
1050,1.050000,14789,16403993,-2689.6,-193.53,2181.0600000000004
1051,1.051000,14790,16404993,-1428.6,297.47,2763.0600000000004
1052,1.052000,14791,16405993,4409.4,503.47,3036.0600000000004
1053,1.053000,14792,16406993,6356.4,1269.47,800.0600000000004
1054,1.054000,14793,16407993,6220.4,921.47,21.0600000000004
1055,1.055000,14794,16408993,6902.4,153.47,633.0600000000004
1056,1.056000,14795,16409993,6091.4,-256.53,-408.9399999999996
1057,1.056999,14796,16410992,2655.4,-564.53,-2085.9399999999996
1058,1.058000,14797,16411993,-2115.6,-377.53,-2948.9399999999996
1059,1.059000,14798,16412993,-1228.6,-290.53,-2747.9399999999996
1060,1.060000,14799,16413993,-760.6,-579.53,-2337.9399999999996
1061,1.061000,14800,16414993,-947.6,-821.53,-1383.9399999999996
1062,1.062000,14801,16415993,-1365.6,-563.53,-528.9399999999996
1063,1.063000,14802,16416993,-1438.6,-300.53,195.0600000000004
1064,1.064000,14803,16417993,-2107.6,129.47,1865.0600000000004
1065,1.065000,14804,16418993,-2010.6,664.47,2513.0600000000004
1066,1.066000,14805,16419993,-609.6,1265.47,2363.0600000000004
1067,1.066999,14806,16420992,239.39999999999998,1199.47,3399.0600000000004
1068,1.068000,14807,16421993,2103.4,787.47,4261.06
1069,1.069000,14808,16422993,-4253.6,852.47,3279.0600000000004
1070,1.070000,14809,16423993,-9436.6,-413.53,1756.0600000000004
1071,1.071000,14810,16424993,-11335.6,-195.53,-469.9399999999996
1072,1.071999,14811,16425992,-9699.6,526.47,-2699.9399999999996
1073,1.073000,14812,16426993,1849.4,-434.53,-2544.9399999999996
1074,1.074000,14813,16427993,9697.4,-476.53,-3184.9399999999996
1075,1.075000,14814,16428993,13160.4,-367.53,-2205.9399999999996
1076,1.076000,14815,16429993,8778.4,-138.53,78.0600000000004
1077,1.077000,14816,16430993,347.4,254.47,-94.9399999999996
1078,1.078000,14817,16431993,-5127.6,214.47,336.0600000000004
1079,1.079000,14818,16432993,-6577.6,-87.53,1105.0600000000004
1080,1.080000,14819,16433993,-3120.6,-475.53,423.0600000000004
1081,1.081000,14820,16434993,617.4,-325.53,-1153.9399999999996
1082,1.082000,14821,16435993,1615.4,-46.53,-1687.9399999999996
1083,1.083000,14822,16436993,-86.60000000000002,-246.53,-1532.9399999999996
1084,1.084000,14823,16437993,-3148.6,-196.53,-1335.9399999999996
1085,1.084999,14824,16438992,-6136.6,-212.53,475.0600000000004
1086,1.086000,14825,16439993,-5528.6,-406.53,2200.0600000000004
1087,1.087000,14826,16440993,-2433.6,35.47,2262.0600000000004
1088,1.088000,14827,16441993,1028.4,301.47,2757.0600000000004
1089,1.088999,14828,16442992,4311.4,784.47,2573.0600000000004
1090,1.090000,14829,16443993,6709.4,1216.47,462.0600000000004
1091,1.091000,14830,16444993,8050.4,484.47,-85.9399999999996
1092,1.092000,14831,16445993,5608.4,45.47,257.0600000000004
1093,1.092999,14832,16446992,4360.4,-371.53,-785.9399999999996
1094,1.094000,14833,16447993,1595.4,-601.53,-2458.9399999999996
1095,1.095000,14834,16448993,-2048.6,-226.53,-2920.9399999999996
1096,1.096000,14835,16449993,-1386.6,-204.53,-2528.9399999999996
1097,1.096999,14836,16450992,-714.6,-770.53,-2052.9399999999996
1098,1.097999,14837,16451992,-822.6,-948.53,-961.9399999999996
1099,1.099000,14838,16452993,-1398.6,-166.53,-562.9399999999996
1100,1.100000,14839,16453993,-1088.6,-62.53,649.0600000000004
1101,1.100999,14840,16454992,-2326.6,-28.53,2338.0600000000004
1102,1.102000,14841,16455993,-887.6,935.47,2519.0600000000004
1103,1.103000,14842,16456993,-474.6,1460.47,2464.0600000000004
1104,1.104000,14843,16457993,-640.6,976.47,3534.0600000000004
1105,1.105000,14844,16458993,694.4,642.47,4312.06
1106,1.106000,14845,16459993,-4888.6,355.47,2690.0600000000004
1107,1.107000,14846,16460993,-10126.6,-357.53,807.0600000000004
1108,1.108000,14847,16461993,-13128.6,321.47,-1374.9399999999996
1109,1.109000,14848,16462993,-6177.6,134.47,-2496.9399999999996
1110,1.110000,14849,16463993,5133.4,-649.53,-2514.9399999999996
1111,1.111000,14850,16464993,11472.4,-351.53,-3296.9399999999996
1112,1.112000,14851,16465993,12462.4,-227.53,-1253.9399999999996
1113,1.113000,14852,16466993,6015.4,-42.53,397.0600000000004
1114,1.114000,14853,16467993,-1171.6,403.47,-248.9399999999996
1115,1.115000,14854,16468993,-5930.6,381.47,377.0600000000004
1116,1.116000,14855,16469993,-5568.6,-362.53,1021.0600000000004
1117,1.117000,14856,16470993,-2596.6,-468.53,126.0600000000004
1118,1.118000,14857,16471993,1369.4,-144.53,-1343.9399999999996
1119,1.119000,14858,16472993,1790.4,-84.53,-1712.9399999999996
1120,1.120000,14859,16473993,-1480.6,-303.53,-1544.9399999999996
1121,1.121000,14860,16474993,-4416.6,-407.53,-754.9399999999996
1122,1.121999,14861,16475992,-6527.6,-254.53,1070.0600000000004
1123,1.123000,14862,16476993,-4547.6,-299.53,2136.0600000000004
1124,1.124000,14863,16477993,-1319.6,140.47,2351.0600000000004
1125,1.125000,14864,16478993,2910.4,591.47,2911.0600000000004
1126,1.126000,14865,16479993,4820.4,856.47,1755.0600000000004
1127,1.127000,14866,16480993,5730.4,1031.47,90.0600000000004
1128,1.128000,14867,16481993,8200.4,523.47,486.0600000000004
1129,1.129000,14868,16482993,6124.4,-107.53,119.0600000000004
1130,1.130000,14869,16483993,3065.4,-385.53,-1362.9399999999996
1131,1.131000,14870,16484993,429.4,-483.53,-2465.9399999999996
1132,1.132000,14871,16485993,-1276.6,-351.53,-2860.9399999999996
1133,1.133000,14872,16486993,-1851.6,-192.53,-2748.9399999999996
1134,1.134000,14873,16487993,-953.6,-878.53,-1769.9399999999996
1135,1.135000,14874,16488993,-343.6,-915.53,-867.9399999999996
1136,1.136000,14875,16489993,-1155.6,-213.53,-244.9399999999996
1137,1.137000,14876,16490993,-1842.6,-110.53,1185.0600000000004
1138,1.138000,14877,16491993,-2123.6,460.47,2414.0600000000004
1139,1.139000,14878,16492993,-425.6,1042.47,2597.0600000000004
1140,1.140000,14879,16493993,-1057.6,1436.47,2625.0600000000004
1141,1.141000,14880,16494993,-629.6,888.47,3918.0600000000004
1142,1.141999,14881,16495992,-433.6,456.47,4090.0600000000004
1143,1.143000,14882,16496993,-6678.6,293.47,2315.0600000000004
1144,1.144000,14883,16497993,-10999.6,-172.53,230.0600000000004
1145,1.145000,14884,16498993,-10977.6,76.47,-1987.9399999999996
1146,1.146000,14885,16499993,-3421.6,-30.53,-2454.9399999999996
1147,1.147000,14886,16500993,6705.4,-376.53,-2737.9399999999996
1148,1.148000,14887,16501993,12881.4,-363.53,-2913.9399999999996
1149,1.149000,14888,16502993,11701.4,-112.53,-450.9399999999996
1150,1.150000,14889,16503993,3847.4,3.469999999999999,304.0600000000004
1151,1.151000,14890,16504993,-3052.6,428.47,-191.9399999999996
1152,1.152000,14891,16505993,-6516.6,96.47,856.0600000000004
1153,1.153000,14892,16506993,-4553.6,-339.53,695.0600000000004
1154,1.154000,14893,16507993,-979.6,-358.53,-696.9399999999996
1155,1.155000,14894,16508993,1247.4,-366.53,-1562.9399999999996
1156,1.156000,14895,16509993,549.4,-255.53,-1568.9399999999996
1157,1.157000,14896,16510993,-2703.6,-241.53,-1708.9399999999996
1158,1.157999,14897,16511992,-6137.6,-279.53,-426.9399999999996
1159,1.159000,14898,16512993,-5535.6,-361.53,1629.0600000000004
1160,1.160000,14899,16513993,-2203.6,-204.53,2357.0600000000004
1161,1.161000,14900,16514993,-543.6,152.47,2813.0600000000004
1162,1.162000,14901,16515993,4546.4,695.47,2957.0600000000004
1163,1.163000,14902,16516993,5952.4,1262.47,1140.0600000000004
1164,1.164000,14903,16517993,5157.4,868.47,72.0600000000004
1165,1.165000,14904,16518993,6307.4,272.47,679.0600000000004
1166,1.166000,14905,16519993,6422.4,-282.53,-169.9399999999996
1167,1.167000,14906,16520993,3020.4,-556.53,-1990.9399999999996
1168,1.168000,14907,16521993,-1509.6,-349.53,-2944.9399999999996
1169,1.169000,14908,16522993,-1178.6,-219.53,-2947.9399999999996
1170,1.170000,14909,16523993,-1435.6,-482.53,-2705.9399999999996
1171,1.171000,14910,16524993,-1231.6,-915.53,-1576.9399999999996
1172,1.172000,14911,16525993,-869.6,-679.53,-500.9399999999996
1173,1.173000,14912,16526993,-374.6,-370.53,366.0600000000004
1174,1.174000,14913,16527993,-1963.6,153.47,1709.0600000000004
1175,1.175000,14914,16528993,-2696.6,674.47,2472.0600000000004
1176,1.176000,14915,16529993,-908.6,1282.47,2432.0600000000004
1177,1.177000,14916,16530993,-289.6,1331.47,2955.0600000000004
1178,1.178000,14917,16531993,2352.4,632.47,4439.06
1179,1.179000,14918,16532993,-3794.6,738.47,3567.0600000000004
1180,1.180000,14919,16533993,-9432.6,-154.53,1619.0600000000004
1181,1.181000,14920,16534993,-11246.6,-371.53,-349.9399999999996
1182,1.182000,14921,16535993,-9954.6,450.47,-2445.9399999999996
1183,1.183000,14922,16536993,1016.4,-151.53,-2442.9399999999996
1184,1.184000,14923,16537993,9195.4,-631.53,-3172.9399999999996
1185,1.185000,14924,16538993,13630.4,-275.53,-2267.9399999999996
1186,1.186000,14925,16539993,9334.4,-13.530000000000001,80.0600000000004
1187,1.187000,14926,16540993,987.4,102.47,7.0600000000004
1188,1.188000,14927,16541993,-4878.6,456.47,54.0600000000004
1189,1.189000,14928,16542993,-6485.6,-108.53,1001.0600000000004
1190,1.190000,14929,16543993,-3093.6,-638.53,486.0600000000004
1191,1.191000,14930,16544993,418.4,-251.53,-1236.9399999999996
1192,1.192000,14931,16545993,1309.4,-148.53,-1749.9399999999996
1193,1.193000,14932,16546993,-1046.6,-187.53,-1647.9399999999996
1194,1.194000,14933,16547993,-3613.6,-278.53,-1358.9399999999996
1195,1.195000,14934,16548993,-5780.6,-334.53,432.0600000000004
1196,1.196000,14935,16549993,-4931.6,-310.53,2139.0600000000004
1197,1.197000,14936,16550993,-1522.6,44.47,2411.0600000000004
1198,1.198000,14937,16551993,856.4,451.47,2826.0600000000004
1199,1.199000,14938,16552993,3814.4,684.47,2716.0600000000004
1200,1.200000,14939,16553993,6209.4,1226.47,711.0600000000004
1201,1.201000,14940,16554993,7476.4,673.47,35.0600000000004
1202,1.202000,14941,16555993,6005.4,35.47,350.0600000000004
1203,1.203000,14942,16556993,4713.4,-351.53,-832.9399999999996
1204,1.204000,14943,16557993,1884.4,-580.53,-2535.9399999999996
1205,1.205000,14944,16558993,-1874.6,-360.53,-3055.9399999999996
1206,1.206000,14945,16559993,-1683.6,-237.53,-2835.9399999999996
1207,1.207000,14946,16560993,-557.6,-705.53,-2189.9399999999996
1208,1.208000,14947,16561993,-843.6,-899.53,-1136.9399999999996
1209,1.209000,14948,16562993,-1130.6,-346.53,-502.9399999999996
1210,1.210000,14949,16563993,-1138.6,-197.53,702.0600000000004
1211,1.211000,14950,16564993,-2703.6,221.47,2222.0600000000004
1212,1.212000,14951,16565993,-762.6,851.47,2652.0600000000004
1213,1.213000,14952,16566993,-642.6,1404.47,2526.0600000000004
1214,1.214000,14953,16567993,-685.6,1130.47,3777.0600000000004
1215,1.215000,14954,16568993,791.4,591.47,4470.06
1216,1.216000,14955,16569993,-4606.6,298.47,2795.0600000000004
1217,1.217000,14956,16570993,-10641.6,-112.53,916.0600000000004
1218,1.218000,14957,16571993,-13339.6,78.47,-1457.9399999999996
1219,1.219000,14958,16572993,-6360.6,104.47,-2755.9399999999996
1220,1.220000,14959,16573993,5136.4,-533.53,-2440.9399999999996
1221,1.221000,14960,16574993,11884.4,-473.53,-3264.9399999999996
1222,1.222000,14961,16575993,12745.4,12.469999999999999,-1454.9399999999996
1223,1.223000,14962,16576993,6361.4,-167.53,409.0600000000004
1224,1.224000,14963,16577993,-1307.6,347.47,-332.9399999999996
1225,1.225000,14964,16578993,-6082.6,373.47,493.0600000000004
1226,1.225999,14965,16579992,-5380.6,-451.53,1066.0600000000004
1227,1.227000,14966,16580993,-2646.6,-285.53,-65.9399999999996
1228,1.228000,14967,16581993,883.4,-271.53,-1325.9399999999996
1229,1.229000,14968,16582993,1656.4,-362.53,-1700.9399999999996
1230,1.230000,14969,16583993,-1483.6,-63.53,-1660.9399999999996
1231,1.231000,14970,16584993,-4649.6,-345.53,-807.9399999999996
1232,1.232000,14971,16585993,-5735.6,-519.53,1140.0600000000004
1233,1.233000,14972,16586993,-4257.6,-187.53,2133.0600000000004
1234,1.234000,14973,16587993,-1388.6,154.47,2586.0600000000004
1235,1.235000,14974,16588993,2537.4,581.47,3049.0600000000004
1236,1.236000,14975,16589993,3899.4,1004.47,1558.0600000000004
1237,1.237000,14976,16590993,6063.4,947.47,226.0600000000004
1238,1.238000,14977,16591993,8366.4,399.47,531.0600000000004
1239,1.239000,14978,16592993,6830.4,-152.53,54.0600000000004
1240,1.240000,14979,16593993,3448.4,-333.53,-1478.9399999999996
1241,1.241000,14980,16594993,93.39999999999998,-495.53,-2674.9399999999996
1242,1.242000,14981,16595993,-1336.6,-390.53,-2963.9399999999996
1243,1.243000,14982,16596993,-1957.6,-182.53,-2721.9399999999996
1244,1.244000,14983,16597993,-779.6,-957.53,-1729.9399999999996
1245,1.245000,14984,16598993,-371.6,-787.53,-1026.9399999999996
1246,1.246000,14985,16599993,-1715.6,-126.53,-302.9399999999996
1247,1.247000,14986,16600993,-1956.6,-80.53,1391.0600000000004
1248,1.248000,14987,16601993,-2198.6,292.47,2495.0600000000004
1249,1.249000,14988,16602993,-328.6,1035.47,2453.0600000000004
1250,1.250000,14989,16603993,-440.6,1519.47,2818.0600000000004
1251,1.251000,14990,16604993,-167.60000000000002,894.47,4149.06
1252,1.252000,14991,16605993,-424.6,544.47,4143.06
1253,1.253000,14992,16606993,-7501.6,220.47,2326.0600000000004
1254,1.254000,14993,16607993,-11213.6,-186.53,164.0600000000004
1255,1.255000,14994,16608993,-10834.6,81.47,-2043.9399999999996
1256,1.256000,14995,16609993,-3480.6,107.47,-2513.9399999999996
1257,1.257000,14996,16610993,6882.4,-382.53,-2900.9399999999996
1258,1.258000,14997,16611993,13364.4,-493.53,-2895.9399999999996
1259,1.259000,14998,16612993,12243.4,-251.53,-364.9399999999996
1260,1.260000,14999,16613993,3275.4,83.47,118.0600000000004
1261,1.261000,15000,16614993,-3779.6,381.47,-272.9399999999996
1262,1.262000,15001,16615993,-6587.6,-13.530000000000001,785.0600000000004
1263,1.263000,15002,16616993,-4759.6,-334.53,706.0600000000004
1264,1.264000,15003,16617993,-993.6,-405.53,-612.9399999999996
1265,1.265000,15004,16618993,1250.4,-213.53,-1599.9399999999996
1266,1.266000,15005,16619993,648.4,-98.53,-1603.9399999999996
1267,1.267000,15006,16620993,-1806.6,-323.53,-1579.9399999999996
1268,1.268000,15007,16621993,-5710.6,-356.53,-266.9399999999996
1269,1.269000,15008,16622993,-5802.6,-432.53,1799.0600000000004
1270,1.270000,15009,16623993,-3059.6,-47.53,2249.0600000000004
1271,1.271000,15010,16624993,-1336.6,321.47,2754.0600000000004
1272,1.272000,15011,16625993,4522.4,534.47,3042.0600000000004
1273,1.273000,15012,16626993,6532.4,1169.47,1029.0600000000004
1274,1.274000,15013,16627993,5957.4,988.47,-14.9399999999996
1275,1.275000,15014,16628993,6752.4,324.47,593.0600000000004
1276,1.276000,15015,16629993,6214.4,-422.53,-258.9399999999996
1277,1.277000,15016,16630993,2427.4,-578.53,-2034.9399999999996
1278,1.278000,15017,16631993,-1729.6,-370.53,-2936.9399999999996
1279,1.279000,15018,16632993,-965.6,-293.53,-2892.9399999999996
1280,1.280000,15019,16633993,-1286.6,-484.53,-2507.9399999999996
1281,1.281000,15020,16634993,-1005.6,-932.53,-1442.9399999999996
1282,1.282000,15021,16635993,-883.6,-608.53,-705.9399999999996
1283,1.283000,15022,16636993,-737.6,-284.53,143.0600000000004
1284,1.284000,15023,16637993,-1883.6,54.47,1872.0600000000004
1285,1.285000,15024,16638993,-2453.6,758.47,2666.0600000000004
1286,1.286000,15025,16639993,-741.6,1272.47,2506.0600000000004
1287,1.287000,15026,16640993,-312.6,1204.47,3063.0600000000004
1288,1.288000,15027,16641993,1527.4,801.47,4336.06
1289,1.289000,15028,16642993,-3686.6,759.47,3581.0600000000004
1290,1.290000,15029,16643993,-9203.6,-278.53,1682.0600000000004
1291,1.291000,15030,16644993,-11109.6,-223.53,-446.9399999999996
1292,1.291999,15031,16645992,-9532.6,394.47,-2445.9399999999996
1293,1.293000,15032,16646993,553.4,-303.53,-2635.9399999999996
1294,1.294000,15033,16647993,9052.4,-482.53,-3197.9399999999996
1295,1.295000,15034,16648993,13184.4,-405.53,-2301.9399999999996
1296,1.296000,15035,16649993,9551.4,-51.53,28.0600000000004
1297,1.297000,15036,16650993,1281.4,150.47,58.0600000000004
1298,1.297999,15037,16651992,-4709.6,345.47,93.0600000000004
1299,1.299000,15038,16652993,-6536.6,1.4699999999999989,1077.0600000000004
1300,1.300000,15039,16653993,-3524.6,-379.53,465.0600000000004
1301,1.301000,15040,16654993,805.4,-381.53,-1145.9399999999996
1302,1.302000,15041,16655993,1443.4,-147.53,-1725.9399999999996
1303,1.302999,15042,16656992,-567.6,-333.53,-1387.9399999999996
1304,1.304000,15043,16657993,-3644.6,-315.53,-1286.9399999999996
1305,1.305000,15044,16658993,-6653.6,-204.53,188.0600000000004
1306,1.305999,15045,16659992,-5320.6,-383.53,2091.0600000000004
1307,1.307000,15046,16660993,-1949.6,39.47,2219.0600000000004
1308,1.308000,15047,16661993,1235.4,412.47,2784.0600000000004
1309,1.309000,15048,16662993,4724.4,766.47,2862.0600000000004
1310,1.310000,15049,16663993,6460.4,1242.47,736.0600000000004
1311,1.311000,15050,16664993,7098.4,666.47,-23.9399999999996
1312,1.312000,15051,16665993,5587.4,62.47,396.0600000000004
1313,1.313000,15052,16666993,5042.4,-387.53,-512.9399999999996
1314,1.313999,15053,16667992,2353.4,-641.53,-2432.9399999999996
1315,1.315000,15054,16668993,-1950.6,-252.53,-3150.9399999999996
1316,1.316000,15055,16669993,-1445.6,-325.53,-2782.9399999999996
1317,1.317000,15056,16670993,-936.6,-626.53,-2412.9399999999996
1318,1.318000,15057,16671993,-939.6,-777.53,-1272.9399999999996
1319,1.319000,15058,16672993,-1216.6,-599.53,-452.9399999999996
1320,1.319999,15059,16673992,-1003.6,-131.53,623.0600000000004
1321,1.321000,15060,16674993,-2385.6,37.47,2259.0600000000004
1322,1.322000,15061,16675993,-1353.6,822.47,2708.0600000000004
1323,1.323000,15062,16676993,-766.6,1620.47,2542.0600000000004
1324,1.323999,15063,16677992,-893.6,1034.47,3463.0600000000004
1325,1.325000,15064,16678993,1179.4,579.47,4549.06
1326,1.326000,15065,16679993,-4518.6,448.47,3062.0600000000004
1327,1.327000,15066,16680993,-9873.6,-159.53,1027.0600000000004
1328,1.328000,15067,16681993,-13020.6,-22.53,-1202.9399999999996
1329,1.329000,15068,16682993,-7216.6,218.47,-2757.9399999999996
1330,1.330000,15069,16683993,4703.4,-457.53,-2630.9399999999996
1331,1.331000,15070,16684993,11545.4,-410.53,-3289.9399999999996
1332,1.332000,15071,16685993,12923.4,-133.53,-1459.9399999999996
1333,1.333000,15072,16686993,6421.4,-83.53,266.0600000000004
1334,1.334000,15073,16687993,-774.6,254.47,-213.9399999999996
1335,1.335000,15074,16688993,-5853.6,287.47,414.0600000000004
1336,1.336000,15075,16689993,-5695.6,-314.53,1130.0600000000004
1337,1.337000,15076,16690993,-2850.6,-465.53,143.0600000000004
1338,1.338000,15077,16691993,744.4,-178.53,-1498.9399999999996
1339,1.339000,15078,16692993,1698.4,-157.53,-1759.9399999999996
1340,1.340000,15079,16693993,-1248.6,-257.53,-1588.9399999999996
1341,1.341000,15080,16694993,-4388.6,-290.53,-982.9399999999996
1342,1.342000,15081,16695993,-5783.6,-404.53,1091.0600000000004
1343,1.343000,15082,16696993,-4247.6,-375.53,2371.0600000000004
1344,1.344000,15083,16697993,-2011.6,189.47,2470.0600000000004
1345,1.345000,15084,16698993,2115.4,631.47,2933.0600000000004
1346,1.346000,15085,16699993,3886.4,871.47,1882.0600000000004
1347,1.347000,15086,16700993,6241.4,995.47,395.0600000000004
1348,1.348000,15087,16701993,9085.4,438.47,321.0600000000004
1349,1.349000,15088,16702993,6648.4,-101.53,-139.9399999999996
1350,1.350000,15089,16703993,3334.4,-310.53,-1342.9399999999996
1351,1.351000,15090,16704993,-32.60000000000002,-502.53,-2549.9399999999996
1352,1.352000,15091,16705993,-1347.6,-460.53,-2871.9399999999996
1353,1.352999,15092,16706992,-1558.6,-212.53,-2705.9399999999996
1354,1.354000,15093,16707993,-934.6,-755.53,-1900.9399999999996
1355,1.355000,15094,16708993,-465.6,-954.53,-955.9399999999996
1356,1.356000,15095,16709993,-1839.6,-147.53,-239.9399999999996
1357,1.357000,15096,16710993,-1913.6,10.469999999999999,1180.0600000000004
1358,1.358000,15097,16711993,-2107.6,136.47,2329.0600000000004
1359,1.359000,15098,16712993,-386.6,986.47,2679.0600000000004
1360,1.360000,15099,16713993,-591.6,1552.47,2903.0600000000004
1361,1.361000,15100,16714993,-291.6,951.47,3933.0600000000004
1362,1.362000,15101,16715993,-374.6,510.47,4061.0600000000004
1363,1.363000,15102,16716993,-7233.6,290.47,2472.0600000000004
1364,1.364000,15103,16717993,-11145.6,-156.53,379.0600000000004
1365,1.365000,15104,16718993,-11078.6,122.47,-2268.9399999999996
1366,1.366000,15105,16719993,-3500.6,128.47,-2522.9399999999996
1367,1.367000,15106,16720993,6763.4,-599.53,-2559.9399999999996
1368,1.368000,15107,16721993,13624.4,-513.53,-3038.9399999999996
1369,1.369000,15108,16722993,12099.4,25.47,-681.9399999999996
1370,1.370000,15109,16723993,3650.4,-99.53,429.0600000000004
1371,1.371000,15110,16724993,-3785.6,495.47,-276.9399999999996
1372,1.372000,15111,16725993,-6885.6,172.47,583.0600000000004
1373,1.373000,15112,16726993,-4425.6,-663.53,968.0600000000004
1374,1.374000,15113,16727993,-1466.6,-251.53,-611.9399999999996
1375,1.375000,15114,16728993,1237.4,-130.53,-1571.9399999999996
1376,1.376000,15115,16729993,797.4,-366.53,-1488.9399999999996
1377,1.377000,15116,16730993,-1938.6,-110.53,-1669.9399999999996
1378,1.378000,15117,16731993,-5343.6,-108.53,-483.9399999999996
1379,1.379000,15118,16732993,-5379.6,-504.53,1852.0600000000004
1380,1.380000,15119,16733993,-3191.6,-79.53,2376.0600000000004
1381,1.381000,15120,16734993,-1566.6,154.47,2760.0600000000004
1382,1.382000,15121,16735993,3833.4,535.47,2985.0600000000004
1383,1.383000,15122,16736993,6016.4,1254.47,844.0600000000004
1384,1.384000,15123,16737993,6190.4,887.47,-61.9399999999996
1385,1.385000,15124,16738993,7330.4,165.47,678.0600000000004
1386,1.386000,15125,16739993,6498.4,-208.53,-378.9399999999996
1387,1.387000,15126,16740993,2532.4,-368.53,-2122.9399999999996
1388,1.387999,15127,16741992,-1885.6,-343.53,-2766.9399999999996
1389,1.389000,15128,16742993,-1090.6,-416.53,-2741.9399999999996
1390,1.389999,15129,16743992,-1014.6,-535.53,-2469.9399999999996
1391,1.391000,15130,16744993,-1131.6,-744.53,-1522.9399999999996
1392,1.392000,15131,16745993,-853.6,-704.53,-528.9399999999996
1393,1.393000,15132,16746993,-1310.6,-268.53,40.0600000000004
1394,1.394000,15133,16747993,-1985.6,180.47,1696.0600000000004
1395,1.395000,15134,16748993,-2062.6,590.47,2671.0600000000004
1396,1.396000,15135,16749993,-688.6,1193.47,2449.0600000000004
1397,1.397000,15136,16750993,-96.60000000000002,1303.47,3206.0600000000004
1398,1.398000,15137,16751993,1782.4,913.47,4156.06
1399,1.399000,15138,16752993,-3365.6,705.47,3553.0600000000004
1400,1.400000,15139,16753993,-9441.6,-248.53,1816.0600000000004
1401,1.401000,15140,16754993,-11083.6,-239.53,-236.9399999999996
1402,1.402000,15141,16755993,-10041.6,394.47,-2519.9399999999996
1403,1.403000,15142,16756993,378.4,-257.53,-2673.9399999999996
1404,1.404000,15143,16757993,9219.4,-527.53,-3118.9399999999996
1405,1.405000,15144,16758993,13209.4,-410.53,-2351.9399999999996
1406,1.406000,15145,16759993,9802.4,-266.53,17.0600000000004
1407,1.407000,15146,16760993,1116.4,281.47,-103.9399999999996
1408,1.408000,15147,16761993,-5008.6,456.47,191.0600000000004
1409,1.409000,15148,16762993,-6747.6,-92.53,1109.0600000000004
1410,1.410000,15149,16763993,-3556.6,-508.53,594.0600000000004
1411,1.411000,15150,16764993,393.4,-248.53,-1041.9399999999996
1412,1.411999,15151,16765992,1636.4,-77.53,-1641.9399999999996
1413,1.413000,15152,16766993,36.39999999999998,-278.53,-1487.9399999999996
1414,1.414000,15153,16767993,-2863.6,-176.53,-1472.9399999999996
1415,1.415000,15154,16768993,-5971.6,-214.53,271.0600000000004
1416,1.416000,15155,16769993,-5606.6,-431.53,2095.0600000000004
1417,1.417000,15156,16770993,-2455.6,-52.53,2352.0600000000004
1418,1.418000,15157,16771993,349.4,313.47,2777.0600000000004
1419,1.419000,15158,16772993,4158.4,718.47,2610.0600000000004
1420,1.420000,15159,16773993,6896.4,1220.47,558.0600000000004
1421,1.421000,15160,16774993,7773.4,639.47,-27.9399999999996
1422,1.422000,15161,16775993,5933.4,74.47,387.0600000000004
1423,1.423000,15162,16776993,4577.4,-282.53,-714.9399999999996
1424,1.424000,15163,16777993,1800.4,-599.53,-2259.9399999999996
1425,1.425000,15164,16778993,-2162.6,-342.53,-2872.9399999999996
1426,1.426000,15165,16779993,-1567.6,-133.53,-2771.9399999999996
1427,1.427000,15166,16780993,-554.6,-686.53,-2179.9399999999996
1428,1.428000,15167,16781993,-697.6,-952.53,-1085.9399999999996
1429,1.429000,15168,16782993,-1228.6,-282.53,-610.9399999999996
1430,1.430000,15169,16783993,-1027.6,-172.53,630.0600000000004
1431,1.431000,15170,16784993,-2376.6,-25.53,2100.0600000000004
1432,1.432000,15171,16785993,-1000.6,984.47,2482.0600000000004
1433,1.433000,15172,16786993,-423.6,1425.47,2748.0600000000004
1434,1.434000,15173,16787993,-928.6,998.47,3585.0600000000004
1435,1.435000,15174,16788993,484.4,741.47,4223.06
1436,1.436000,15175,16789993,-5122.6,468.47,2814.0600000000004
1437,1.437000,15176,16790993,-9836.6,-271.53,1091.0600000000004
1438,1.438000,15177,16791993,-12337.6,89.47,-1045.9399999999996
1439,1.439000,15178,16792993,-6621.6,225.47,-2635.9399999999996
1440,1.440000,15179,16793993,4914.4,-529.53,-2533.9399999999996
1441,1.441000,15180,16794993,11126.4,-367.53,-3183.9399999999996
1442,1.442000,15181,16795993,12707.4,-100.53,-1499.9399999999996
1443,1.443000,15182,16796993,6108.4,18.47,341.0600000000004
1444,1.444000,15183,16797993,-1189.6,127.47,-153.9399999999996
1445,1.445000,15184,16798993,-5442.6,202.47,324.0600000000004
1446,1.446000,15185,16799993,-5633.6,-249.53,999.0600000000004
1447,1.447000,15186,16800993,-2545.6,-487.53,40.0600000000004
1448,1.447999,15187,16801992,1054.4,-109.53,-1582.9399999999996
1449,1.449000,15188,16802993,1942.4,-271.53,-1716.9399999999996
1450,1.450000,15189,16803993,-1236.6,-322.53,-1618.9399999999996
1451,1.451000,15190,16804993,-4875.6,-146.53,-985.9399999999996
1452,1.452000,15191,16805993,-6358.6,-486.53,1205.0600000000004
1453,1.453000,15192,16806993,-4146.6,-366.53,2217.0600000000004
1454,1.454000,15193,16807993,-1496.6,235.47,2390.0600000000004
1455,1.455000,15194,16808993,2654.4,475.47,3130.0600000000004
1456,1.456000,15195,16809993,4135.4,932.47,1769.0600000000004
1457,1.457000,15196,16810993,5668.4,1034.47,91.0600000000004
1458,1.458000,15197,16811993,8550.4,426.47,523.0600000000004
1459,1.458999,15198,16812992,6408.4,-53.53,142.0600000000004
1460,1.460000,15199,16813993,3634.4,-379.53,-1311.9399999999996
1461,1.461000,15200,16814993,336.4,-477.53,-2420.9399999999996
1462,1.462000,15201,16815993,-1629.6,-261.53,-2879.9399999999996
1463,1.463000,15202,16816993,-2099.6,-375.53,-2755.9399999999996
1464,1.464000,15203,16817993,-810.6,-854.53,-1875.9399999999996
1465,1.464999,15204,16818992,151.39999999999998,-725.53,-1046.9399999999996
1466,1.466000,15205,16819993,-797.6,-373.53,-373.9399999999996
1467,1.467000,15206,16820993,-1997.6,24.47,1118.0600000000004
1468,1.468000,15207,16821993,-2591.6,175.47,2571.0600000000004
1469,1.469000,15208,16822993,-653.6,1015.47,2507.0600000000004
1470,1.470000,15209,16823993,-1656.6,1635.47,2609.0600000000004
1471,1.471000,15210,16824993,-705.6,759.47,4120.06
1472,1.472000,15211,16825993,247.39999999999998,556.47,4065.0600000000004
1473,1.473000,15212,16826993,-6074.6,211.47,2251.0600000000004
1474,1.474000,15213,16827993,-11171.6,-30.53,296.0600000000004
1475,1.474999,15214,16828992,-11224.6,148.47,-1805.9399999999996
1476,1.476000,15215,16829993,-3633.6,-61.53,-2507.9399999999996
1477,1.477000,15216,16830993,6403.4,-498.53,-2734.9399999999996
1478,1.478000,15217,16831993,12988.4,-409.53,-2845.9399999999996
1479,1.479000,15218,16832993,12409.4,43.47,-612.9399999999996
1480,1.480000,15219,16833993,4164.4,16.47,165.0600000000004
1481,1.481000,15220,16834993,-3594.6,362.47,-456.9399999999996
1482,1.482000,15221,16835993,-6398.6,94.47,708.0600000000004
1483,1.482999,15222,16836992,-4672.6,-499.53,792.0600000000004
1484,1.484000,15223,16837993,-1503.6,-356.53,-745.9399999999996
1485,1.485000,15224,16838993,908.4,-184.53,-1489.9399999999996
1486,1.486000,15225,16839993,690.4,-385.53,-1359.9399999999996
1487,1.487000,15226,16840993,-2210.6,-144.53,-1687.9399999999996
1488,1.488000,15227,16841993,-5576.6,-67.53,-526.9399999999996
1489,1.489000,15228,16842993,-4889.6,-513.53,1860.0600000000004
1490,1.490000,15229,16843993,-2308.6,-195.53,2365.0600000000004
1491,1.491000,15230,16844993,-1326.6,379.47,2595.0600000000004
1492,1.492000,15231,16845993,3870.4,578.47,3134.0600000000004
1493,1.493000,15232,16846993,5715.4,1133.47,1180.0600000000004
1494,1.494000,15233,16847993,5317.4,935.47,-108.9399999999996
1495,1.495000,15234,16848993,6941.4,234.47,681.0600000000004
1496,1.496000,15235,16849993,6767.4,-352.53,-133.9399999999996
1497,1.497000,15236,16850993,2912.4,-467.53,-2266.9399999999996
1498,1.498000,15237,16851993,-1897.6,-253.53,-2984.9399999999996
1499,1.499000,15238,16852993,-1221.6,-427.53,-2718.9399999999996
1500,1.500000,15239,16853993,-1206.6,-475.53,-2633.9399999999996
1501,1.501000,15240,16854993,-1062.6,-757.53,-1529.9399999999996
1502,1.502000,15241,16855993,-471.6,-883.53,-396.9399999999996
1503,1.503000,15242,16856993,-625.6,-163.53,151.0600000000004
1504,1.504000,15243,16857993,-2184.6,241.47,1647.0600000000004
1505,1.505000,15244,16858993,-2675.6,652.47,2711.0600000000004
1506,1.506000,15245,16859993,-874.6,1247.47,2501.0600000000004
1507,1.507000,15246,16860993,-510.6,1246.47,3094.0600000000004
1508,1.508000,15247,16861993,1862.4,692.47,4470.06
1509,1.509000,15248,16862993,-4144.6,694.47,3367.0600000000004
1510,1.510000,15249,16863993,-9546.6,-88.53,1481.0600000000004
1511,1.511000,15250,16864993,-10979.6,-467.53,-248.9399999999996
1512,1.512000,15251,16865993,-9577.6,631.47,-2621.9399999999996
1513,1.513000,15252,16866993,1362.4,-222.53,-2578.9399999999996
1514,1.514000,15253,16867993,9482.4,-695.53,-2957.9399999999996
1515,1.514999,15254,16868992,13384.4,-163.53,-2245.9399999999996
1516,1.516000,15255,16869993,9192.4,-49.53,90.0600000000004
1517,1.517000,15256,16870993,1264.4,12.469999999999999,11.0600000000004
1518,1.518000,15257,16871993,-4998.6,372.47,55.0600000000004
1519,1.519000,15258,16872993,-6262.6,-147.53,963.0600000000004
1520,1.520000,15259,16873993,-3185.6,-555.53,236.0600000000004
1521,1.521000,15260,16874993,253.39999999999998,-153.53,-1201.9399999999996
1522,1.522000,15261,16875993,1291.4,-308.53,-1650.9399999999996
1523,1.523000,15262,16876993,-1388.6,-263.53,-1648.9399999999996
1524,1.524000,15263,16877993,-3633.6,-172.53,-1227.9399999999996
1525,1.525000,15264,16878993,-5735.6,-313.53,412.0600000000004
1526,1.526000,15265,16879993,-4395.6,-447.53,2318.0600000000004
1527,1.527000,15266,16880993,-1480.6,68.47,2618.0600000000004
1528,1.528000,15267,16881993,1023.4,468.47,2739.0600000000004
1529,1.528999,15268,16882992,3829.4,907.47,2608.0600000000004
1530,1.530000,15269,16883993,5911.4,1195.47,699.0600000000004
1531,1.531000,15270,16884993,7993.4,542.47,0.06000000000040018
1532,1.532000,15271,16885993,6112.4,29.47,355.0600000000004
1533,1.532999,15272,16886992,4361.4,-370.53,-811.9399999999996
1534,1.534000,15273,16887993,1642.4,-562.53,-2580.9399999999996
1535,1.535000,15274,16888993,-2187.6,-370.53,-3160.9399999999996
1536,1.536000,15275,16889993,-1743.6,-216.53,-2711.9399999999996
1537,1.537000,15276,16890993,-534.6,-776.53,-2246.9399999999996
1538,1.538000,15277,16891993,-306.6,-994.53,-1230.9399999999996
1539,1.539000,15278,16892993,-1015.6,-323.53,-297.9399999999996
1540,1.540000,15279,16893993,-1456.6,-125.53,805.0600000000004
1541,1.541000,15280,16894993,-2891.6,162.47,2109.0600000000004
1542,1.542000,15281,16895993,-1136.6,959.47,2615.0600000000004
1543,1.542999,15282,16896992,-750.6,1569.47,2685.0600000000004
1544,1.544000,15283,16897993,-791.6,1055.47,3721.0600000000004
1545,1.545000,15284,16898993,563.4,605.47,4529.06
1546,1.546000,15285,16899993,-4445.6,303.47,2764.0600000000004
1547,1.547000,15286,16900993,-10306.6,-179.53,839.0600000000004
1548,1.548000,15287,16901993,-13351.6,230.47,-1317.9399999999996
1549,1.549000,15288,16902993,-5541.6,-4.530000000000001,-2569.9399999999996
1550,1.550000,15289,16903993,5542.4,-453.53,-2604.9399999999996
1551,1.551000,15290,16904993,12199.4,-467.53,-3231.9399999999996
1552,1.552000,15291,16905993,12465.4,-106.53,-1314.9399999999996
1553,1.553000,15292,16906993,5324.4,-81.53,153.0600000000004
1554,1.554000,15293,16907993,-1753.6,102.47,-317.9399999999996
1555,1.555000,15294,16908993,-6095.6,281.47,359.0600000000004
1556,1.556000,15295,16909993,-5293.6,-392.53,850.0600000000004
1557,1.557000,15296,16910993,-2199.6,-447.53,-112.9399999999996
1558,1.558000,15297,16911993,1283.4,-131.53,-1456.9399999999996
1559,1.558999,15298,16912992,1537.4,-80.53,-1684.9399999999996
1560,1.560000,15299,16913993,-1498.6,-249.53,-1552.9399999999996
1561,1.561000,15300,16914993,-4775.6,-365.53,-513.9399999999996
1562,1.562000,15301,16915993,-5846.6,-314.53,1498.0600000000004
1563,1.563000,15302,16916993,-3948.6,-217.53,2248.0600000000004
1564,1.564000,15303,16917993,-1338.6,169.47,2544.0600000000004
1565,1.565000,15304,16918993,2839.4,647.47,2979.0600000000004
1566,1.566000,15305,16919993,4584.4,1024.47,1462.0600000000004
1567,1.566999,15306,16920992,5710.4,893.47,101.0600000000004
1568,1.568000,15307,16921993,7852.4,292.47,487.0600000000004
1569,1.568999,15308,16922992,6634.4,-168.53,-122.9399999999996
1570,1.570000,15309,16923993,3002.4,-279.53,-1691.9399999999996
1571,1.571000,15310,16924993,-351.6,-398.53,-2552.9399999999996
1572,1.572000,15311,16925993,-1023.6,-373.53,-2842.9399999999996
1573,1.573000,15312,16926993,-1371.6,-292.53,-2673.9399999999996
1574,1.574000,15313,16927993,-1068.6,-713.53,-1743.9399999999996
1575,1.575000,15314,16928993,-213.60000000000002,-965.53,-682.9399999999996
1576,1.576000,15315,16929993,-1386.6,-104.53,-129.9399999999996
1577,1.577000,15316,16930993,-2202.6,163.47,1275.0600000000004
1578,1.578000,15317,16931993,-2013.6,260.47,2579.0600000000004
1579,1.579000,15318,16932993,-1143.6,1166.47,2509.0600000000004
1580,1.580000,15319,16933993,-672.6,1318.47,2855.0600000000004
1581,1.581000,15320,16934993,704.4,873.47,4051.0600000000004
1582,1.582000,15321,16935993,-1519.6,606.47,3921.0600000000004
1583,1.583000,15322,16936993,-8763.6,199.47,2071.0600000000004
1584,1.584000,15323,16937993,-10810.6,-309.53,103.0600000000004
1585,1.585000,15324,16938993,-10128.6,270.47,-2209.9399999999996
1586,1.586000,15325,16939993,-2338.6,-42.53,-2492.9399999999996
1587,1.587000,15326,16940993,8113.4,-682.53,-2707.9399999999996
1588,1.588000,15327,16941993,13298.4,-190.53,-2801.9399999999996
1589,1.589000,15328,16942993,11415.4,-252.53,-318.9399999999996
1590,1.590000,15329,16943993,2578.4,172.47,108.0600000000004
1591,1.591000,15330,16944993,-4043.6,440.47,-216.9399999999996
1592,1.592000,15331,16945993,-6644.6,-191.53,864.0600000000004
1593,1.593000,15332,16946993,-4522.6,-356.53,628.0600000000004
1594,1.594000,15333,16947993,-395.6,-471.53,-842.9399999999996
1595,1.595000,15334,16948993,1159.4,-368.53,-1499.9399999999996
1596,1.596000,15335,16949993,-2.6000000000000227,-85.53,-1518.9399999999996
1597,1.596999,15336,16950992,-2314.6,-200.53,-1606.9399999999996
1598,1.598000,15337,16951993,-5608.6,-362.53,-288.9399999999996
1599,1.599000,15338,16952993,-5179.6,-405.53,1923.0600000000004
1600,1.600000,15339,16953993,-2097.6,-48.53,2325.0600000000004
1601,1.601000,15340,16954993,-872.6,327.47,2674.0600000000004
1602,1.602000,15341,16955993,4163.4,463.47,3094.0600000000004
1603,1.603000,15342,16956993,6430.4,1215.47,855.0600000000004
1604,1.604000,15343,16957993,6142.4,943.47,-105.9399999999996
1605,1.605000,15344,16958993,6607.4,15.469999999999999,771.0600000000004
1606,1.606000,15345,16959993,6012.4,-368.53,-330.9399999999996
1607,1.606999,15346,16960992,2329.4,-390.53,-2462.9399999999996
1608,1.608000,15347,16961993,-2188.6,-376.53,-2912.9399999999996
1609,1.609000,15348,16962993,-1229.6,-389.53,-2678.9399999999996
1610,1.610000,15349,16963993,-857.6,-494.53,-2579.9399999999996
1611,1.611000,15350,16964993,-641.6,-974.53,-1325.9399999999996
1612,1.612000,15351,16965993,-1415.6,-504.53,-530.9399999999996
1613,1.613000,15352,16966993,-1157.6,-168.53,348.0600000000004
1614,1.614000,15353,16967993,-2529.6,-82.53,1931.0600000000004
1615,1.615000,15354,16968993,-2291.6,832.47,2565.0600000000004
1616,1.616000,15355,16969993,-388.6,1406.47,2575.0600000000004
1617,1.617000,15356,16970993,-405.6,1227.47,3267.0600000000004
1618,1.618000,15357,16971993,2007.4,722.47,4481.06
1619,1.619000,15358,16972993,-4352.6,642.47,3219.0600000000004
1620,1.620000,15359,16973993,-9351.6,-216.53,1492.0600000000004
1621,1.621000,15360,16974993,-12480.6,-36.53,-612.9399999999996
1622,1.621999,15361,16975992,-8898.6,416.47,-2789.9399999999996
1623,1.623000,15362,16976993,3666.4,-456.53,-2501.9399999999996
1624,1.624000,15363,16977993,10565.4,-477.53,-3108.9399999999996
1625,1.625000,15364,16978993,13137.4,-218.53,-2141.9399999999996
1626,1.626000,15365,16979993,7693.4,-71.53,-32.9399999999996
1627,1.627000,15366,16980993,-247.60000000000002,26.47,-34.9399999999996
1628,1.628000,15367,16981993,-5929.6,367.47,316.0600000000004
1629,1.629000,15368,16982993,-6116.6,-265.53,1078.0600000000004
1630,1.630000,15369,16983993,-3115.6,-478.53,80.0600000000004
1631,1.630999,15370,16984992,841.4,-28.53,-1317.9399999999996
1632,1.632000,15371,16985993,2506.4,-212.53,-1515.9399999999996
1633,1.633000,15372,16986993,-684.6,-168.53,-1542.9399999999996
1634,1.634000,15373,16987993,-4129.6,-177.53,-1007.9399999999996
1635,1.635000,15374,16988993,-6290.6,-392.53,739.0600000000004
1636,1.636000,15375,16989993,-5106.6,-237.53,2174.0600000000004
1637,1.637000,15376,16990993,-1787.6,101.47,2427.0600000000004
1638,1.638000,15377,16991993,2379.4,393.47,2857.0600000000004
1639,1.639000,15378,16992993,3849.4,902.47,2236.0600000000004
1640,1.640000,15379,16993993,5929.4,1025.47,411.0600000000004
1641,1.641000,15380,16994993,8431.4,436.47,124.0600000000004
1642,1.642000,15381,16995993,5750.4,-18.53,74.0600000000004
1643,1.643000,15382,16996993,3866.4,-377.53,-1058.9399999999996
1644,1.644000,15383,16997993,1231.4,-578.53,-2508.9399999999996
1645,1.645000,15384,16998993,-1501.6,-311.53,-3105.9399999999996
1646,1.646000,15385,16999993,-1829.6,-285.53,-2671.9399999999996
1647,1.647000,15386,17000993,-643.6,-764.53,-1928.9399999999996
1648,1.648000,15387,17001993,-286.6,-819.53,-1018.9399999999996
1649,1.649000,15388,17002993,-1336.6,-219.53,-261.9399999999996
1650,1.650000,15389,17003993,-1909.6,-151.53,942.0600000000004
1651,1.651000,15390,17004993,-2467.6,141.47,2324.0600000000004
1652,1.652000,15391,17005993,-460.6,956.47,2658.0600000000004
1653,1.653000,15392,17006993,-920.6,1498.47,2599.0600000000004
1654,1.654000,15393,17007993,-659.6,862.47,3922.0600000000004
1655,1.655000,15394,17008993,19.399999999999977,585.47,4193.06
1656,1.656000,15395,17009993,-5747.6,282.47,2480.0600000000004
1657,1.657000,15396,17010993,-11161.6,-127.53,664.0600000000004
1658,1.658000,15397,17011993,-12323.6,193.47,-1833.9399999999996
1659,1.659000,15398,17012993,-4336.6,4.469999999999999,-2541.9399999999996
1660,1.660000,15399,17013993,6281.4,-579.53,-2434.9399999999996
1661,1.661000,15400,17014993,13069.4,-393.53,-3100.9399999999996
1662,1.662000,15401,17015993,12343.4,228.47,-953.9399999999996
1663,1.663000,15402,17016993,4552.4,-199.53,331.0600000000004
1664,1.664000,15403,17017993,-2863.6,326.47,-325.9399999999996
1665,1.665000,15404,17018993,-6636.6,84.47,566.0600000000004
1666,1.666000,15405,17019993,-4827.6,-610.53,996.0600000000004
1667,1.666999,15406,17020992,-1963.6,-199.53,-496.9399999999996
1668,1.668000,15407,17021993,1466.4,-179.53,-1630.9399999999996
1669,1.669000,15408,17022993,1697.4,-235.53,-1450.9399999999996
1670,1.670000,15409,17023993,-1816.6,-183.53,-1649.9399999999996
1671,1.671000,15410,17024993,-5340.6,-319.53,-529.9399999999996
1672,1.672000,15411,17025993,-6177.6,-433.53,1624.0600000000004
1673,1.673000,15412,17026993,-3836.6,-26.53,2139.0600000000004
1674,1.674000,15413,17027993,-1135.6,202.47,2529.0600000000004
1675,1.675000,15414,17028993,3941.4,472.47,3184.0600000000004
1676,1.676000,15415,17029993,5807.4,1061.47,1306.0600000000004
1677,1.677000,15416,17030993,5612.4,1009.47,-153.9399999999996
1678,1.678000,15417,17031993,6959.4,326.47,613.0600000000004
1679,1.679000,15418,17032993,6578.4,-315.53,-55.9399999999996
1680,1.680000,15419,17033993,2956.4,-336.53,-1891.9399999999996
1681,1.681000,15420,17034993,-866.6,-408.53,-2620.9399999999996
1682,1.682000,15421,17035993,-936.6,-432.53,-2793.9399999999996
1683,1.683000,15422,17036993,-1522.6,-343.53,-2726.9399999999996
1684,1.684000,15423,17037993,-1166.6,-916.53,-1465.9399999999996
1685,1.685000,15424,17038993,-619.6,-747.53,-762.9399999999996
1686,1.686000,15425,17039993,-1009.6,1.4699999999999989,-164.9399999999996
1687,1.687000,15426,17040993,-1983.6,-169.53,1576.0600000000004
1688,1.688000,15427,17041993,-2165.6,606.47,2471.0600000000004
1689,1.689000,15428,17042993,-513.6,1286.47,2440.0600000000004
1690,1.690000,15429,17043993,-348.6,1107.47,3017.0600000000004
1691,1.691000,15430,17044993,614.4,918.47,4208.06
1692,1.692000,15431,17045993,-2674.6,643.47,3629.0600000000004
1693,1.693000,15432,17046993,-9380.6,94.47,1712.0600000000004
1694,1.694000,15433,17047993,-10667.6,-364.53,23.0600000000004
1695,1.695000,15434,17048993,-9145.6,218.47,-2213.9399999999996
1696,1.696000,15435,17049993,-1325.6,64.47,-2643.9399999999996
1697,1.697000,15436,17050993,8239.4,-558.53,-2807.9399999999996
1698,1.698000,15437,17051993,13039.4,-450.53,-2395.9399999999996
1699,1.699000,15438,17052993,10610.4,13.469999999999999,-35.9399999999996
1700,1.699999,15439,17053992,2364.4,63.47,81.0600000000004
1701,1.701000,15440,17054993,-4361.6,375.47,-157.9399999999996
1702,1.702000,15441,17055993,-6838.6,-3.530000000000001,898.0600000000004
1703,1.703000,15442,17056993,-3628.6,-606.53,471.0600000000004
1704,1.704000,15443,17057993,197.39999999999998,-251.53,-1130.9399999999996
1705,1.705000,15444,17058993,984.4,-147.53,-1658.9399999999996
1706,1.706000,15445,17059993,-183.60000000000002,-375.53,-1459.9399999999996
1707,1.706999,15446,17060992,-2942.6,-204.53,-1579.9399999999996
1708,1.708000,15447,17061993,-6040.6,-243.53,59.0600000000004
1709,1.709000,15448,17062993,-5324.6,-387.53,2177.0600000000004
1710,1.710000,15449,17063993,-2250.6,51.47,2310.0600000000004
1711,1.711000,15450,17064993,482.4,345.47,2772.0600000000004
1712,1.712000,15451,17065993,4335.4,603.47,2967.0600000000004
1713,1.713000,15452,17066993,6630.4,1231.47,820.0600000000004
1714,1.714000,15453,17067993,6784.4,833.47,-61.9399999999996
1715,1.715000,15454,17068993,5848.4,98.47,644.0600000000004
1716,1.716000,15455,17069993,5359.4,-393.53,-433.9399999999996
1717,1.717000,15456,17070993,2045.4,-580.53,-2471.9399999999996
1718,1.718000,15457,17071993,-1906.6,-308.53,-2895.9399999999996
1719,1.719000,15458,17072993,-1525.6,-261.53,-2682.9399999999996
1720,1.720000,15459,17073993,-707.6,-588.53,-2559.9399999999996
1721,1.721000,15460,17074993,-588.6,-937.53,-1394.9399999999996
1722,1.722000,15461,17075993,-1154.6,-419.53,-556.9399999999996
1723,1.722999,15462,17076992,-631.6,-102.53,494.0600000000004
1724,1.724000,15463,17077993,-2287.6,-11.530000000000001,2181.0600000000004
1725,1.725000,15464,17078993,-2251.6,867.47,2409.0600000000004
1726,1.726000,15465,17079993,-784.6,1402.47,2452.0600000000004
1727,1.727000,15466,17080993,-560.6,1052.47,3613.0600000000004
1728,1.728000,15467,17081993,972.4,814.47,4578.06
1729,1.729000,15468,17082993,-4452.6,410.47,3030.0600000000004
1730,1.730000,15469,17083993,-9305.6,-229.53,1037.0600000000004
1731,1.731000,15470,17084993,-12642.6,191.47,-673.9399999999996
1732,1.732000,15471,17085993,-7886.6,166.47,-2407.9399999999996
1733,1.733000,15472,17086993,4270.4,-408.53,-2560.9399999999996
1734,1.734000,15473,17087993,10828.4,-419.53,-3218.9399999999996
1735,1.735000,15474,17088993,12817.4,-300.53,-1655.9399999999996
1736,1.736000,15475,17089993,7157.4,45.47,296.0600000000004
1737,1.737000,15476,17090993,-274.6,61.47,-198.9399999999996
1738,1.738000,15477,17091993,-5740.6,338.47,19.0600000000004
1739,1.739000,15478,17092993,-5664.6,-214.53,716.0600000000004
1740,1.740000,15479,17093993,-2146.6,-723.53,133.0600000000004
1741,1.741000,15480,17094993,647.4,-96.53,-1337.9399999999996
1742,1.741999,15481,17095992,1304.4,-174.53,-1681.9399999999996
1743,1.743000,15482,17096993,-1639.6,-370.53,-1533.9399999999996
1744,1.744000,15483,17097993,-5023.6,-16.53,-1048.9399999999996
1745,1.745000,15484,17098993,-5995.6,-390.53,1145.0600000000004
1746,1.746000,15485,17099993,-3975.6,-494.53,2379.0600000000004
1747,1.747000,15486,17100993,-796.6,242.47,2327.0600000000004
1748,1.748000,15487,17101993,2908.4,641.47,3003.0600000000004
1749,1.749000,15488,17102993,3330.4,901.47,2191.0600000000004
1750,1.750000,15489,17103993,5229.4,997.47,347.0600000000004
1751,1.751000,15490,17104993,8138.4,441.47,273.0600000000004
1752,1.752000,15491,17105993,5965.4,-5.530000000000001,157.0600000000004
1753,1.753000,15492,17106993,4101.4,-446.53,-1211.9399999999996
1754,1.754000,15493,17107993,1205.4,-625.53,-2638.9399999999996
1755,1.755000,15494,17108993,-1443.6,-238.53,-3049.9399999999996
1756,1.756000,15495,17109993,-1823.6,-179.53,-2837.9399999999996
1757,1.757000,15496,17110993,-786.6,-819.53,-2095.9399999999996
1758,1.758000,15497,17111993,45.39999999999998,-1041.53,-848.9399999999996
1759,1.759000,15498,17112993,-1308.6,-70.53,-162.9399999999996
1760,1.760000,15499,17113993,-1797.6,-24.53,955.0600000000004
1761,1.761000,15500,17114993,-2615.6,-21.53,2306.0600000000004
1762,1.762000,15501,17115993,-1180.6,1099.47,2897.0600000000004
1763,1.763000,15502,17116993,-1202.6,1704.47,2657.0600000000004
1764,1.764000,15503,17117993,-520.6,799.47,3575.0600000000004
1765,1.764999,15504,17118992,34.39999999999998,412.47,4379.06
1766,1.766000,15505,17119993,-6459.6,442.47,2611.0600000000004
1767,1.767000,15506,17120993,-10758.6,-158.53,467.0600000000004
1768,1.768000,15507,17121993,-11558.6,99.47,-1907.9399999999996
1769,1.769000,15508,17122993,-4053.6,29.47,-2451.9399999999996
1770,1.770000,15509,17123993,6664.4,-401.53,-2584.9399999999996
1771,1.771000,15510,17124993,13472.4,-348.53,-2982.9399999999996
1772,1.772000,15511,17125993,12003.4,1.4699999999999989,-879.9399999999996
1773,1.773000,15512,17126993,3938.4,-9.530000000000001,-4.9399999999996
1774,1.774000,15513,17127993,-2723.6,180.47,-162.9399999999996
1775,1.775000,15514,17128993,-6497.6,126.47,521.0600000000004
1776,1.776000,15515,17129993,-5196.6,-440.53,642.0600000000004
1777,1.777000,15516,17130993,-1766.6,-339.53,-599.9399999999996
1778,1.778000,15517,17131993,1481.4,-287.53,-1535.9399999999996
1779,1.779000,15518,17132993,1045.4,-243.53,-1427.9399999999996
1780,1.780000,15519,17133993,-2158.6,-173.53,-1586.9399999999996
1781,1.781000,15520,17134993,-5409.6,-175.53,-462.9399999999996
1782,1.782000,15521,17135993,-5237.6,-411.53,1784.0600000000004
1783,1.783000,15522,17136993,-3121.6,-178.53,2557.0600000000004
1784,1.784000,15523,17137993,-1624.6,200.47,2744.0600000000004
1785,1.785000,15524,17138993,3870.4,566.47,3048.0600000000004
1786,1.786000,15525,17139993,5640.4,1238.47,1175.0600000000004
1787,1.787000,15526,17140993,5781.4,904.47,-13.9399999999996
1788,1.788000,15527,17141993,7395.4,221.47,524.0600000000004
1789,1.789000,15528,17142993,6699.4,-353.53,-337.9399999999996
1790,1.790000,15529,17143993,2647.4,-394.53,-2100.9399999999996
1791,1.791000,15530,17144993,-1889.6,-337.53,-2947.9399999999996
1792,1.792000,15531,17145993,-947.6,-509.53,-2763.9399999999996
1793,1.793000,15532,17146993,-651.6,-411.53,-2648.9399999999996
1794,1.794000,15533,17147993,-812.6,-634.53,-1677.9399999999996
1795,1.794999,15534,17148992,-920.6,-916.53,-462.9399999999996
1796,1.796000,15535,17149993,-1047.6,-194.53,138.0600000000004
1797,1.797000,15536,17150993,-2348.6,181.47,1605.0600000000004
1798,1.798000,15537,17151993,-2563.6,665.47,2482.0600000000004
1799,1.799000,15538,17152993,-841.6,1174.47,2545.0600000000004
1800,1.800000,15539,17153993,41.39999999999998,1096.47,3315.0600000000004
1801,1.801000,15540,17154993,2184.4,926.47,4253.06
1802,1.801999,15541,17155992,-4090.6,766.47,3407.0600000000004
1803,1.803000,15542,17156993,-9870.6,-189.53,1770.0600000000004
1804,1.804000,15543,17157993,-11615.6,-253.53,-116.9399999999996
1805,1.805000,15544,17158993,-9948.6,491.47,-2419.9399999999996
1806,1.806000,15545,17159993,1332.4,-376.53,-2508.9399999999996
1807,1.807000,15546,17160993,9693.4,-564.53,-3066.9399999999996
1808,1.807999,15547,17161992,13806.4,-418.53,-2309.9399999999996
1809,1.809000,15548,17162993,9219.4,24.47,-121.9399999999996
1810,1.810000,15549,17163993,1074.4,184.47,-249.9399999999996
1811,1.811000,15550,17164993,-4666.6,214.47,-3.9399999999996
1812,1.812000,15551,17165993,-6876.6,22.47,905.0600000000004
1813,1.813000,15552,17166993,-3621.6,-552.53,424.0600000000004
1814,1.814000,15553,17167993,166.39999999999998,-193.53,-1109.9399999999996
1815,1.815000,15554,17168993,1792.4,-185.53,-1519.9399999999996
1816,1.816000,15555,17169993,-490.6,-298.53,-1489.9399999999996
1817,1.817000,15556,17170993,-3109.6,-191.53,-1230.9399999999996
1818,1.818000,15557,17171993,-6114.6,-279.53,494.0600000000004
1819,1.819000,15558,17172993,-4983.6,-360.53,1912.0600000000004
1820,1.820000,15559,17173993,-1699.6,95.47,2311.0600000000004
1821,1.821000,15560,17174993,880.4,331.47,2962.0600000000004
1822,1.822000,15561,17175993,3815.4,705.47,2588.0600000000004
1823,1.822999,15562,17176992,5559.4,1229.47,495.0600000000004
1824,1.824000,15563,17177993,7672.4,613.47,74.0600000000004
1825,1.825000,15564,17178993,6019.4,-29.53,351.0600000000004
1826,1.826000,15565,17179993,4780.4,-444.53,-810.9399999999996
1827,1.827000,15566,17180993,2055.4,-548.53,-2399.9399999999996
1828,1.828000,15567,17181993,-1899.6,-322.53,-3085.9399999999996
1829,1.829000,15568,17182993,-1806.6,-178.53,-2866.9399999999996
1830,1.830000,15569,17183993,-207.60000000000002,-798.53,-2091.9399999999996
1831,1.831000,15570,17184993,-366.6,-818.53,-1120.9399999999996
1832,1.832000,15571,17185993,-1252.6,-266.53,-601.9399999999996
1833,1.833000,15572,17186993,-1751.6,-312.53,695.0600000000004
1834,1.834000,15573,17187993,-3101.6,225.47,2410.0600000000004
1835,1.835000,15574,17188993,-936.6,912.47,2674.0600000000004
1836,1.836000,15575,17189993,-617.6,1451.47,2454.0600000000004
1837,1.837000,15576,17190993,-408.6,1105.47,3695.0600000000004
1838,1.838000,15577,17191993,804.4,614.47,4396.06
1839,1.839000,15578,17192993,-4394.6,292.47,2842.0600000000004
1840,1.840000,15579,17193993,-10239.6,-134.53,1037.0600000000004
1841,1.841000,15580,17194993,-13467.6,141.47,-1294.9399999999996
1842,1.842000,15581,17195993,-6564.6,34.47,-2712.9399999999996
1843,1.843000,15582,17196993,5308.4,-402.53,-2516.9399999999996
1844,1.844000,15583,17197993,12190.4,-484.53,-3207.9399999999996
1845,1.845000,15584,17198993,12742.4,-154.53,-1321.9399999999996
1846,1.846000,15585,17199993,5803.4,-35.53,94.0600000000004
1847,1.847000,15586,17200993,-1429.6,248.47,-349.9399999999996
1848,1.848000,15587,17201993,-6304.6,278.47,524.0600000000004
1849,1.849000,15588,17202993,-5165.6,-413.53,928.0600000000004
1850,1.850000,15589,17203993,-2382.6,-345.53,-112.9399999999996
1851,1.851000,15590,17204993,1198.4,-207.53,-1406.9399999999996
1852,1.852000,15591,17205993,2370.4,-280.53,-1471.9399999999996
1853,1.853000,15592,17206993,-1797.6,-145.53,-1639.9399999999996
1854,1.854000,15593,17207993,-5239.6,-240.53,-724.9399999999996
1855,1.855000,15594,17208993,-6465.6,-423.53,1207.0600000000004
1856,1.856000,15595,17209993,-4207.6,-220.53,1936.0600000000004
1857,1.857000,15596,17210993,-1035.6,145.47,2535.0600000000004
1858,1.858000,15597,17211993,3188.4,496.47,3125.0600000000004
1859,1.859000,15598,17212993,4571.4,1025.47,1539.0600000000004
1860,1.860000,15599,17213993,5713.4,935.47,157.0600000000004
1861,1.861000,15600,17214993,8123.4,394.47,590.0600000000004
1862,1.862000,15601,17215993,6570.4,-100.53,6.0600000000004
1863,1.863000,15602,17216993,3025.4,-291.53,-1571.9399999999996
1864,1.864000,15603,17217993,-63.60000000000002,-467.53,-2534.9399999999996
1865,1.865000,15604,17218993,-985.6,-396.53,-2940.9399999999996
1866,1.866000,15605,17219993,-1816.6,-273.53,-2793.9399999999996
1867,1.867000,15606,17220993,-1009.6,-830.53,-1701.9399999999996
1868,1.868000,15607,17221993,-157.60000000000002,-919.53,-867.9399999999996
1869,1.869000,15608,17222993,-1246.6,-18.53,-348.9399999999996
1870,1.870000,15609,17223993,-2031.6,-116.53,1290.0600000000004
1871,1.871000,15610,17224993,-2190.6,282.47,2590.0600000000004
1872,1.872000,15611,17225993,-593.6,1228.47,2412.0600000000004
1873,1.873000,15612,17226993,-1157.6,1333.47,2618.0600000000004
1874,1.874000,15613,17227993,-141.60000000000002,865.47,4141.06
