row,seconds,esp32_index,micros,ax,ay,az
0,0.000000,385,1999994,-4735.25,-664.39,20.76000000000022
1,0.001000,386,2000994,-1406.25,-390.39,-1312.2399999999998
2,0.002000,387,2001994,1666.75,-195.39,-2013.2399999999998
3,0.003000,388,2002994,1460.75,-500.39,-1658.2399999999998
4,0.004000,389,2003994,-1920.25,-175.39,-1469.2399999999998
5,0.005000,390,2004994,-5423.25,-40.39,62.76000000000022
6,0.006000,391,2005994,-6127.25,-412.39,2370.76
7,0.007000,392,2006994,-4821.25,-122.39,3284.76
8,0.007999,393,2007993,-3510.25,247.61,3629.76
9,0.009000,394,2008994,2670.75,766.61,3280.76
10,0.010000,395,2009994,6628.75,1506.61,980.7600000000002
11,0.011000,396,2010994,8339.75,849.61,419.7600000000002
12,0.012000,397,2011994,9390.75,302.61,880.7600000000002
13,0.013000,398,2012994,6800.75,-223.39,-500.2399999999998
14,0.014000,399,2013994,1905.75,-523.39,-2149.24
15,0.015000,400,2014994,-2400.25,-428.39,-2973.24
16,0.016000,401,2015994,-1823.25,-751.39,-3381.24
17,0.017000,402,2016994,-354.25,-846.39,-3260.24
18,0.018000,403,2017994,534.75,-701.39,-2476.24
19,0.019000,404,2018994,163.75,-808.39,-1517.2399999999998
20,0.020000,405,2019994,-888.25,-316.39,-786.2399999999998
21,0.021000,406,2020994,-2062.25,-39.39,1449.7600000000002
22,0.028416,407,2028410,-11428.25,266.61,-538.2399999999998
23,0.028786,408,2028780,-11428.25,266.61,-538.2399999999998
24,0.029171,409,2029165,-5885.25,-94.39,-1509.2399999999998
25,0.029589,410,2029583,-5885.25,-94.39,-1509.2399999999998
26,0.030010,411,2030004,4881.75,-428.39,-1764.2399999999998
27,0.030412,412,2030406,4881.75,-428.39,-1764.2399999999998
28,0.030799,413,2030793,4881.75,-428.39,-1764.2399999999998
29,0.031204,414,2031198,10658.75,-3.3900000000000006,-3733.24
30,0.031599,415,2031593,10658.75,-3.3900000000000006,-3733.24
31,0.031998,416,2031992,12224.75,-268.39,-2707.24
32,0.032400,417,2032394,12224.75,-268.39,-2707.24
33,0.033000,418,2032994,7791.75,-108.39,-713.2399999999998
34,0.034000,419,2033994,2115.75,0.6099999999999994,-627.2399999999998
35,0.035000,420,2034994,-3403.25,-250.39,-245.23999999999978
36,0.036000,421,2035994,-6350.25,-434.39,65.76000000000022
37,0.037000,422,2036994,-3882.25,-425.39,-506.2399999999998
38,0.038000,423,2037994,585.75,-381.39,-1559.2399999999998
39,0.038999,424,2038993,2102.75,-304.39,-1940.2399999999998
40,0.040000,425,2039994,681.75,-212.39,-1721.2399999999998
41,0.041000,426,2040994,-3640.25,-84.39,-844.2399999999998
42,0.042000,427,2041994,-6712.25,-85.39,1185.7600000000002
43,0.043000,428,2042994,-5412.25,-432.39,2950.76
44,0.044000,429,2043994,-3669.25,20.61,3531.76
45,0.044999,430,2044993,-574.25,388.61,3684.76
46,0.046000,431,2045994,2137.75,1067.61,1987.7600000000002
47,0.047000,432,2046994,7283.75,1234.61,499.7600000000002
48,0.048000,433,2047994,10985.75,521.61,842.7600000000002
49,0.049000,434,2048994,8336.75,66.61,102.76000000000022
50,0.050000,435,2049994,4405.75,-343.39,-1374.2399999999998
51,0.051000,436,2050994,72.75,-542.39,-2345.24
52,0.052000,437,2051994,-2271.25,-573.39,-3125.24
53,0.053000,438,2052994,-1247.25,-508.39,-3328.24
54,0.053999,439,2053993,195.75,-860.39,-2764.24
55,0.055000,440,2054994,395.75,-971.39,-2048.24
56,0.056000,441,2055994,-1030.25,-221.39,-1364.2399999999998
57,0.057000,442,2056994,-1838.25,-219.39,359.7600000000002
58,0.058000,443,2057994,-1412.25,-338.39,2688.76
59,0.059000,444,2058994,-466.25,854.61,3324.76
60,0.060000,445,2059994,-1930.25,1496.61,2803.76
61,0.061000,446,2060994,-1876.25,1039.61,3709.76
62,0.062000,447,2061994,-2692.25,954.61,4793.76
63,0.063000,448,2062994,-8737.25,544.61,3419.76
64,0.064000,449,2063994,-10497.25,81.61,658.7600000000002
65,0.065000,450,2064994,-8979.25,51.61,-1179.2399999999998
66,0.066000,451,2065994,-1697.25,-165.39,-1423.2399999999998
67,0.067000,452,2066994,6589.75,-312.39,-2528.24
68,0.068000,453,2067994,12647.75,-398.39,-3350.24
69,0.069000,454,2068994,11769.75,-32.39,-1645.2399999999998
70,0.070000,455,2069994,4865.75,15.61,-491.2399999999998
71,0.071000,456,2070994,-879.25,-113.39,-655.2399999999998
72,0.072000,457,2071994,-5509.25,-108.39,-141.23999999999978
73,0.072999,458,2072993,-4769.25,-707.39,235.76000000000022
74,0.074000,459,2073994,-1839.25,-469.39,-835.2399999999998
75,0.075000,460,2074994,866.75,-181.39,-1877.2399999999998
76,0.076000,461,2075994,1666.75,-398.39,-1854.2399999999998
77,0.077000,462,2076994,-1303.25,-175.39,-1373.2399999999998
78,0.078000,463,2077994,-4970.25,-91.39,31.76000000000022
79,0.079000,464,2078994,-5695.25,-399.39,2008.7600000000002
80,0.080000,465,2079994,-5249.25,-137.39,2823.76
81,0.081000,466,2080994,-4066.25,179.61,3690.76
82,0.082000,467,2081994,2013.75,577.61,3323.76
83,0.083000,468,2082994,6480.75,1413.61,809.7600000000002
84,0.084000,469,2083994,7979.75,1023.61,472.7600000000002
85,0.085000,470,2084994,9706.75,298.61,1184.7600000000002
86,0.086000,471,2085994,7478.75,-214.39,-525.2399999999998
87,0.087000,472,2086994,2247.75,-399.39,-2184.24
88,0.088000,473,2087994,-2128.25,-442.39,-2624.24
89,0.089000,474,2088994,-1946.25,-709.39,-3327.24
90,0.090000,475,2089994,-637.25,-743.39,-3341.24
91,0.091000,476,2090994,417.75,-795.39,-2385.24
92,0.092000,477,2091994,49.75,-791.39,-1496.2399999999998
93,0.093000,478,2092994,-629.25,-221.39,-806.2399999999998
94,0.094000,479,2093994,-1976.25,-245.39,1330.7600000000002
95,0.095000,480,2094994,-2617.25,416.61,3277.76
96,0.096000,481,2095994,-1171.25,1016.61,3047.76
97,0.097000,482,2096994,-1126.25,1019.61,3079.76
98,0.098000,483,2097994,-588.25,1388.61,4509.76
99,0.099000,484,2098994,-5809.25,858.61,4321.76
100,0.100000,485,2099994,-9417.25,-46.39,2393.76
101,0.100999,486,2100993,-11234.25,74.61,4.760000000000218
102,0.102000,487,2101994,-7474.25,127.61,-1610.2399999999998
103,0.103000,488,2102994,3885.75,-372.39,-1838.2399999999998
104,0.104000,489,2103994,10028.75,-209.39,-3493.24
105,0.105000,490,2104994,12215.75,-173.39,-3108.24
106,0.106000,491,2105994,8996.75,-116.39,-646.2399999999998
107,0.107000,492,2106994,3045.75,-116.39,-528.2399999999998
108,0.108000,493,2107994,-3432.25,-32.39,-488.2399999999998
109,0.109000,494,2108994,-6595.25,-469.39,227.76000000000022
110,0.110000,495,2109994,-4450.25,-571.39,-350.2399999999998
111,0.110999,496,2110993,465.75,-263.39,-1474.2399999999998
112,0.112000,497,2111994,2652.75,-412.39,-1745.2399999999998
113,0.113000,498,2112994,633.75,-219.39,-1725.2399999999998
114,0.114000,499,2113994,-3418.25,19.61,-1227.2399999999998
115,0.115000,500,2114994,-6556.25,-269.39,990.7600000000002
116,0.116000,501,2115994,-5793.25,-511.39,3003.76
117,0.117000,502,2116994,-4175.25,138.61,3376.76
118,0.118000,503,2117994,-1130.25,495.61,3443.76
119,0.119000,504,2118994,2195.75,949.61,2275.76
120,0.120000,505,2119994,7511.75,1212.61,562.7600000000002
121,0.121000,506,2120994,11881.75,540.61,714.7600000000002
122,0.122000,507,2121994,8532.75,124.61,279.7600000000002
123,0.123000,508,2122994,4184.75,-206.39,-1340.2399999999998
124,0.124000,509,2123994,-189.25,-571.39,-2482.24
125,0.125000,510,2124994,-2773.25,-637.39,-3072.24
126,0.126000,511,2125994,-1293.25,-550.39,-3218.24
127,0.127000,512,2126994,160.75,-897.39,-2994.24
128,0.128000,513,2127994,1013.75,-952.39,-2024.2399999999998
129,0.129000,514,2128994,-773.25,-222.39,-1168.2399999999998
130,0.130000,515,2129994,-1797.25,-118.39,40.76000000000022
131,0.131000,516,2130994,-1634.25,-343.39,2338.76
132,0.132000,517,2131994,-608.25,740.61,3493.76
133,0.133000,518,2132994,-1851.25,1463.61,2940.76
134,0.134000,519,2133994,-2420.25,1071.61,3623.76
135,0.135000,520,2134994,-1590.25,927.61,4991.76
136,0.136000,521,2135994,-8158.25,702.61,3516.76
137,0.137000,522,2136994,-10747.25,79.61,1007.7600000000002
138,0.138000,523,2137994,-9482.25,-192.39,-1007.2399999999998
139,0.139000,524,2138994,-2691.25,-15.39,-1725.2399999999998
140,0.140000,525,2139994,6382.75,-252.39,-2547.24
141,0.141000,526,2140994,12101.75,-373.39,-3589.24
142,0.142000,527,2141994,12352.75,-38.39,-1850.2399999999998
143,0.143000,528,2142994,5539.75,2.6099999999999994,-573.2399999999998
144,0.143999,529,2143993,-391.25,-145.39,-495.2399999999998
145,0.145000,530,2144994,-5472.25,-260.39,-13.239999999999782
146,0.146000,531,2145994,-5352.25,-525.39,192.76000000000022
147,0.147000,532,2146994,-2223.25,-471.39,-930.2399999999998
148,0.148000,533,2147994,980.75,-203.39,-1894.2399999999998
149,0.149000,534,2148994,1799.75,-374.39,-1676.2399999999998
150,0.150000,535,2149994,-812.25,-319.39,-1519.2399999999998
151,0.150999,536,2150993,-4707.25,66.61,-375.2399999999998
152,0.152000,537,2151994,-5903.25,-378.39,1999.7600000000002
153,0.153000,538,2152994,-5056.25,-340.39,3261.76
154,0.154000,539,2153994,-4569.25,242.61,3616.76
155,0.155000,540,2154994,1990.75,576.61,3297.76
156,0.156000,541,2155994,6360.75,1278.61,998.7600000000002
157,0.157000,542,2156994,7801.75,1052.61,452.7600000000002
158,0.158000,543,2157994,9715.75,256.61,1138.7600000000002
159,0.159000,544,2158994,7350.75,-140.39,-506.2399999999998
160,0.160000,545,2159994,2256.75,-314.39,-2115.24
161,0.161000,546,2160994,-1778.25,-513.39,-2643.24
162,0.162000,547,2161994,-1881.25,-641.39,-3301.24
163,0.163000,548,2162994,-772.25,-701.39,-3303.24
164,0.164000,549,2163994,1106.75,-972.39,-2184.24
165,0.164999,550,2164993,217.75,-601.39,-1552.2399999999998
166,0.166000,551,2165994,-975.25,-134.39,-929.2399999999998
167,0.167000,552,2166994,-2373.25,-466.39,1234.7600000000002
168,0.168000,553,2167994,-3168.25,316.61,3194.76
169,0.169000,554,2168994,-970.25,1031.61,3171.76
170,0.170000,555,2169994,-1160.25,1222.61,2897.76
171,0.171000,556,2170994,-39.25,1201.61,4526.76
172,0.172000,557,2171994,-5736.25,1093.61,4386.76
173,0.173000,558,2172994,-9563.25,74.61,2281.76
174,0.174000,559,2173994,-10291.25,-172.39,96.76000000000022
175,0.175000,560,2174994,-7967.25,258.61,-1584.2399999999998
176,0.176000,561,2175994,3205.75,-497.39,-1644.2399999999998
177,0.176999,562,2176993,9177.75,-250.39,-3292.24
178,0.178000,563,2177994,12148.75,-133.39,-3381.24
179,0.179000,564,2178994,9734.75,-202.39,-856.2399999999998
180,0.180000,565,2179994,3407.75,-172.39,-421.2399999999998
181,0.181000,566,2180994,-3148.25,-62.39,-541.2399999999998
182,0.182000,567,2181994,-7011.25,-390.39,-13.239999999999782
183,0.183000,568,2182994,-4772.25,-465.39,-310.2399999999998
184,0.184000,569,2183994,225.75,-245.39,-1342.2399999999998
185,0.185000,570,2184994,2731.75,-435.39,-1600.2399999999998
186,0.186000,571,2185994,1058.75,-281.39,-1480.2399999999998
187,0.187000,572,2186994,-2991.25,-13.39,-1106.2399999999998
188,0.188000,573,2187994,-6238.25,-151.39,952.7600000000002
189,0.189000,574,2188994,-6022.25,-373.39,2690.76
190,0.190000,575,2189994,-4046.25,-104.39,3169.76
191,0.191000,576,2190994,-1099.25,314.61,3438.76
192,0.191999,577,2191993,2187.75,951.61,2423.76
193,0.193000,578,2192994,7028.75,1264.61,492.7600000000002
194,0.194000,579,2193994,10215.75,687.61,315.7600000000002
195,0.195000,580,2194994,8284.75,206.61,418.7600000000002
196,0.196000,581,2195994,5390.75,-389.39,-1028.2399999999998
197,0.197000,582,2196994,687.75,-616.39,-2461.24
198,0.198000,583,2197994,-2421.25,-390.39,-2947.24
199,0.199000,584,2198994,-1435.25,-589.39,-3122.24
200,0.200000,585,2199994,-108.25,-883.39,-2866.24
201,0.201000,586,2200994,742.75,-853.39,-1850.2399999999998
202,0.202000,587,2201994,-234.25,-472.39,-1086.2399999999998
203,0.203000,588,2202994,-1223.25,-119.39,-129.23999999999978
204,0.204000,589,2203994,-2284.25,-178.39,2184.76
205,0.205000,590,2204994,-1375.25,628.61,3395.76
206,0.206000,591,2205994,-1962.25,1353.61,2704.76
207,0.207000,592,2206994,-2089.25,964.61,3482.76
208,0.208000,593,2207994,-1002.25,1011.61,4869.76
209,0.208999,594,2208993,-6680.25,654.61,3631.76
210,0.210000,595,2209994,-10248.25,77.61,1254.7600000000002
211,0.211000,596,2210994,-10517.25,-68.39,-892.2399999999998
212,0.211999,597,2211993,-4033.25,-145.39,-1657.2399999999998
213,0.213000,598,2212994,5496.75,-262.39,-2258.24
214,0.214000,599,2213994,12016.75,-277.39,-3709.24
215,0.215000,600,2214994,12478.75,-265.39,-2086.24
216,0.216000,601,2215994,6209.75,-123.39,-489.2399999999998
217,0.217000,602,2216994,323.75,152.61,-655.2399999999998
218,0.217999,603,2217993,-5185.25,-49.39,-96.23999999999978
219,0.219000,604,2218994,-5824.25,-638.39,300.7600000000002
220,0.220000,605,2219994,-2786.25,-507.39,-642.2399999999998
221,0.221000,606,2220994,1296.75,-217.39,-1634.2399999999998
222,0.222000,607,2221994,2103.75,-382.39,-1608.2399999999998
223,0.223000,608,2222994,-354.25,-243.39,-1523.2399999999998
224,0.224000,609,2223994,-4352.25,110.61,-657.2399999999998
225,0.225000,610,2224994,-6578.25,-289.39,1448.7600000000002
226,0.226000,611,2225994,-5310.25,-496.39,3104.76
227,0.227000,612,2226994,-4229.25,41.61,3600.76
228,0.228000,613,2227994,1035.75,669.61,3220.76
229,0.229000,614,2228994,5275.75,1224.61,1279.7600000000002
230,0.230000,615,2229994,7923.75,1002.61,384.7600000000002
231,0.231000,616,2230994,10259.75,417.61,981.7600000000002
232,0.232000,617,2231994,7891.75,-127.39,-154.23999999999978
233,0.233000,618,2232994,2716.75,-256.39,-1779.2399999999998
234,0.234000,619,2233994,-1776.25,-445.39,-2615.24
235,0.235000,620,2234994,-2064.25,-714.39,-3060.24
236,0.236000,621,2235994,-840.25,-649.39,-3073.24
237,0.237000,622,2236994,283.75,-787.39,-2671.24
238,0.238000,623,2237994,660.75,-905.39,-1630.2399999999998
239,0.239000,624,2238994,-733.25,-270.39,-850.2399999999998
240,0.240000,625,2239994,-2296.25,-114.39,743.7600000000002
241,0.241000,626,2240994,-2372.25,-109.39,2904.76
242,0.242000,627,2241994,-668.25,997.61,3378.76
243,0.243000,628,2242994,-1287.25,1483.61,2837.76
244,0.244000,629,2243994,-803.25,1129.61,3885.76
245,0.245000,630,2244994,-5005.25,1054.61,4610.76
246,0.246000,631,2245994,-8943.25,17.61,2696.76
247,0.247000,632,2246994,-9903.25,-41.39,263.7600000000002
248,0.248000,633,2247994,-8844.25,159.61,-1386.2399999999998
249,0.249000,634,2248994,1516.75,-373.39,-1737.2399999999998
250,0.250000,635,2249994,8183.75,-233.39,-3209.24
251,0.251000,636,2250994,12329.75,-357.39,-3214.24
252,0.252000,637,2251994,10342.75,-64.39,-1049.2399999999998
253,0.253000,638,2252994,3620.75,-48.39,-563.2399999999998
254,0.254000,639,2253994,-2303.25,-73.39,-399.2399999999998
255,0.255000,640,2254994,-6284.25,-367.39,223.76000000000022
256,0.256000,641,2255994,-4484.25,-537.39,4.760000000000218
257,0.257000,642,2256994,-538.25,-234.39,-1217.2399999999998
258,0.258000,643,2257994,1949.75,-295.39,-1847.2399999999998
259,0.259000,644,2258994,1359.75,-347.39,-1613.2399999999998
260,0.260000,645,2259994,-2676.25,-121.39,-1190.2399999999998
261,0.261000,646,2260994,-5920.25,-121.39,358.7600000000002
262,0.262000,647,2261994,-5597.25,-363.39,2380.76
263,0.263000,648,2262994,-4438.25,-128.39,3286.76
264,0.264000,649,2263994,-2282.25,110.61,3601.76
265,0.265000,650,2264994,1825.75,855.61,2675.76
266,0.266000,651,2265994,6790.75,1454.61,752.7600000000002
267,0.267000,652,2266994,9835.75,785.61,525.7600000000002
268,0.268000,653,2267994,9149.75,79.61,574.7600000000002
269,0.269000,654,2268994,6216.75,-270.39,-823.2399999999998
270,0.270000,655,2269994,1252.75,-514.39,-2212.24
271,0.271000,656,2270994,-2593.25,-439.39,-3076.24
272,0.272000,657,2271994,-1784.25,-620.39,-3328.24
273,0.273000,658,2272994,-345.25,-908.39,-2900.24
274,0.274000,659,2273994,638.75,-799.39,-2125.24
275,0.275000,660,2274994,-252.25,-605.39,-1438.2399999999998
276,0.276000,661,2275994,-800.25,-242.39,-304.2399999999998
277,0.277000,662,2276994,-1892.25,-285.39,1989.7600000000002
278,0.278000,663,2277994,-2026.25,576.61,3246.76
279,0.278999,664,2278993,-2038.25,1311.61,2784.76
280,0.280000,665,2279994,-1611.25,932.61,3481.76
281,0.281000,666,2280994,-905.25,1254.61,4938.76
282,0.282000,667,2281994,-6316.25,680.61,4000.76
283,0.283000,668,2282994,-10061.25,-31.39,1474.7600000000002
284,0.284000,669,2283994,-11401.25,315.61,-788.2399999999998
285,0.284999,670,2284993,-4849.25,-229.39,-1397.2399999999998
286,0.285999,671,2285993,5064.75,-362.39,-2090.24
287,0.286999,672,2286993,11647.75,-108.39,-3755.24
288,0.288000,673,2287994,12497.75,-332.39,-2357.24
289,0.289000,674,2288994,6723.75,-6.390000000000001,-491.2399999999998
290,0.290000,675,2289994,1417.75,-55.39,-480.2399999999998
291,0.291000,676,2290994,-4437.25,-87.39,-431.2399999999998
292,0.292000,677,2291994,-6062.25,-492.39,58.76000000000022
293,0.293000,678,2292994,-3214.25,-607.39,-369.2399999999998
294,0.294000,679,2293994,806.75,-165.39,-1605.2399999999998
295,0.295000,680,2294994,2124.75,-362.39,-1902.2399999999998
296,0.296000,681,2295994,214.75,-370.39,-1582.2399999999998
297,0.297000,682,2296994,-4385.25,103.61,-569.2399999999998
298,0.298000,683,2297994,-6653.25,-350.39,1547.7600000000002
299,0.299000,684,2298994,-5359.25,-504.39,2896.76
300,0.300000,685,2299994,-3918.25,151.61,3539.76
301,0.301000,686,2300994,714.75,521.61,3511.76
302,0.302000,687,2301994,3632.75,1260.61,1347.7600000000002
303,0.303000,688,2302994,7365.75,1141.61,466.7600000000002
304,0.304000,689,2303994,10696.75,441.61,1053.7600000000002
305,0.305000,690,2304994,8547.75,-41.39,-156.23999999999978
306,0.306000,691,2305994,3719.75,-317.39,-1664.2399999999998
307,0.307000,692,2306994,-912.25,-520.39,-2453.24
308,0.308000,693,2307994,-2260.25,-619.39,-3313.24
309,0.309000,694,2308994,-1640.25,-550.39,-3559.24
310,0.309999,695,2309993,484.75,-969.39,-2637.24
311,0.311000,696,2310994,748.75,-964.39,-1765.2399999999998
312,0.312000,697,2311994,-379.25,-106.39,-1292.2399999999998
313,0.313000,698,2312994,-2114.25,-284.39,567.7600000000002
314,0.314000,699,2313994,-2357.25,-50.39,3049.76
315,0.315000,700,2314994,-1049.25,908.61,3367.76
316,0.315999,701,2315993,-2181.25,1329.61,2714.76
317,0.317000,702,2316994,-742.25,1156.61,4256.76
318,0.318000,703,2317994,-4793.25,1098.61,4874.76
319,0.319000,704,2318994,-8907.25,292.61,2844.76
320,0.320000,705,2319994,-10334.25,64.61,422.7600000000002
321,0.321000,706,2320994,-8527.25,-8.39,-1022.2399999999998
322,0.322000,707,2321994,1474.75,-357.39,-1413.2399999999998
323,0.323000,708,2322994,7814.75,-79.39,-3136.24
324,0.324000,709,2323994,12126.75,-278.39,-3565.24
325,0.325000,710,2324994,11133.75,-15.39,-1120.2399999999998
326,0.326000,711,2325994,4521.75,-78.39,-388.2399999999998
327,0.327000,712,2326994,-2326.25,-156.39,-871.2399999999998
328,0.328000,713,2327994,-6445.25,-515.39,-257.2399999999998
329,0.329000,714,2328994,-4550.25,-543.39,-93.23999999999978
330,0.330000,715,2329994,-611.25,-312.39,-1158.2399999999998
331,0.331000,716,2330994,1828.75,-300.39,-1885.2399999999998
332,0.332000,717,2331994,1194.75,-324.39,-1721.2399999999998
333,0.333000,718,2332994,-2350.25,-113.39,-1208.2399999999998
334,0.334000,719,2333994,-5650.25,-34.39,536.7600000000002
335,0.335000,720,2334994,-5893.25,-404.39,2594.76
336,0.336000,721,2335994,-4807.25,-51.39,3274.76
337,0.337000,722,2336994,-2899.25,320.61,3641.76
338,0.338000,723,2337994,1957.75,690.61,2957.76
339,0.339000,724,2338994,6688.75,1423.61,586.7600000000002
340,0.339999,725,2339993,9925.75,857.61,441.7600000000002
341,0.341000,726,2340994,9393.75,93.61,793.7600000000002
342,0.342000,727,2341994,6374.75,-178.39,-830.2399999999998
343,0.343000,728,2342994,1312.75,-514.39,-2264.24
344,0.344000,729,2343994,-2660.25,-525.39,-2963.24
345,0.345000,730,2344994,-1909.25,-503.39,-3345.24
346,0.346000,731,2345994,-318.25,-921.39,-3158.24
347,0.347000,732,2346994,753.75,-1046.39,-2271.24
348,0.348000,733,2347994,-123.25,-385.39,-1592.2399999999998
349,0.349000,734,2348994,-238.25,-422.39,-253.23999999999978
350,0.350000,735,2349994,-1726.25,-208.39,1879.7600000000002
351,0.351000,736,2350994,-2151.25,673.61,3367.76
352,0.352000,737,2351994,-2213.25,1196.61,3036.76
353,0.353000,738,2352994,-2553.25,1108.61,3378.76
354,0.354000,739,2353994,-1489.25,1157.61,4927.76
355,0.355000,740,2354994,-6211.25,516.61,4219.76
356,0.356000,741,2355994,-10200.25,251.61,1652.7600000000002
357,0.357000,742,2356994,-11062.25,229.61,-649.2399999999998
358,0.358000,743,2357994,-4340.25,-280.39,-1231.2399999999998
359,0.359000,744,2358994,5270.75,-125.39,-2125.24
360,0.360000,745,2359994,11654.75,-316.39,-3740.24
361,0.361000,746,2360994,12507.75,-92.39,-2500.24
362,0.362000,747,2361994,6893.75,-48.39,-654.2399999999998
363,0.363000,748,2362994,1265.75,-167.39,-670.2399999999998
364,0.364000,749,2363994,-4262.25,-235.39,-332.2399999999998
365,0.365000,750,2364994,-6414.25,-391.39,-79.23999999999978
366,0.365999,751,2365993,-3125.25,-630.39,-610.2399999999998
367,0.367000,752,2366994,955.75,-362.39,-1635.2399999999998
368,0.368000,753,2367994,1802.75,-287.39,-2007.2399999999998
369,0.368999,754,2368993,130.75,-304.39,-1520.2399999999998
370,0.370000,755,2369994,-4377.25,63.61,-606.2399999999998
371,0.371000,756,2370994,-6080.25,-258.39,1495.7600000000002
372,0.372000,757,2371994,-5578.25,-376.39,3168.76
373,0.372999,758,2372993,-4129.25,71.61,3929.76
374,0.374000,759,2373994,765.75,753.61,3582.76
375,0.375000,760,2374994,4358.75,1214.61,1365.7600000000002
376,0.376000,761,2375994,7328.75,1137.61,599.7600000000002
377,0.377000,762,2376994,10279.75,420.61,1227.7600000000002
378,0.378000,763,2377994,8581.75,-175.39,-284.2399999999998
379,0.379000,764,2378994,3205.75,-151.39,-2023.2399999999998
380,0.380000,765,2379994,-1084.25,-520.39,-2468.24
381,0.381000,766,2380994,-2148.25,-714.39,-3317.24
382,0.382000,767,2381994,-1193.25,-641.39,-3571.24
383,0.383000,768,2382994,576.75,-1013.39,-2633.24
384,0.384000,769,2383994,566.75,-773.39,-1816.2399999999998
385,0.385000,770,2384994,-261.25,-343.39,-1157.2399999999998
386,0.386000,771,2385994,-1858.25,-242.39,605.7600000000002
387,0.387000,772,2386994,-2645.25,36.61,3049.76
388,0.388000,773,2387994,-889.25,860.61,3421.76
389,0.389000,774,2388994,-2007.25,1491.61,2802.76
390,0.390000,775,2389994,-771.25,1171.61,4421.76
391,0.391000,776,2390994,-4424.25,986.61,4983.76
392,0.392000,777,2391994,-9139.25,276.61,2808.76
393,0.393000,778,2392994,-10698.25,67.61,491.7600000000002
394,0.393999,779,2393993,-9066.25,77.61,-1097.2399999999998
395,0.395000,780,2394994,1355.75,-262.39,-1646.2399999999998
396,0.396000,781,2395994,8145.75,-307.39,-3350.24
397,0.397000,782,2396994,12439.75,-318.39,-3426.24
398,0.398000,783,2397994,10654.75,-66.39,-1160.2399999999998
399,0.399000,784,2398994,4013.75,-248.39,-674.2399999999998
400,0.400000,785,2399994,-2096.25,-98.39,-817.2399999999998
401,0.401000,786,2400994,-5846.25,-388.39,-163.23999999999978
402,0.401999,787,2401993,-4191.25,-654.39,124.76000000000022
403,0.403000,788,2402994,-660.25,-180.39,-1256.2399999999998
404,0.404000,789,2403994,1820.75,-329.39,-1996.2399999999998
405,0.405000,790,2404994,1283.75,-397.39,-1602.2399999999998
406,0.406000,791,2405994,-3043.25,67.61,-1097.2399999999998
407,0.407000,792,2406994,-6257.25,-193.39,546.7600000000002
408,0.408000,793,2407994,-5874.25,-412.39,2368.76
409,0.409000,794,2408994,-4358.25,-65.39,3379.76
410,0.410000,795,2409994,-1550.25,183.61,3857.76
411,0.411000,796,2410994,1546.75,930.61,2636.76
412,0.412000,797,2411994,6739.75,1435.61,660.7600000000002
413,0.412999,798,2412993,10135.75,842.61,765.7600000000002
414,0.414000,799,2413994,8745.75,199.61,631.7600000000002
415,0.415000,800,2414994,5942.75,-302.39,-1017.2399999999998
416,0.416000,801,2415994,1084.75,-514.39,-2144.24
417,0.417000,802,2416994,-2074.25,-534.39,-2847.24
418,0.418000,803,2417994,-1848.25,-530.39,-3646.24
419,0.419000,804,2418994,-375.25,-971.39,-3199.24
420,0.420000,805,2419994,1210.75,-1053.39,-2121.24
421,0.421000,806,2420994,-57.25,-220.39,-1713.2399999999998
422,0.422000,807,2421994,-458.25,-349.39,-395.2399999999998
423,0.423000,808,2422994,-1534.25,-445.39,1996.7600000000002
424,0.424000,809,2423994,-1865.25,635.61,3552.76
425,0.425000,810,2424994,-2972.25,1323.61,2985.76
426,0.426000,811,2425994,-3341.25,1105.61,3376.76
427,0.427000,812,2426994,-1806.25,1173.61,5049.76
428,0.428000,813,2427994,-6531.25,700.61,4105.76
429,0.429000,814,2428994,-9492.25,167.61,1660.7600000000002
430,0.430000,815,2429994,-9971.25,76.61,-661.2399999999998
431,0.431000,816,2430994,-3865.25,-180.39,-1358.2399999999998
432,0.432000,817,2431994,5050.75,11.61,-2160.24
433,0.433000,818,2432994,11678.75,-278.39,-3765.24
434,0.434000,819,2433994,12588.75,-338.39,-2366.24
435,0.435000,820,2434994,6591.75,28.61,-577.2399999999998
436,0.436000,821,2435994,1014.75,-129.39,-620.2399999999998
437,0.437000,822,2436994,-4797.25,-294.39,-582.2399999999998
438,0.438000,823,2437994,-6167.25,-540.39,-119.23999999999978
439,0.439000,824,2438994,-3293.25,-686.39,-825.2399999999998
440,0.440000,825,2439994,869.75,-186.39,-1919.2399999999998
441,0.441000,826,2440994,2307.75,-326.39,-1785.2399999999998
442,0.442000,827,2441994,-12.25,-377.39,-1474.2399999999998
443,0.443000,828,2442994,-4313.25,202.61,-349.2399999999998
444,0.443999,829,2443993,-6149.25,-369.39,1996.7600000000002
445,0.445000,830,2444994,-5715.25,-325.39,3275.76
446,0.446000,831,2445994,-4486.25,242.61,3780.76
447,0.447000,832,2446994,1050.75,519.61,3582.76
448,0.448000,833,2447994,4579.75,1254.61,1233.7600000000002
449,0.449000,834,2448994,7800.75,1196.61,411.7600000000002
450,0.450000,835,2449994,10172.75,401.61,1020.7600000000002
451,0.451000,836,2450994,8119.75,-228.39,-425.2399999999998
452,0.452000,837,2451994,3326.75,-298.39,-1938.2399999999998
453,0.453000,838,2452994,-1351.25,-513.39,-2437.24
454,0.454000,839,2453994,-2017.25,-674.39,-3259.24
455,0.454999,840,2454993,-1321.25,-592.39,-3510.24
456,0.456000,841,2455994,597.75,-1069.39,-2594.24
457,0.457000,842,2456994,769.75,-776.39,-1798.2399999999998
458,0.458000,843,2457994,-211.25,-62.39,-1265.2399999999998
459,0.459000,844,2458994,-1615.25,-361.39,625.7600000000002
460,0.460000,845,2459994,-2326.25,16.61,3199.76
461,0.461000,846,2460994,-1058.25,841.61,3622.76
462,0.462000,847,2461994,-2385.25,1404.61,2925.76
463,0.463000,848,2462994,-1149.25,1222.61,4362.76
464,0.464000,849,2463994,-5747.25,1098.61,4842.76
465,0.465000,850,2464994,-9366.25,255.61,2885.76
466,0.466000,851,2465994,-10347.25,-104.39,228.76000000000022
467,0.466999,852,2466993,-8485.25,254.61,-1362.2399999999998
468,0.468000,853,2467994,2397.75,-427.39,-1406.2399999999998
469,0.469000,854,2468994,8534.75,-260.39,-3305.24
470,0.470000,855,2469994,12262.75,-169.39,-3426.24
471,0.470999,856,2470993,10498.75,-183.39,-1019.2399999999998
472,0.472000,857,2471994,4479.75,-92.39,-651.2399999999998
473,0.472999,858,2472993,-2098.25,-3.3900000000000006,-850.2399999999998
474,0.473999,859,2473993,-6320.25,-451.39,-4.239999999999782
475,0.475000,860,2474994,-4955.25,-549.39,-216.23999999999978
476,0.476000,861,2475994,-672.25,-322.39,-1319.2399999999998
477,0.477000,862,2476994,1704.75,-432.39,-1842.2399999999998
478,0.478000,863,2477994,1193.75,-232.39,-1728.2399999999998
479,0.479000,864,2478994,-2447.25,49.61,-1059.2399999999998
480,0.479999,865,2479993,-6324.25,-106.39,627.7600000000002
481,0.481000,866,2480994,-5537.25,-465.39,2532.76
482,0.482000,867,2481994,-4053.25,-168.39,3617.76
483,0.483000,868,2482994,-2120.25,277.61,3913.76
484,0.484000,869,2483994,1219.75,1085.61,2355.76
485,0.485000,870,2484994,6552.75,1464.61,669.7600000000002
486,0.486000,871,2485994,10990.75,622.61,939.7600000000002
487,0.487000,872,2486994,9217.75,167.61,534.7600000000002
488,0.488000,873,2487994,5327.75,-192.39,-1133.2399999999998
489,0.489000,874,2488994,921.75,-591.39,-2225.24
490,0.490000,875,2489994,-2413.25,-515.39,-3089.24
491,0.491000,876,2490994,-1752.25,-538.39,-3608.24
492,0.492000,877,2491994,101.75,-988.39,-3119.24
493,0.493000,878,2492994,1106.75,-1027.39,-2241.24
494,0.494000,879,2493994,-49.25,-276.39,-1732.2399999999998
495,0.495000,880,2494994,-977.25,-379.39,-304.2399999999998
496,0.496000,881,2495994,-1577.25,-320.39,2287.76
497,0.496999,882,2496993,-1542.25,581.61,3609.76
498,0.498000,883,2497994,-3322.25,1451.61,2770.76
499,0.499000,884,2498994,-3361.25,1272.61,3425.76
500,0.500000,885,2499994,-1345.25,768.61,5178.76
501,0.501000,886,2500994,-7103.25,839.61,3911.76
502,0.502000,887,2501994,-10051.25,195.61,1357.7600000000002
503,0.503000,888,2502994,-9601.25,-212.39,-695.2399999999998
504,0.504000,889,2503994,-3480.25,49.61,-1322.2399999999998
505,0.505000,890,2504994,5824.75,-114.39,-2270.24
506,0.506000,891,2505994,11632.75,-358.39,-3769.24
507,0.507000,892,2506994,12902.75,-166.39,-1926.2399999999998
508,0.508000,893,2507994,6534.75,8.61,-588.2399999999998
509,0.509000,894,2508994,154.75,17.61,-910.2399999999998
510,0.510000,895,2509994,-4975.25,-402.39,-296.2399999999998
511,0.511000,896,2510994,-5930.25,-658.39,-98.23999999999978
512,0.512000,897,2511994,-2693.25,-541.39,-840.2399999999998
513,0.513000,898,2512994,865.75,-306.39,-1877.2399999999998
514,0.514000,899,2513994,1943.75,-261.39,-2027.2399999999998
515,0.515000,900,2514994,-198.25,-283.39,-1438.2399999999998
516,0.516000,901,2515994,-4620.25,14.61,-139.23999999999978
517,0.517000,902,2516994,-6328.25,-292.39,1885.7600000000002
518,0.518000,903,2517994,-6017.25,-210.39,3077.76
519,0.519000,904,2518994,-4254.25,83.61,3913.76
520,0.520000,905,2519994,1733.75,551.61,3492.76
521,0.521000,906,2520994,5741.75,1415.61,965.7600000000002
522,0.522000,907,2521994,7666.75,1086.61,501.7600000000002
523,0.522999,908,2522993,9594.75,297.61,1142.7600000000002
524,0.524000,909,2523994,8249.75,-246.39,-424.2399999999998
525,0.525000,910,2524994,2779.75,-236.39,-2053.24
526,0.526000,911,2525994,-1455.25,-555.39,-2526.24
527,0.527000,912,2526994,-2138.25,-654.39,-3423.24
528,0.528000,913,2527994,-608.25,-681.39,-3360.24
529,0.529000,914,2528994,521.75,-859.39,-2419.24
530,0.530000,915,2529994,94.75,-620.39,-1843.2399999999998
531,0.531000,916,2530994,22.75,-373.39,-1065.2399999999998
532,0.532000,917,2531994,-1693.25,-192.39,1050.7600000000002
533,0.533000,918,2532994,-2720.25,170.61,3253.76
534,0.534000,919,2533994,-1465.25,816.61,3219.76
535,0.535000,920,2534994,-2038.25,1293.61,2901.76
536,0.536000,921,2535994,-1600.25,1226.61,4440.76
537,0.537000,922,2536994,-5703.25,852.61,4588.76
538,0.538000,923,2537994,-9162.25,208.61,2357.76
539,0.539000,924,2538994,-10596.25,-15.39,-67.23999999999978
540,0.540000,925,2539994,-7575.25,30.61,-1316.2399999999998
541,0.541000,926,2540994,3218.75,-146.39,-1376.2399999999998
542,0.542000,927,2541994,9389.75,-147.39,-3435.24
543,0.543000,928,2542994,12578.75,-327.39,-3159.24
544,0.544000,929,2543994,9777.75,-74.39,-749.2399999999998
545,0.545000,930,2544994,3954.75,-32.39,-525.2399999999998
546,0.546000,931,2545994,-2844.25,-271.39,-478.2399999999998
547,0.547000,932,2546994,-6881.25,-450.39,-252.23999999999978
548,0.548000,933,2547994,-4813.25,-460.39,-375.2399999999998
549,0.549000,934,2548994,-514.25,-451.39,-1315.2399999999998
550,0.550000,935,2549994,2238.75,-383.39,-1996.2399999999998
551,0.551000,936,2550994,1214.75,-207.39,-1831.2399999999998
552,0.552000,937,2551994,-3005.25,-51.39,-923.2399999999998
553,0.553000,938,2552994,-6310.25,-216.39,1147.7600000000002
554,0.554000,939,2553994,-5965.25,-313.39,2719.76
555,0.554999,940,2554993,-4142.25,40.61,3511.76
556,0.556000,941,2555994,-1206.25,328.61,3834.76
557,0.557000,942,2556994,1817.75,1061.61,2126.76
558,0.558000,943,2557994,7490.75,1258.61,525.7600000000002
559,0.559000,944,2558994,11136.75,544.61,834.7600000000002
560,0.560000,945,2559994,8617.75,139.61,135.76000000000022
561,0.561000,946,2560994,4811.75,-319.39,-1393.2399999999998
562,0.562000,947,2561994,318.75,-628.39,-2273.24
563,0.563000,948,2562994,-2533.25,-399.39,-3211.24
564,0.564000,949,2563994,-1613.25,-585.39,-3546.24
565,0.565000,950,2564994,147.75,-1099.39,-2776.24
566,0.566000,951,2565994,1027.75,-815.39,-2046.2399999999998
567,0.567000,952,2566994,-345.25,-332.39,-1428.2399999999998
568,0.568000,953,2567994,-1443.25,-272.39,51.76000000000022
569,0.569000,954,2568994,-1427.25,-258.39,2569.76
570,0.570000,955,2569994,-1052.25,703.61,3534.76
571,0.571000,956,2570994,-3048.25,1415.61,2821.76
572,0.572000,957,2571994,-2179.25,994.61,3785.76
573,0.573000,958,2572994,-2195.25,1038.61,4983.76
574,0.574000,959,2573994,-9048.25,804.61,3524.76
575,0.575000,960,2574994,-10316.25,-20.39,1051.7600000000002
576,0.576000,961,2575994,-8771.25,-110.39,-817.2399999999998
577,0.577000,962,2576994,-2507.25,18.61,-1368.2399999999998
578,0.578000,963,2577994,6218.75,-416.39,-2518.24
579,0.579000,964,2578994,12302.75,-78.39,-3785.24
580,0.580000,965,2579994,12791.75,-122.39,-1793.2399999999998
581,0.581000,966,2580994,5972.75,-210.39,-504.2399999999998
582,0.582000,967,2581994,-395.25,36.61,-885.2399999999998
583,0.583000,968,2582994,-5221.25,-536.39,-220.23999999999978
584,0.584000,969,2583994,-5617.25,-644.39,-3.2399999999997817
585,0.585000,970,2584994,-2540.25,-305.39,-1086.2399999999998
586,0.586000,971,2585994,900.75,-291.39,-1849.2399999999998
587,0.587000,972,2586994,1664.75,-406.39,-1860.2399999999998
588,0.588000,973,2587994,-636.25,-317.39,-1524.2399999999998
589,0.589000,974,2588994,-4801.25,86.61,-22.23999999999978
590,0.590000,975,2589994,-6559.25,-218.39,2220.76
591,0.591000,976,2590994,-5209.25,-436.39,3217.76
592,0.592000,977,2591994,-3970.25,221.61,3894.76
593,0.592999,978,2592993,2270.75,627.61,3672.76
594,0.594000,979,2593994,6168.75,1368.61,819.7600000000002
595,0.595000,980,2594994,7417.75,1272.61,229.76000000000022
596,0.596000,981,2595994,9475.75,204.61,1184.7600000000002
597,0.597000,982,2596994,7657.75,-351.39,-490.2399999999998
598,0.598000,983,2597994,2552.75,-335.39,-2178.24
599,0.599000,984,2598994,-1671.25,-613.39,-2672.24
600,0.600000,985,2599994,-1869.25,-672.39,-3467.24
601,0.601000,986,2600994,-251.25,-654.39,-3479.24
602,0.602000,987,2601994,605.75,-922.39,-2468.24
603,0.603000,988,2602994,199.75,-682.39,-1743.2399999999998
604,0.604000,989,2603994,-121.25,-433.39,-1011.2399999999998
605,0.605000,990,2604994,-1986.25,-117.39,1131.7600000000002
606,0.606000,991,2605994,-2722.25,179.61,3486.76
607,0.607000,992,2606994,-1754.25,1002.61,3374.76
608,0.607999,993,2607993,-2085.25,1351.61,3068.76
609,0.609000,994,2608994,-1836.25,1133.61,4649.76
610,0.610000,995,2609994,-5780.25,942.61,4552.76
611,0.611000,996,2610994,-9124.25,75.61,2291.76
612,0.612000,997,2611994,-11216.25,135.61,-240.23999999999978
613,0.613000,998,2612994,-7106.25,19.61,-1400.2399999999998
614,0.614000,999,2613994,4209.75,-367.39,-1425.2399999999998
615,0.615000,1000,2614994,10015.75,10.61,-3574.24
616,0.616000,1001,2615994,12559.75,-163.39,-2962.24
617,0.617000,1002,2616994,9664.75,-190.39,-663.2399999999998
618,0.618000,1003,2617994,3322.75,-50.39,-704.2399999999998
619,0.619000,1004,2618994,-3416.25,-210.39,-509.2399999999998
620,0.620000,1005,2619994,-6765.25,-536.39,-146.23999999999978
621,0.621000,1006,2620994,-4833.25,-466.39,-609.2399999999998
622,0.621999,1007,2621993,34.75,-514.39,-1577.2399999999998
623,0.623000,1008,2622994,2418.75,-445.39,-1946.2399999999998
624,0.624000,1009,2623994,809.75,-157.39,-1675.2399999999998
625,0.624999,1010,2624993,-3494.25,-69.39,-901.2399999999998
626,0.626000,1011,2625994,-6479.25,-174.39,1027.7600000000002
627,0.627000,1012,2626994,-5938.25,-411.39,2938.76
628,0.628000,1013,2627994,-3941.25,3.6099999999999994,3747.76
629,0.629000,1014,2628994,-516.25,653.61,3769.76
630,0.630000,1015,2629994,2312.75,1146.61,2035.7600000000002
631,0.630999,1016,2630993,7334.75,1112.61,681.7600000000002
632,0.632000,1017,2631994,11236.75,564.61,1074.7600000000002
633,0.633000,1018,2632994,8966.75,85.61,285.7600000000002
634,0.634000,1019,2633994,4120.75,-149.39,-1419.2399999999998
635,0.635000,1020,2634994,-138.25,-698.39,-2411.24
636,0.636000,1021,2635994,-2685.25,-745.39,-3352.24
637,0.637000,1022,2636994,-1395.25,-564.39,-3552.24
638,0.638000,1023,2637994,404.75,-905.39,-2917.24
639,0.638999,1024,2638993,769.75,-928.39,-2257.24
640,0.640000,1025,2639994,-566.25,-285.39,-1480.2399999999998
641,0.641000,1026,2640994,-1652.25,-269.39,321.7600000000002
642,0.641999,1027,2641993,-1245.25,-271.39,2677.76
643,0.643000,1028,2642994,-936.25,885.61,3464.76
644,0.644000,1029,2643994,-2598.25,1466.61,2866.76
645,0.645000,1030,2644994,-2008.25,1059.61,3827.76
646,0.646000,1031,2645994,-3267.25,1073.61,5015.76
647,0.647000,1032,2646994,-8893.25,649.61,3476.76
648,0.647999,1033,2647993,-10002.25,-82.39,923.7600000000002
649,0.649000,1034,2648994,-8829.25,64.61,-1059.2399999999998
650,0.650000,1035,2649994,-1435.25,-35.39,-1255.2399999999998
651,0.651000,1036,2650994,6716.75,-483.39,-2498.24
652,0.651999,1037,2651993,12175.75,-216.39,-3670.24
653,0.653000,1038,2652994,12379.75,53.61,-1508.2399999999998
654,0.654000,1039,2653994,5456.75,-171.39,-508.2399999999998
655,0.655000,1040,2654994,-1196.25,7.609999999999999,-805.2399999999998
656,0.656000,1041,2655994,-5526.25,-534.39,-259.2399999999998
657,0.657000,1042,2656994,-5286.25,-584.39,-253.23999999999978
658,0.658000,1043,2657994,-2016.25,-253.39,-980.2399999999998
659,0.659000,1044,2658994,1172.75,-541.39,-1784.2399999999998
660,0.660000,1045,2659994,1524.75,-187.39,-2101.24
661,0.661000,1046,2660994,-1061.25,-151.39,-1250.2399999999998
662,0.661999,1047,2661993,-4851.25,-201.39,307.7600000000002
663,0.663000,1048,2662994,-6132.25,-162.39,2125.76
664,0.664000,1049,2663994,-5326.25,-222.39,3196.76
665,0.665000,1050,2664994,-4160.25,111.61,3813.76
666,0.666000,1051,2665994,2014.75,615.61,3262.76
667,0.667000,1052,2666994,6842.75,1345.61,701.7600000000002
668,0.667999,1053,2667993,8196.75,1060.61,411.7600000000002
669,0.669000,1054,2668994,9734.75,174.61,1002.7600000000002
670,0.670000,1055,2669994,7301.75,-190.39,-775.2399999999998
671,0.671000,1056,2670994,2056.75,-368.39,-2122.24
672,0.672000,1057,2671994,-1744.25,-486.39,-2582.24
673,0.673000,1058,2672994,-2125.25,-529.39,-3506.24
674,0.674000,1059,2673994,-792.25,-770.39,-3272.24
675,0.675000,1060,2674994,972.75,-1169.39,-2071.24
676,0.676000,1061,2675994,235.75,-479.39,-1763.2399999999998
677,0.677000,1062,2676994,-296.25,-107.39,-936.2399999999998
678,0.678000,1063,2677994,-1822.25,-540.39,1443.7600000000002
679,0.679000,1064,2678994,-2498.25,241.61,3370.76
680,0.680000,1065,2679994,-1881.25,1014.61,3112.76
681,0.681000,1066,2680994,-2333.25,1268.61,3078.76
682,0.682000,1067,2681994,-1737.25,1366.61,4732.76
683,0.682999,1068,2682993,-5609.25,753.61,4417.76
684,0.684000,1069,2683994,-9235.25,45.61,2278.76
685,0.685000,1070,2684994,-11406.25,228.61,-302.2399999999998
686,0.686000,1071,2685994,-6076.25,15.61,-1297.2399999999998
687,0.687000,1072,2686994,4276.75,-306.39,-1635.2399999999998
688,0.687999,1073,2687993,10810.75,-246.39,-3761.24
689,0.689000,1074,2688994,12511.75,-180.39,-2994.24
690,0.690000,1075,2689994,8437.75,-149.39,-687.2399999999998
691,0.691000,1076,2690994,2720.75,-133.39,-755.2399999999998
692,0.692000,1077,2691994,-3507.25,-91.39,-716.2399999999998
693,0.693000,1078,2692994,-6705.25,-638.39,112.76000000000022
694,0.694000,1079,2693994,-4890.25,-491.39,-508.2399999999998
695,0.695000,1080,2694994,140.75,-286.39,-1655.2399999999998
696,0.696000,1081,2695994,2386.75,-394.39,-1771.2399999999998
697,0.697000,1082,2696994,823.75,-286.39,-1536.2399999999998
698,0.698000,1083,2697994,-3332.25,14.61,-860.2399999999998
699,0.699000,1084,2698994,-6480.25,-118.39,1230.7600000000002
700,0.700000,1085,2699994,-5783.25,-419.39,3003.76
701,0.701000,1086,2700994,-3767.25,12.61,3574.76
702,0.702000,1087,2701994,-34.25,551.61,3881.76
703,0.703000,1088,2702994,2655.75,1037.61,1906.7600000000002
704,0.704000,1089,2703994,7282.75,1307.61,308.7600000000002
705,0.705000,1090,2704994,11115.75,526.61,1153.7600000000002
706,0.706000,1091,2705994,8272.75,-75.39,26.76000000000022
707,0.707000,1092,2706994,3864.75,-141.39,-1765.2399999999998
708,0.708000,1093,2707994,-527.25,-656.39,-2342.24
709,0.709000,1094,2708994,-2150.25,-576.39,-3153.24
710,0.710000,1095,2709994,-1163.25,-574.39,-3637.24
711,0.711000,1096,2710994,301.75,-956.39,-2951.24
712,0.712000,1097,2711994,856.75,-797.39,-1775.2399999999998
713,0.713000,1098,2712994,-201.25,-485.39,-1165.2399999999998
714,0.714000,1099,2713994,-1956.25,-116.39,165.76000000000022
715,0.714999,1100,2714993,-1781.25,-63.39,2854.76
716,0.716000,1101,2715994,-716.25,741.61,3716.76
717,0.717000,1102,2716994,-2902.25,1540.61,2615.76
718,0.717999,1103,2717993,-1998.25,1079.61,3736.76
719,0.719000,1104,2718994,-3505.25,1044.61,4969.76
720,0.720000,1105,2719994,-8556.25,532.61,3310.76
721,0.721000,1106,2720994,-9994.25,-30.39,763.7600000000002
722,0.722000,1107,2721994,-8778.25,-52.39,-1211.2399999999998
723,0.723000,1108,2722994,-962.25,-80.39,-1598.2399999999998
724,0.724000,1109,2723994,6809.75,-340.39,-2733.24
725,0.725000,1110,2724994,12427.75,-289.39,-3453.24
726,0.726000,1111,2725994,11709.75,-120.39,-1581.2399999999998
727,0.727000,1112,2726994,5481.75,-124.39,-519.2399999999998
728,0.728000,1113,2727994,-1041.25,29.61,-512.2399999999998
729,0.729000,1114,2728994,-6146.25,-331.39,-222.23999999999978
730,0.730000,1115,2729994,-5088.25,-593.39,-71.23999999999978
731,0.731000,1116,2730994,-1741.25,-472.39,-1105.2399999999998
732,0.732000,1117,2731994,1510.75,-347.39,-1884.2399999999998
733,0.733000,1118,2732994,1493.75,-344.39,-1725.2399999999998
734,0.734000,1119,2733994,-1633.25,-190.39,-1352.2399999999998
735,0.735000,1120,2734994,-5472.25,-19.39,32.76000000000022
736,0.736000,1121,2735994,-6332.25,-253.39,2248.76
737,0.737000,1122,2736994,-4880.25,-321.39,3462.76
738,0.738000,1123,2737994,-3869.25,227.61,3593.76
739,0.739000,1124,2738994,2584.75,759.61,3101.76
740,0.740000,1125,2739994,7408.75,1382.61,899.7600000000002
741,0.741000,1126,2740994,9209.75,1042.61,446.7600000000002
742,0.741999,1127,2741993,9680.75,152.61,1050.7600000000002
743,0.743000,1128,2742994,6187.75,-190.39,-615.2399999999998
744,0.744000,1129,2743994,1283.75,-349.39,-2161.24
745,0.745000,1130,2744994,-2545.25,-606.39,-2794.24
746,0.746000,1131,2745994,-1898.25,-707.39,-3314.24
747,0.747000,1132,2746994,27.75,-879.39,-3219.24
748,0.748000,1133,2747994,495.75,-916.39,-2556.24
749,0.749000,1134,2748994,-277.25,-535.39,-1681.2399999999998
750,0.749999,1135,2749993,-206.25,-367.39,-702.2399999999998
751,0.751000,1136,2750994,-1585.25,-58.39,1437.7600000000002
752,0.752000,1137,2751994,-2032.25,325.61,3633.76
753,0.753000,1138,2752994,-1652.25,997.61,3258.76
754,0.754000,1139,2753994,-2213.25,1391.61,3210.76
755,0.755000,1140,2754994,-1866.25,1209.61,4787.76
756,0.756000,1141,2755994,-6074.25,642.61,4322.76
757,0.757000,1142,2756994,-9786.25,163.61,1964.7600000000002
758,0.758000,1143,2757994,-11118.25,-18.39,-544.2399999999998
759,0.759000,1144,2758994,-5525.25,-4.390000000000001,-1598.2399999999998
760,0.760000,1145,2759994,4848.75,-369.39,-1780.2399999999998
761,0.761000,1146,2760994,10912.75,-225.39,-3753.24
762,0.762000,1147,2761994,12031.75,120.61,-2791.24
763,0.763000,1148,2762994,7884.75,-400.39,-451.2399999999998
764,0.763999,1149,2763993,2267.75,-32.39,-619.2399999999998
765,0.765000,1150,2764994,-3955.25,2.6099999999999994,-374.2399999999998
766,0.766000,1151,2765994,-6146.25,-605.39,72.76000000000022
767,0.767000,1152,2766994,-4186.25,-389.39,-401.2399999999998
768,0.768000,1153,2767994,463.75,-296.39,-1544.2399999999998
769,0.769000,1154,2768994,2748.75,-461.39,-2039.2399999999998
770,0.770000,1155,2769994,641.75,-176.39,-1668.2399999999998
771,0.770999,1156,2770993,-3707.25,-30.39,-691.2399999999998
772,0.772000,1157,2771994,-6665.25,-431.39,1299.7600000000002
773,0.773000,1158,2772994,-6025.25,-423.39,2871.76
774,0.774000,1159,2773994,-4296.25,100.61,3553.76
775,0.775000,1160,2774994,-75.25,581.61,3481.76
776,0.776000,1161,2775994,3747.75,1122.61,1466.7600000000002
777,0.777000,1162,2776994,7990.75,1150.61,492.7600000000002
778,0.778000,1163,2777994,10962.75,549.61,1187.7600000000002
779,0.779000,1164,2778994,8177.75,24.61,31.76000000000022
780,0.780000,1165,2779994,3299.75,-212.39,-1544.2399999999998
781,0.781000,1166,2780994,-876.25,-553.39,-2250.24
782,0.782000,1167,2781994,-2179.25,-684.39,-3047.24
783,0.783000,1168,2782994,-1216.25,-649.39,-3385.24
784,0.784000,1169,2783994,861.75,-994.39,-2835.24
785,0.785000,1170,2784994,743.75,-713.39,-1959.2399999999998
786,0.786000,1171,2785994,-1166.25,-116.39,-1274.2399999999998
787,0.787000,1172,2786994,-2177.25,-467.39,348.7600000000002
788,0.788000,1173,2787994,-1990.25,-102.39,2821.76
789,0.789000,1174,2788994,-382.25,738.61,3668.76
790,0.790000,1175,2789994,-2225.25,1348.61,2821.76
791,0.791000,1176,2790994,-1711.25,1246.61,3772.76
792,0.792000,1177,2791994,-3545.25,1021.61,4864.76
793,0.793000,1178,2792994,-8716.25,490.61,3278.76
794,0.794000,1179,2793994,-9743.25,-78.39,630.7600000000002
795,0.795000,1180,2794994,-8666.25,67.61,-1401.2399999999998
796,0.796000,1181,2795994,-702.25,-126.39,-1616.2399999999998
797,0.797000,1182,2796994,7478.75,-370.39,-2677.24
798,0.798000,1183,2797994,12363.75,-287.39,-3588.24
799,0.799000,1184,2798994,11658.75,-125.39,-1305.2399999999998
800,0.800000,1185,2799994,5023.75,-129.39,-408.2399999999998
801,0.801000,1186,2800994,-1966.25,15.61,-703.2399999999998
802,0.802000,1187,2801994,-6471.25,-453.39,68.76000000000022
803,0.803000,1188,2802994,-5102.25,-609.39,-183.23999999999978
804,0.804000,1189,2803994,-1734.25,-240.39,-1311.2399999999998
805,0.805000,1190,2804994,1691.75,-363.39,-1747.2399999999998
806,0.806000,1191,2805994,1875.75,-333.39,-1631.2399999999998
807,0.807000,1192,2806994,-1479.25,-88.39,-1416.2399999999998
808,0.808000,1193,2807994,-5051.25,-96.39,365.7600000000002
809,0.809000,1194,2808994,-6091.25,-291.39,2395.76
810,0.810000,1195,2809994,-5178.25,-184.39,3143.76
811,0.811000,1196,2810994,-3740.25,136.61,3639.76
812,0.812000,1197,2811994,2674.75,687.61,3109.76
813,0.813000,1198,2812994,6974.75,1499.61,724.7600000000002
814,0.814000,1199,2813994,8887.75,865.61,269.7600000000002
815,0.815000,1200,2814994,9382.75,163.61,805.7600000000002
816,0.816000,1201,2815994,6540.75,-182.39,-690.2399999999998
817,0.817000,1202,2816994,1577.75,-543.39,-2118.24
818,0.818000,1203,2817994,-2617.25,-418.39,-2779.24
819,0.819000,1204,2818994,-1826.25,-666.39,-3311.24
820,0.820000,1205,2819994,-597.25,-796.39,-3154.24
821,0.821000,1206,2820994,676.75,-803.39,-2087.24
822,0.821999,1207,2821993,118.75,-712.39,-1467.2399999999998
823,0.823000,1208,2822994,-352.25,-204.39,-766.2399999999998
824,0.824000,1209,2823994,-1620.25,-235.39,1584.7600000000002
825,0.825000,1210,2824994,-2243.25,393.61,3448.76
826,0.826000,1211,2825994,-1765.25,1294.61,3113.76
827,0.827000,1212,2826994,-2006.25,1157.61,3277.76
828,0.828000,1213,2827994,-1312.25,1129.61,4675.76
829,0.829000,1214,2828994,-5759.25,710.61,4100.76
830,0.830000,1215,2829994,-9246.25,-65.39,2004.7600000000002
831,0.831000,1216,2830994,-11324.25,130.61,-711.2399999999998
832,0.832000,1217,2831994,-6141.25,46.61,-1689.2399999999998
833,0.833000,1218,2832994,4510.75,-397.39,-1621.2399999999998
834,0.834000,1219,2833994,10798.75,-192.39,-3599.24
835,0.835000,1220,2834994,12271.75,-163.39,-2754.24
836,0.836000,1221,2835994,7930.75,-183.39,-526.2399999999998
837,0.837000,1222,2836994,2125.75,16.61,-501.2399999999998
838,0.838000,1223,2837994,-3598.25,-136.39,-320.2399999999998
839,0.839000,1224,2838994,-6511.25,-427.39,95.76000000000022
840,0.839999,1225,2839993,-4148.25,-424.39,-306.2399999999998
841,0.841000,1226,2840994,856.75,-399.39,-1404.2399999999998
842,0.842000,1227,2841994,2209.75,-237.39,-2077.24
843,0.843000,1228,2842994,985.75,-307.39,-1776.2399999999998
844,0.844000,1229,2843994,-3940.25,-53.39,-757.2399999999998
845,0.845000,1230,2844994,-6692.25,-198.39,1332.7600000000002
846,0.846000,1231,2845994,-5561.25,-477.39,2694.76
847,0.847000,1232,2846994,-4358.25,-56.39,3429.76
848,0.848000,1233,2847994,-198.25,360.61,3694.76
849,0.849000,1234,2848994,2981.75,1210.61,1490.7600000000002
850,0.850000,1235,2849994,7918.75,1231.61,369.7600000000002
851,0.851000,1236,2850994,11562.75,349.61,1054.7600000000002
852,0.852000,1237,2851994,8284.75,143.61,-34.23999999999978
853,0.853000,1238,2852994,3536.75,-221.39,-1444.2399999999998
854,0.854000,1239,2853994,-827.25,-623.39,-2182.24
855,0.855000,1240,2854994,-2526.25,-555.39,-3145.24
856,0.856000,1241,2855994,-1293.25,-570.39,-3400.24
857,0.857000,1242,2856994,272.75,-927.39,-2535.24
858,0.858000,1243,2857994,939.75,-903.39,-1892.2399999999998
859,0.859000,1244,2858994,-664.25,-27.39,-1528.2399999999998
860,0.860000,1245,2859994,-1762.25,-306.39,428.7600000000002
861,0.861000,1246,2860994,-1369.25,-288.39,2841.76
862,0.862000,1247,2861994,-741.25,827.61,3560.76
863,0.863000,1248,2862994,-2573.25,1422.61,2861.76
864,0.864000,1249,2863994,-1814.25,1191.61,3508.76
865,0.865000,1250,2864994,-3051.25,1039.61,4736.76
866,0.866000,1251,2865994,-8531.25,451.61,3418.76
867,0.867000,1252,2866994,-9799.25,-234.39,497.7600000000002
868,0.868000,1253,2867994,-9048.25,138.61,-1467.2399999999998
869,0.869000,1254,2868994,-1644.25,-190.39,-1473.2399999999998
870,0.870000,1255,2869994,6916.75,-342.39,-2602.24
871,0.871000,1256,2870994,12217.75,-186.39,-3540.24
872,0.872000,1257,2871994,12030.75,-251.39,-1368.2399999999998
873,0.873000,1258,2872994,5290.75,-0.39000000000000057,-328.2399999999998
874,0.874000,1259,2873994,-1213.25,112.61,-556.2399999999998
875,0.875000,1260,2874994,-6022.25,-411.39,98.76000000000022
876,0.876000,1261,2875994,-5848.25,-359.39,-59.23999999999978
877,0.877000,1262,2876994,-1369.25,-327.39,-927.2399999999998
878,0.878000,1263,2877994,1420.75,-470.39,-1814.2399999999998
879,0.879000,1264,2878994,2016.75,-295.39,-1864.2399999999998
880,0.880000,1265,2879994,-960.25,-330.39,-1315.2399999999998
881,0.881000,1266,2880994,-5384.25,-5.390000000000001,-50.23999999999978
882,0.882000,1267,2881994,-6187.25,-359.39,2088.76
883,0.882999,1268,2882993,-5402.25,-368.39,3067.76
884,0.884000,1269,2883994,-3661.25,335.61,3552.76
885,0.885000,1270,2884994,2502.75,660.61,3094.76
886,0.886000,1271,2885994,7070.75,1408.61,660.7600000000002
887,0.887000,1272,2886994,8934.75,1075.61,536.7600000000002
888,0.887999,1273,2887993,9340.75,170.61,1147.7600000000002
889,0.889000,1274,2888994,6484.75,-173.39,-673.2399999999998
890,0.890000,1275,2889994,1711.75,-433.39,-2047.2399999999998
891,0.891000,1276,2890994,-2188.25,-476.39,-2608.24
892,0.892000,1277,2891994,-1767.25,-694.39,-3390.24
893,0.893000,1278,2892994,-520.25,-842.39,-3249.24
894,0.894000,1279,2893994,400.75,-759.39,-2184.24
895,0.895000,1280,2894994,37.75,-740.39,-1545.2399999999998
896,0.896000,1281,2895994,-411.25,-311.39,-848.2399999999998
897,0.896999,1282,2896993,-1925.25,-213.39,1557.7600000000002
898,0.898000,1283,2897994,-2487.25,361.61,3316.76
899,0.899000,1284,2898994,-1783.25,1154.61,2974.76
900,0.900000,1285,2899994,-1503.25,1207.61,3257.76
901,0.901000,1286,2900994,-1337.25,1265.61,4633.76
902,0.901999,1287,2901993,-5529.25,539.61,4259.76
903,0.903000,1288,2902994,-9324.25,135.61,2043.7600000000002
904,0.904000,1289,2903994,-11585.25,220.61,-426.2399999999998
905,0.905000,1290,2904994,-6258.25,-131.39,-1533.2399999999998
906,0.906000,1291,2905994,4491.75,-289.39,-1763.2399999999998
907,0.907000,1292,2906994,10778.75,-48.39,-3726.24
908,0.908000,1293,2907994,12290.75,-224.39,-2731.24
909,0.909000,1294,2908994,8142.75,-272.39,-483.2399999999998
910,0.910000,1295,2909994,2431.75,18.61,-701.2399999999998
911,0.911000,1296,2910994,-3732.25,-167.39,-284.2399999999998
912,0.912000,1297,2911994,-6836.25,-504.39,154.76000000000022
913,0.913000,1298,2912994,-4190.25,-429.39,-381.2399999999998
914,0.914000,1299,2913994,589.75,-282.39,-1538.2399999999998
915,0.915000,1300,2914994,2531.75,-467.39,-1959.2399999999998
916,0.916000,1301,2915994,880.75,-213.39,-1703.2399999999998
917,0.917000,1302,2916994,-3573.25,-28.39,-744.2399999999998
918,0.918000,1303,2917994,-7032.25,-330.39,1144.7600000000002
919,0.919000,1304,2918994,-5886.25,-335.39,2625.76
920,0.920000,1305,2919994,-3794.25,21.61,3708.76
921,0.921000,1306,2920994,-284.25,486.61,3707.76
922,0.922000,1307,2921994,3075.75,1171.61,1558.7600000000002
923,0.923000,1308,2922994,7502.75,1226.61,445.7600000000002
924,0.924000,1309,2923994,11401.75,458.61,1190.7600000000002
925,0.925000,1310,2924994,8433.75,-12.39,54.76000000000022
926,0.926000,1311,2925994,3678.75,-243.39,-1515.2399999999998
927,0.927000,1312,2926994,-517.25,-551.39,-2197.24
928,0.928000,1313,2927994,-2536.25,-589.39,-3190.24
929,0.929000,1314,2928994,-1164.25,-528.39,-3398.24
930,0.930000,1315,2929994,417.75,-903.39,-2722.24
931,0.931000,1316,2930994,792.75,-952.39,-1940.2399999999998
932,0.932000,1317,2931994,-522.25,-260.39,-1359.2399999999998
933,0.933000,1318,2932994,-1806.25,-190.39,403.7600000000002
934,0.934000,1319,2933994,-1593.25,-173.39,2781.76
935,0.935000,1320,2934994,-1079.25,744.61,3422.76
936,0.936000,1321,2935994,-2707.25,1418.61,2788.76
937,0.936999,1322,2936993,-1715.25,1106.61,3686.76
938,0.938000,1323,2937994,-3471.25,931.61,4893.76
939,0.939000,1324,2938994,-8673.25,541.61,3335.76
940,0.940000,1325,2939994,-9711.25,-135.39,592.7600000000002
941,0.941000,1326,2940994,-8865.25,8.61,-1286.2399999999998
942,0.942000,1327,2941994,-832.25,-33.39,-1346.2399999999998
943,0.943000,1328,2942994,7057.75,-209.39,-2789.24
944,0.944000,1329,2943994,12102.75,-171.39,-3543.24
945,0.945000,1330,2944994,12080.75,-318.39,-1076.2399999999998
946,0.946000,1331,2945994,5248.75,-140.39,-551.2399999999998
947,0.947000,1332,2946994,-1535.25,223.61,-742.2399999999998
948,0.948000,1333,2947994,-6130.25,-535.39,162.76000000000022
949,0.949000,1334,2948994,-5448.25,-732.39,-227.23999999999978
950,0.950000,1335,2949994,-1486.25,-111.39,-1312.2399999999998
951,0.951000,1336,2950994,1786.75,-493.39,-1844.2399999999998
952,0.952000,1337,2951994,1693.75,-325.39,-1881.2399999999998
953,0.953000,1338,2952994,-1487.25,-80.39,-1411.2399999999998
954,0.954000,1339,2953994,-5182.25,-253.39,323.7600000000002
955,0.955000,1340,2954994,-6154.25,-381.39,2302.76
956,0.956000,1341,2955994,-5603.25,-63.39,3152.76
957,0.957000,1342,2956994,-3865.25,219.61,3925.76
958,0.958000,1343,2957994,2563.75,740.61,3075.76
959,0.959000,1344,2958994,7320.75,1584.61,581.7600000000002
960,0.960000,1345,2959994,9125.75,926.61,644.7600000000002
961,0.961000,1346,2960994,9600.75,98.61,1043.7600000000002
962,0.962000,1347,2961994,6653.75,-220.39,-841.2399999999998
963,0.963000,1348,2962994,1187.75,-444.39,-2171.24
964,0.964000,1349,2963994,-2763.25,-531.39,-2762.24
965,0.965000,1350,2964994,-1915.25,-658.39,-3522.24
966,0.966000,1351,2965994,-418.25,-893.39,-3091.24
967,0.966999,1352,2966993,826.75,-811.39,-2132.24
968,0.968000,1353,2967994,263.75,-618.39,-1600.2399999999998
969,0.969000,1354,2968994,-589.25,-157.39,-738.2399999999998
970,0.970000,1355,2969994,-1868.25,-245.39,1588.7600000000002
971,0.971000,1356,2970994,-2309.25,333.61,3380.76
972,0.972000,1357,2971994,-1508.25,1194.61,3176.76
973,0.973000,1358,2972994,-1657.25,1163.61,3339.76
974,0.974000,1359,2973994,-1244.25,1102.61,4519.76
975,0.975000,1360,2974994,-5666.25,765.61,4142.76
976,0.976000,1361,2975994,-9298.25,29.61,2174.76
977,0.977000,1362,2976994,-11347.25,112.61,-552.2399999999998
978,0.978000,1363,2977994,-6751.25,98.61,-1728.2399999999998
979,0.979000,1364,2978994,4402.75,-515.39,-1610.2399999999998
980,0.980000,1365,2979994,10499.75,-14.39,-3569.24
981,0.981000,1366,2980994,12446.75,-136.39,-2612.24
982,0.982000,1367,2981994,8348.75,-303.39,-502.2399999999998
983,0.983000,1368,2982994,2257.75,143.61,-638.2399999999998
984,0.984000,1369,2983994,-3607.25,-177.39,-152.23999999999978
985,0.985000,1370,2984994,-6495.25,-516.39,139.76000000000022
986,0.986000,1371,2985994,-4368.25,-332.39,-477.2399999999998
987,0.987000,1372,2986994,452.75,-460.39,-1543.2399999999998
988,0.988000,1373,2987994,2582.75,-423.39,-1934.2399999999998
989,0.989000,1374,2988994,738.75,-233.39,-1809.2399999999998
990,0.990000,1375,2989994,-3647.25,-64.39,-1060.2399999999998
991,0.991000,1376,2990994,-7049.25,-200.39,1131.7600000000002
992,0.992000,1377,2991994,-5374.25,-511.39,2803.76
993,0.993000,1378,2992994,-3769.25,25.61,3485.76
994,0.994000,1379,2993994,-513.25,474.61,3786.76
995,0.995000,1380,2994994,2879.75,1152.61,1949.7600000000002
996,0.996000,1381,2995994,7325.75,1383.61,476.7600000000002
997,0.997000,1382,2996994,11726.75,332.61,1161.7600000000002
998,0.998000,1383,2997994,8413.75,98.61,161.76000000000022
999,0.998999,1384,2998993,3628.75,-126.39,-1442.2399999999998
1000,1.000000,1385,2999994,-577.25,-632.39,-2348.24
1001,1.001000,1386,3000994,-2836.25,-654.39,-3245.24
1002,1.001999,1387,3001993,-1088.25,-598.39,-3292.24
1003,1.003000,1388,3002994,256.75,-836.39,-2693.24
1004,1.004000,1389,3003994,796.75,-1032.39,-2063.24
1005,1.005000,1390,3004994,-624.25,-263.39,-1532.2399999999998
1006,1.006000,1391,3005994,-2011.25,-279.39,524.7600000000002
1007,1.007000,1392,3006994,-1616.25,-228.39,2702.76
1008,1.008000,1393,3007994,-1019.25,868.61,3072.76
1009,1.009000,1394,3008994,-2305.25,1384.61,2746.76
1010,1.010000,1395,3009994,-1142.25,1081.61,3799.76
1011,1.011000,1396,3010994,-2004.25,949.61,4821.76
1012,1.012000,1397,3011994,-8318.25,586.61,3290.76
1013,1.013000,1398,3012994,-10439.25,-20.39,786.7600000000002
1014,1.014000,1399,3013994,-9475.25,-62.39,-1174.2399999999998
1015,1.015000,1400,3014994,-2000.25,-87.39,-1473.2399999999998
1016,1.016000,1401,3015994,6609.75,-293.39,-2679.24
1017,1.017000,1402,3016994,12427.75,-252.39,-3594.24
1018,1.017999,1403,3017993,12154.75,-218.39,-1315.2399999999998
1019,1.019000,1404,3018994,5208.75,-129.39,-338.2399999999998
1020,1.020000,1405,3019994,-1298.25,258.61,-697.2399999999998
1021,1.021000,1406,3020994,-5985.25,-437.39,82.76000000000022
1022,1.022000,1407,3021994,-5184.25,-625.39,154.76000000000022
1023,1.023000,1408,3022994,-1645.25,-248.39,-966.2399999999998
1024,1.024000,1409,3023994,1218.75,-315.39,-1825.2399999999998
1025,1.025000,1410,3024994,1833.75,-316.39,-1884.2399999999998
1026,1.026000,1411,3025994,-1187.25,-171.39,-1461.2399999999998
1027,1.027000,1412,3026994,-5200.25,-20.39,86.76000000000022
1028,1.028000,1413,3027994,-6084.25,-360.39,2039.7600000000002
1029,1.029000,1414,3028994,-5134.25,-241.39,2907.76
1030,1.030000,1415,3029994,-3730.25,190.61,3717.76
1031,1.031000,1416,3030994,2314.75,512.61,3382.76
1032,1.032000,1417,3031994,6760.75,1357.61,771.7600000000002
1033,1.033000,1418,3032994,7802.75,1113.61,235.76000000000022
1034,1.034000,1419,3033994,9694.75,70.61,1193.7600000000002
1035,1.035000,1420,3034994,7534.75,-157.39,-430.2399999999998
1036,1.036000,1421,3035994,2027.75,-296.39,-2138.24
1037,1.037000,1422,3036994,-2201.25,-541.39,-2537.24
1038,1.038000,1423,3037994,-2416.25,-527.39,-3362.24
1039,1.039000,1424,3038994,-708.25,-821.39,-3283.24
1040,1.040000,1425,3039994,708.75,-1059.39,-2220.24
1041,1.041000,1426,3040994,416.75,-473.39,-1631.2399999999998
1042,1.042000,1427,3041994,-96.25,-315.39,-764.2399999999998
1043,1.043000,1428,3042994,-1826.25,-274.39,1371.7600000000002
1044,1.044000,1429,3043994,-2793.25,236.61,3353.76
1045,1.045000,1430,3044994,-1611.25,1131.61,2922.76
1046,1.046000,1431,3045994,-2156.25,1396.61,2892.76
1047,1.047000,1432,3046994,-1005.25,888.61,4796.76
1048,1.048000,1433,3047994,-4835.25,820.61,4181.76
1049,1.048999,1434,3048993,-9114.25,89.61,2153.76
1050,1.050000,1435,3049994,-11542.25,-26.39,-118.23999999999978
1051,1.051000,1436,3050994,-7345.25,185.61,-1642.2399999999998
1052,1.052000,1437,3051994,3955.75,-381.39,-1795.2399999999998
1053,1.053000,1438,3052994,10332.75,-304.39,-3599.24
1054,1.054000,1439,3053994,12282.75,-14.39,-2804.24
1055,1.055000,1440,3054994,8766.75,-200.39,-575.2399999999998
1056,1.056000,1441,3055994,2462.75,4.609999999999999,-533.2399999999998
1057,1.057000,1442,3056994,-3815.25,57.61,-347.2399999999998
1058,1.058000,1443,3057994,-6486.25,-575.39,244.76000000000022
1059,1.059000,1444,3058994,-4412.25,-311.39,-151.23999999999978
1060,1.060000,1445,3059994,898.75,-333.39,-1475.2399999999998
1061,1.061000,1446,3060994,2878.75,-401.39,-2022.2399999999998
1062,1.062000,1447,3061994,1153.75,-185.39,-1633.2399999999998
1063,1.063000,1448,3062994,-3590.25,-188.39,-950.2399999999998
1064,1.064000,1449,3063994,-6901.25,-264.39,810.7600000000002
1065,1.065000,1450,3064994,-6060.25,-382.39,2739.76
1066,1.066000,1451,3065994,-4022.25,-98.39,3525.76
1067,1.067000,1452,3066994,-764.25,423.61,3319.76
1068,1.068000,1453,3067994,1911.75,1120.61,1700.7600000000002
1069,1.069000,1454,3068994,7438.75,1184.61,738.7600000000002
1070,1.070000,1455,3069994,11602.75,532.61,977.7600000000002
1071,1.071000,1456,3070994,9006.75,200.61,162.76000000000022
1072,1.072000,1457,3071994,4330.75,-112.39,-1185.2399999999998
1073,1.073000,1458,3072994,32.75,-619.39,-2160.24
1074,1.073999,1459,3073993,-2699.25,-591.39,-3036.24
1075,1.075000,1460,3074994,-1487.25,-619.39,-3124.24
1076,1.076000,1461,3075994,225.75,-811.39,-2671.24
1077,1.077000,1462,3076994,647.75,-910.39,-2174.24
1078,1.078000,1463,3077994,-517.25,-367.39,-1571.2399999999998
1079,1.079000,1464,3078994,-1597.25,-132.39,207.76000000000022
1080,1.080000,1465,3079994,-1419.25,-243.39,2473.76
1081,1.081000,1466,3080994,-1217.25,654.61,3262.76
1082,1.082000,1467,3081994,-2759.25,1473.61,2801.76
1083,1.083000,1468,3082994,-1527.25,985.61,3710.76
1084,1.084000,1469,3083994,-2648.25,931.61,4922.76
1085,1.085000,1470,3084994,-8859.25,776.61,3379.76
1086,1.085999,1471,3085993,-9709.25,-198.39,924.7600000000002
1087,1.087000,1472,3086994,-9032.25,64.61,-1023.2399999999998
1088,1.088000,1473,3087994,-2042.25,-171.39,-1276.2399999999998
1089,1.089000,1474,3088994,6615.75,-311.39,-2565.24
1090,1.090000,1475,3089994,12276.75,-115.39,-3532.24
1091,1.091000,1476,3090994,12590.75,-389.39,-1309.2399999999998
1092,1.092000,1477,3091994,5127.75,163.61,-659.2399999999998
1093,1.093000,1478,3092994,-1279.25,131.61,-771.2399999999998
1094,1.094000,1479,3093994,-5908.25,-611.39,-45.23999999999978
1095,1.095000,1480,3094994,-5628.25,-380.39,-301.2399999999998
1096,1.096000,1481,3095994,-1550.25,-367.39,-911.2399999999998
1097,1.097000,1482,3096994,1422.75,-625.39,-1663.2399999999998
1098,1.098000,1483,3097994,1986.75,-254.39,-1912.2399999999998
1099,1.099000,1484,3098994,-1080.25,-226.39,-1340.2399999999998
1100,1.100000,1485,3099994,-5013.25,-65.39,26.76000000000022
1101,1.101000,1486,3100994,-5834.25,-169.39,2038.7600000000002
1102,1.102000,1487,3101994,-5235.25,-271.39,3146.76
1103,1.103000,1488,3102994,-4088.25,159.61,3846.76
1104,1.104000,1489,3103994,1851.75,646.61,3206.76
1105,1.105000,1490,3104994,6352.75,1455.61,675.7600000000002
1106,1.106000,1491,3105994,8063.75,1037.61,497.7600000000002
1107,1.107000,1492,3106994,9832.75,82.61,1165.7600000000002
1108,1.108000,1493,3107994,7514.75,-191.39,-689.2399999999998
1109,1.109000,1494,3108994,2056.75,-315.39,-2132.24
1110,1.110000,1495,3109994,-2090.25,-466.39,-2606.24
1111,1.111000,1496,3110994,-2290.25,-632.39,-3537.24
1112,1.112000,1497,3111994,-541.25,-866.39,-3141.24
1113,1.113000,1498,3112994,768.75,-867.39,-2104.24
1114,1.114000,1499,3113994,639.75,-566.39,-1789.2399999999998
1115,1.115000,1500,3114994,-353.25,-285.39,-978.2399999999998
1116,1.116000,1501,3115994,-2308.25,-279.39,1502.7600000000002
1117,1.117000,1502,3116994,-2505.25,333.61,3282.76
1118,1.118000,1503,3117994,-2041.25,1136.61,2872.76
1119,1.119000,1504,3118994,-1807.25,1082.61,3337.76
1120,1.120000,1505,3119994,-1181.25,1121.61,4670.76
1121,1.121000,1506,3120994,-5321.25,676.61,4269.76
1122,1.122000,1507,3121994,-9518.25,203.61,2056.76
1123,1.123000,1508,3122994,-11879.25,164.61,-391.2399999999998
1124,1.124000,1509,3123994,-6498.25,39.61,-1252.2399999999998
1125,1.125000,1510,3124994,4672.75,-415.39,-1497.2399999999998
1126,1.125999,1511,3125993,10946.75,-224.39,-3612.24
1127,1.127000,1512,3126994,12394.75,-101.39,-2710.24
1128,1.128000,1513,3127994,8356.75,-141.39,-530.2399999999998
1129,1.129000,1514,3128994,2231.75,54.61,-814.2399999999998
1130,1.129999,1515,3129993,-3893.25,-160.39,-612.2399999999998
1131,1.131000,1516,3130994,-6426.25,-589.39,6.760000000000218
1132,1.132000,1517,3131994,-3985.25,-589.39,-414.2399999999998
1133,1.133000,1518,3132994,542.75,-252.39,-1611.2399999999998
1134,1.134000,1519,3133994,2201.75,-435.39,-1980.2399999999998
1135,1.135000,1520,3134994,882.75,-249.39,-1720.2399999999998
1136,1.136000,1521,3135994,-4031.25,-5.390000000000001,-771.2399999999998
1137,1.137000,1522,3136994,-6842.25,-336.39,1227.7600000000002
1138,1.138000,1523,3137994,-5686.25,-412.39,2711.76
1139,1.139000,1524,3138994,-3765.25,31.61,3522.76
1140,1.140000,1525,3139994,-41.25,434.61,3753.76
1141,1.141000,1526,3140994,2202.75,1267.61,1720.7600000000002
1142,1.142000,1527,3141994,7383.75,1266.61,517.7600000000002
1143,1.143000,1528,3142994,11293.75,480.61,1133.7600000000002
1144,1.144000,1529,3143994,8903.75,49.61,262.7600000000002
1145,1.145000,1530,3144994,4078.75,-245.39,-1491.2399999999998
1146,1.146000,1531,3145994,-360.25,-567.39,-2413.24
1147,1.147000,1532,3146994,-2728.25,-661.39,-3172.24
1148,1.148000,1533,3147994,-1538.25,-605.39,-3478.24
1149,1.149000,1534,3148994,338.75,-828.39,-2889.24
1150,1.150000,1535,3149994,822.75,-959.39,-2074.24
1151,1.151000,1536,3150994,-162.25,-275.39,-1543.2399999999998
1152,1.152000,1537,3151994,-1645.25,-140.39,369.7600000000002
1153,1.153000,1538,3152994,-1423.25,-344.39,2984.76
1154,1.154000,1539,3153994,-1442.25,849.61,3427.76
1155,1.155000,1540,3154994,-2619.25,1428.61,2869.76
1156,1.156000,1541,3155994,-1352.25,1047.61,3919.76
1157,1.157000,1542,3156994,-3883.25,1185.61,4870.76
1158,1.158000,1543,3157994,-8929.25,491.61,3136.76
1159,1.159000,1544,3158994,-9997.25,-127.39,751.7600000000002
1160,1.160000,1545,3159994,-8831.25,-16.39,-1073.2399999999998
1161,1.161000,1546,3160994,-474.25,-174.39,-1487.2399999999998
1162,1.162000,1547,3161994,6989.75,-177.39,-2784.24
1163,1.162999,1548,3162993,12509.75,-401.39,-3345.24
1164,1.164000,1549,3163994,11849.75,-226.39,-1267.2399999999998
1165,1.165000,1550,3164994,4821.75,89.61,-657.2399999999998
1166,1.166000,1551,3165994,-1371.25,37.61,-734.2399999999998
1167,1.167000,1552,3166994,-5866.25,-403.39,-106.23999999999978
1168,1.168000,1553,3167994,-5189.25,-626.39,-144.23999999999978
1169,1.169000,1554,3168994,-1406.25,-409.39,-1188.2399999999998
1170,1.170000,1555,3169994,1739.75,-369.39,-1807.2399999999998
1171,1.171000,1556,3170994,1706.75,-376.39,-1686.2399999999998
1172,1.172000,1557,3171994,-1853.25,-169.39,-1358.2399999999998
1173,1.173000,1558,3172994,-5702.25,-37.39,-25.23999999999978
1174,1.174000,1559,3173994,-5869.25,-470.39,2259.76
1175,1.175000,1560,3174994,-5000.25,-238.39,3398.76
1176,1.176000,1561,3175994,-3471.25,330.61,3716.76
1177,1.177000,1562,3176994,1869.75,723.61,3080.76
1178,1.178000,1563,3177994,6875.75,1435.61,877.7600000000002
1179,1.179000,1564,3178994,9113.75,1017.61,588.7600000000002
1180,1.180000,1565,3179994,9855.75,137.61,999.7600000000002
1181,1.181000,1566,3180994,6960.75,-185.39,-650.2399999999998
1182,1.182000,1567,3181994,1514.75,-352.39,-2200.24
1183,1.183000,1568,3182994,-2567.25,-489.39,-2860.24
1184,1.183999,1569,3183993,-2540.25,-708.39,-3358.24
1185,1.185000,1570,3184994,-143.25,-966.39,-3105.24
1186,1.186000,1571,3185994,652.75,-850.39,-2443.24
1187,1.187000,1572,3186994,185.75,-599.39,-1759.2399999999998
1188,1.187999,1573,3187993,-145.25,-453.39,-686.2399999999998
1189,1.189000,1574,3188994,-1838.25,-37.39,1528.7600000000002
1190,1.190000,1575,3189994,-1963.25,467.61,3357.76
1191,1.191000,1576,3190994,-1925.25,1028.61,3138.76
1192,1.192000,1577,3191994,-2025.25,1120.61,3448.76
1193,1.193000,1578,3192994,-1433.25,1216.61,4718.76
1194,1.194000,1579,3193994,-6116.25,781.61,4156.76
1195,1.195000,1580,3194994,-9707.25,42.61,1962.7600000000002
1196,1.196000,1581,3195994,-11276.25,163.61,-462.2399999999998
1197,1.196999,1582,3196993,-5737.25,-19.39,-1388.2399999999998
1198,1.197999,1583,3197993,4577.75,-456.39,-1857.2399999999998
1199,1.199000,1584,3198994,10894.75,-126.39,-3821.24
1200,1.200000,1585,3199994,12658.75,-311.39,-2414.24
1201,1.201000,1586,3200994,7742.75,-252.39,-578.2399999999998
1202,1.202000,1587,3201994,2072.75,299.61,-815.2399999999998
1203,1.203000,1588,3202994,-3806.25,-317.39,-183.23999999999978
1204,1.204000,1589,3203994,-6102.25,-561.39,109.76000000000022
1205,1.205000,1590,3204994,-3936.25,-287.39,-541.2399999999998
1206,1.206000,1591,3205994,519.75,-412.39,-1447.2399999999998
1207,1.207000,1592,3206994,2374.75,-420.39,-1875.2399999999998
1208,1.208000,1593,3207994,176.75,-229.39,-1873.2399999999998
1209,1.209000,1594,3208994,-4092.25,-89.39,-788.2399999999998
1210,1.210000,1595,3209994,-6731.25,-255.39,1299.7600000000002
1211,1.211000,1596,3210994,-5318.25,-499.39,2743.76
1212,1.212000,1597,3211994,-3475.25,49.61,3716.76
1213,1.212999,1598,3212993,-339.25,531.61,3821.76
1214,1.214000,1599,3213994,2854.75,1150.61,1364.7600000000002
1215,1.215000,1600,3214994,7354.75,1276.61,435.7600000000002
1216,1.216000,1601,3215994,11205.75,453.61,1438.7600000000002
1217,1.217000,1602,3216994,9113.75,12.61,220.76000000000022
1218,1.218000,1603,3217994,3689.75,-257.39,-1672.2399999999998
1219,1.219000,1604,3218994,-597.25,-536.39,-2239.24
1220,1.220000,1605,3219994,-2648.25,-511.39,-3124.24
1221,1.221000,1606,3220994,-1649.25,-623.39,-3588.24
1222,1.222000,1607,3221994,421.75,-932.39,-2695.24
1223,1.223000,1608,3222994,1081.75,-1045.39,-1837.2399999999998
1224,1.224000,1609,3223994,-60.25,-145.39,-1578.2399999999998
1225,1.225000,1610,3224994,-1952.25,-251.39,247.76000000000022
1226,1.226000,1611,3225994,-2137.25,-301.39,2972.76
1227,1.227000,1612,3226994,-1514.25,953.61,3356.76
1228,1.228000,1613,3227994,-2586.25,1404.61,2703.76
1229,1.229000,1614,3228994,-806.25,1024.61,4079.76
1230,1.230000,1615,3229994,-4150.25,1238.61,4898.76
1231,1.230999,1616,3230993,-9152.25,583.61,3049.76
1232,1.232000,1617,3231994,-10094.25,-216.39,728.7600000000002
1233,1.232999,1618,3232993,-9173.25,269.61,-1271.2399999999998
1234,1.234000,1619,3233994,426.75,-296.39,-1334.2399999999998
1235,1.235000,1620,3234994,7798.75,-247.39,-2794.24
1236,1.236000,1621,3235994,12415.75,-87.39,-3618.24
1237,1.237000,1622,3236994,11354.75,-330.39,-1148.2399999999998
1238,1.238000,1623,3237994,4792.75,-82.39,-461.2399999999998
1239,1.239000,1624,3238994,-1612.25,54.61,-643.2399999999998
1240,1.240000,1625,3239994,-6412.25,-494.39,-101.23999999999978
1241,1.241000,1626,3240994,-4924.25,-635.39,-211.23999999999978
1242,1.242000,1627,3241994,-848.25,-366.39,-1269.2399999999998
1243,1.243000,1628,3242994,1891.75,-450.39,-1850.2399999999998
1244,1.243999,1629,3243993,1028.75,-250.39,-1817.2399999999998
1245,1.245000,1630,3244994,-2197.25,-182.39,-1484.2399999999998
1246,1.246000,1631,3245994,-5612.25,-105.39,412.7600000000002
1247,1.247000,1632,3246994,-6109.25,-313.39,2572.76
1248,1.248000,1633,3247994,-4933.25,-151.39,3159.76
1249,1.249000,1634,3248994,-2939.25,282.61,3686.76
1250,1.250000,1635,3249994,2723.75,804.61,3192.76
1251,1.251000,1636,3250994,7422.75,1446.61,775.7600000000002
1252,1.252000,1637,3251994,8831.75,979.61,401.7600000000002
1253,1.253000,1638,3252994,8825.75,206.61,946.7600000000002
1254,1.253999,1639,3253993,6739.75,-375.39,-596.2399999999998
1255,1.255000,1640,3254994,1345.75,-455.39,-2238.24
1256,1.256000,1641,3255994,-2394.25,-565.39,-2891.24
1257,1.257000,1642,3256994,-2103.25,-699.39,-3453.24
1258,1.258000,1643,3257994,-706.25,-685.39,-3448.24
1259,1.259000,1644,3258994,986.75,-906.39,-2460.24
1260,1.260000,1645,3259994,675.75,-725.39,-1647.2399999999998
1261,1.261000,1646,3260994,-40.25,-287.39,-576.2399999999998
1262,1.262000,1647,3261994,-2131.25,-148.39,1778.7600000000002
1263,1.263000,1648,3262994,-2155.25,428.61,3551.76
1264,1.264000,1649,3263994,-2515.25,1283.61,3184.76
1265,1.265000,1650,3264994,-2624.25,1191.61,3402.76
1266,1.266000,1651,3265994,-1311.25,1068.61,4825.76
1267,1.267000,1652,3266994,-6007.25,683.61,4208.76
1268,1.268000,1653,3267994,-9527.25,133.61,1892.7600000000002
1269,1.269000,1654,3268994,-11174.25,42.61,-720.2399999999998
1270,1.270000,1655,3269994,-5314.25,-36.39,-1574.2399999999998
1271,1.271000,1656,3270994,4933.75,-277.39,-1874.2399999999998
1272,1.272000,1657,3271994,11331.75,-265.39,-3636.24
1273,1.273000,1658,3272994,12361.75,-91.39,-2484.24
1274,1.274000,1659,3273994,7761.75,-205.39,-489.2399999999998
1275,1.275000,1660,3274994,1594.75,-43.39,-657.2399999999998
1276,1.275999,1661,3275993,-4303.25,-133.39,-392.2399999999998
1277,1.277000,1662,3276994,-6418.25,-546.39,-18.23999999999978
1278,1.278000,1663,3277994,-3534.25,-520.39,-722.2399999999998
1279,1.279000,1664,3278994,1265.75,-283.39,-1580.2399999999998
1280,1.280000,1665,3279994,2188.75,-446.39,-1894.2399999999998
1281,1.281000,1666,3280994,480.75,-243.39,-1672.2399999999998
1282,1.282000,1667,3281994,-4669.25,57.61,-539.2399999999998
1283,1.283000,1668,3282994,-6851.25,-466.39,1566.7600000000002
1284,1.284000,1669,3283994,-5722.25,-329.39,3014.76
1285,1.285000,1670,3284994,-4058.25,150.61,3615.76
1286,1.286000,1671,3285994,756.75,494.61,3557.76
1287,1.287000,1672,3286994,3498.75,1240.61,1376.7600000000002
1288,1.288000,1673,3287994,7570.75,1127.61,428.7600000000002
1289,1.289000,1674,3288994,10854.75,452.61,1166.7600000000002
1290,1.290000,1675,3289994,8625.75,-119.39,-16.23999999999978
1291,1.290999,1676,3290993,3535.75,-222.39,-1634.2399999999998
1292,1.292000,1677,3291994,-1012.25,-507.39,-2386.24
1293,1.293000,1678,3292994,-2187.25,-720.39,-3255.24
1294,1.294000,1679,3293994,-1362.25,-564.39,-3477.24
1295,1.295000,1680,3294994,554.75,-885.39,-2719.24
1296,1.296000,1681,3295994,905.75,-882.39,-2036.2399999999998
1297,1.297000,1682,3296994,-280.25,-66.39,-1341.2399999999998
1298,1.297999,1683,3297993,-1796.25,-389.39,759.7600000000002
1299,1.299000,1684,3298994,-2174.25,-126.39,3020.76
1300,1.300000,1685,3299994,-1188.25,980.61,3452.76
1301,1.301000,1686,3300994,-2299.25,1321.61,2841.76
1302,1.302000,1687,3301994,-1218.25,1173.61,3903.76
1303,1.303000,1688,3302994,-4637.25,941.61,4810.76
1304,1.303999,1689,3303993,-9422.25,404.61,2896.76
1305,1.305000,1690,3304994,-10178.25,-2.3900000000000006,545.7600000000002
1306,1.306000,1691,3305994,-8673.25,-5.390000000000001,-1163.2399999999998
1307,1.307000,1692,3306994,609.75,-245.39,-1538.2399999999998
1308,1.308000,1693,3307994,8023.75,-143.39,-2918.24
1309,1.309000,1694,3308994,12707.75,-314.39,-3415.24
1310,1.310000,1695,3309994,11043.75,-30.39,-1130.2399999999998
1311,1.311000,1696,3310994,4627.75,-55.39,-516.2399999999998
1312,1.312000,1697,3311994,-1542.25,-231.39,-546.2399999999998
1313,1.313000,1698,3312994,-6424.25,-335.39,-7.239999999999782
1314,1.314000,1699,3313994,-4715.25,-516.39,-182.23999999999978
1315,1.315000,1700,3314994,-1048.25,-365.39,-1264.2399999999998
1316,1.316000,1701,3315994,1919.75,-477.39,-1906.2399999999998
1317,1.317000,1702,3316994,1113.75,-277.39,-1958.2399999999998
1318,1.318000,1703,3317994,-2663.25,-138.39,-1299.2399999999998
1319,1.319000,1704,3318994,-5768.25,-219.39,503.7600000000002
1320,1.320000,1705,3319994,-6148.25,-266.39,2172.76
1321,1.321000,1706,3320994,-4587.25,-108.39,3299.76
1322,1.322000,1707,3321994,-2600.25,250.61,3862.76
1323,1.323000,1708,3322994,2243.75,896.61,2913.76
1324,1.324000,1709,3323994,7198.75,1419.61,748.7600000000002
1325,1.325000,1710,3324994,9444.75,813.61,625.7600000000002
1326,1.326000,1711,3325994,9026.75,156.61,901.7600000000002
1327,1.327000,1712,3326994,6382.75,-258.39,-811.2399999999998
1328,1.328000,1713,3327994,1385.75,-472.39,-2190.24
1329,1.329000,1714,3328994,-2231.25,-537.39,-2956.24
1330,1.330000,1715,3329994,-2086.25,-610.39,-3637.24
1331,1.331000,1716,3330994,-25.25,-918.39,-3096.24
1332,1.332000,1717,3331994,842.75,-880.39,-2186.24
1333,1.333000,1718,3332994,-58.25,-406.39,-1709.2399999999998
1334,1.334000,1719,3333994,-505.25,-453.39,-490.2399999999998
1335,1.335000,1720,3334994,-2369.25,-181.39,1958.7600000000002
1336,1.336000,1721,3335994,-2256.25,567.61,3376.76
1337,1.337000,1722,3336994,-2227.25,1258.61,2873.76
1338,1.338000,1723,3337994,-2004.25,1055.61,3471.76
1339,1.339000,1724,3338994,-1194.25,1108.61,4918.76
1340,1.340000,1725,3339994,-6090.25,775.61,4138.76
1341,1.341000,1726,3340994,-9788.25,7.609999999999999,1772.7600000000002
1342,1.342000,1727,3341994,-11295.25,126.61,-587.2399999999998
1343,1.342999,1728,3342993,-5316.25,-104.39,-1433.2399999999998
1344,1.344000,1729,3343994,5327.75,-275.39,-1910.2399999999998
1345,1.345000,1730,3344994,11737.75,-97.39,-3744.24
1346,1.346000,1731,3345994,12659.75,-88.39,-2458.24
1347,1.347000,1732,3346994,7565.75,-279.39,-507.2399999999998
1348,1.348000,1733,3347994,1288.75,-28.39,-727.2399999999998
1349,1.349000,1734,3348994,-4723.25,-105.39,-302.2399999999998
1350,1.350000,1735,3349994,-6479.25,-612.39,-1.2399999999997817
1351,1.351000,1736,3350994,-3460.25,-578.39,-740.2399999999998
1352,1.351999,1737,3351993,1074.75,-301.39,-1656.2399999999998
1353,1.353000,1738,3352994,2261.75,-364.39,-1906.2399999999998
1354,1.354000,1739,3353994,251.75,-251.39,-1677.2399999999998
1355,1.355000,1740,3354994,-4436.25,85.61,-487.2399999999998
1356,1.356000,1741,3355994,-6600.25,-320.39,1639.7600000000002
1357,1.357000,1742,3356994,-5795.25,-436.39,3116.76
1358,1.358000,1743,3357994,-3781.25,189.61,3770.76
1359,1.359000,1744,3358994,759.75,701.61,3578.76
1360,1.360000,1745,3359994,3931.75,1134.61,1414.7600000000002
1361,1.361000,1746,3360994,7969.75,1113.61,424.7600000000002
1362,1.362000,1747,3361994,10535.75,463.61,1121.7600000000002
1363,1.363000,1748,3362994,8244.75,-212.39,-100.23999999999978
1364,1.364000,1749,3363994,3104.75,-267.39,-1814.2399999999998
1365,1.364999,1750,3364993,-954.25,-586.39,-2508.24
1366,1.366000,1751,3365994,-2166.25,-657.39,-3352.24
1367,1.367000,1752,3366994,-1366.25,-563.39,-3534.24
1368,1.368000,1753,3367994,246.75,-951.39,-2689.24
1369,1.369000,1754,3368994,1208.75,-1001.39,-1678.2399999999998
1370,1.370000,1755,3369994,-111.25,-115.39,-1184.2399999999998
1371,1.371000,1756,3370994,-2005.25,-55.39,588.7600000000002
1372,1.372000,1757,3371994,-2196.25,-397.39,3105.76
1373,1.372999,1758,3372993,-1350.25,981.61,3469.76
1374,1.374000,1759,3373994,-2137.25,1551.61,2760.76
1375,1.375000,1760,3374994,-1215.25,1070.61,3957.76
1376,1.376000,1761,3375994,-5008.25,1016.61,5030.76
1377,1.376999,1762,3376993,-9186.25,138.61,2966.76
1378,1.378000,1763,3377994,-10277.25,84.61,376.7600000000002
1379,1.379000,1764,3378994,-8624.25,180.61,-1195.2399999999998
1380,1.379999,1765,3379993,1604.75,-359.39,-1546.2399999999998
1381,1.381000,1766,3380994,8162.75,-183.39,-3038.24
1382,1.382000,1767,3381994,12577.75,-284.39,-3334.24
1383,1.383000,1768,3382994,10685.75,-51.39,-1233.2399999999998
1384,1.384000,1769,3383994,4059.75,-68.39,-534.2399999999998
1385,1.385000,1770,3384994,-1930.25,-134.39,-491.2399999999998
1386,1.386000,1771,3385994,-6184.25,-475.39,-60.23999999999978
1387,1.387000,1772,3386994,-4602.25,-600.39,-104.23999999999978
1388,1.388000,1773,3387994,-770.25,-280.39,-1291.2399999999998
1389,1.388999,1774,3388993,1682.75,-332.39,-2093.24
1390,1.390000,1775,3389994,1276.75,-255.39,-1863.2399999999998
1391,1.391000,1776,3390994,-2438.25,-332.39,-1072.2399999999998
1392,1.392000,1777,3391994,-6016.25,-133.39,403.7600000000002
1393,1.393000,1778,3392994,-6055.25,-213.39,2363.76
1394,1.394000,1779,3393994,-4656.25,-141.39,3468.76
1395,1.395000,1780,3394994,-2497.25,257.61,3738.76
1396,1.396000,1781,3395994,1774.75,907.61,2710.76
1397,1.397000,1782,3396994,7283.75,1522.61,712.7600000000002
1398,1.398000,1783,3397994,9874.75,796.61,715.7600000000002
1399,1.399000,1784,3398994,9252.75,81.61,768.7600000000002
1400,1.400000,1785,3399994,6204.75,-192.39,-883.2399999999998
1401,1.401000,1786,3400994,1391.75,-487.39,-2199.24
1402,1.402000,1787,3401994,-2145.25,-583.39,-2946.24
1403,1.403000,1788,3402994,-2157.25,-539.39,-3512.24
1404,1.404000,1789,3403994,-284.25,-747.39,-3190.24
1405,1.405000,1790,3404994,706.75,-1054.39,-2261.24
1406,1.406000,1791,3405994,-66.25,-521.39,-1643.2399999999998
1407,1.407000,1792,3406994,-420.25,-343.39,-438.2399999999998
1408,1.408000,1793,3407994,-1586.25,-209.39,1904.7600000000002
1409,1.409000,1794,3408994,-1870.25,669.61,3457.76
1410,1.410000,1795,3409994,-2673.25,1205.61,2973.76
1411,1.411000,1796,3410994,-2603.25,1054.61,3302.76
1412,1.412000,1797,3411994,-1787.25,1133.61,4798.76
1413,1.413000,1798,3412994,-6608.25,608.61,4264.76
1414,1.414000,1799,3413994,-9895.25,173.61,1643.7600000000002
1415,1.415000,1800,3414994,-10469.25,122.61,-790.2399999999998
1416,1.416000,1801,3415994,-4339.25,-336.39,-1230.2399999999998
1417,1.417000,1802,3416994,5158.75,-60.39,-2068.24
1418,1.418000,1803,3417994,11664.75,-149.39,-3816.24
1419,1.419000,1804,3418994,12573.75,-291.39,-2259.24
1420,1.420000,1805,3419994,7297.75,35.61,-535.2399999999998
1421,1.421000,1806,3420994,1288.75,26.61,-673.2399999999998
1422,1.422000,1807,3421994,-4825.25,-385.39,-305.2399999999998
1423,1.423000,1808,3422994,-6486.25,-434.39,-161.23999999999978
1424,1.424000,1809,3423994,-3356.25,-551.39,-771.2399999999998
1425,1.425000,1810,3424994,1019.75,-499.39,-1651.2399999999998
1426,1.426000,1811,3425994,2111.75,-313.39,-2048.24
1427,1.427000,1812,3426994,-9.25,-170.39,-1667.2399999999998
1428,1.427999,1813,3427993,-4729.25,8.61,-333.2399999999998
1429,1.429000,1814,3428994,-6478.25,-370.39,1600.7600000000002
1430,1.430000,1815,3429994,-5298.25,-337.39,2900.76
1431,1.431000,1816,3430994,-4047.25,132.61,3908.76
1432,1.432000,1817,3431994,888.75,550.61,3786.76
1433,1.433000,1818,3432994,4279.75,1308.61,1051.7600000000002
1434,1.434000,1819,3433994,7666.75,1214.61,482.7600000000002
1435,1.435000,1820,3434994,10576.75,293.61,1460.7600000000002
1436,1.436000,1821,3435994,8727.75,-101.39,-296.2399999999998
1437,1.437000,1822,3436994,3282.75,-174.39,-1910.2399999999998
1438,1.437999,1823,3437993,-1229.25,-602.39,-2401.24
1439,1.439000,1824,3438994,-2531.25,-548.39,-3551.24
1440,1.439999,1825,3439993,-1477.25,-681.39,-3598.24
1441,1.441000,1826,3440994,561.75,-1149.39,-2413.24
1442,1.442000,1827,3441994,952.75,-649.39,-1933.2399999999998
1443,1.443000,1828,3442994,699.75,-370.39,-1123.2399999999998
1444,1.444000,1829,3443994,-2134.25,-306.39,750.7600000000002
1445,1.445000,1830,3444994,-3159.25,95.61,3056.76
1446,1.446000,1831,3445994,-1476.25,1010.61,3328.76
1447,1.447000,1832,3446994,-2679.25,1411.61,2642.76
1448,1.447999,1833,3447993,-840.25,908.61,4386.76
1449,1.448999,1834,3448993,-4625.25,1196.61,4801.76
1450,1.450000,1835,3449994,-8560.25,143.61,2943.76
1451,1.451000,1836,3450994,-10577.25,-80.39,386.7600000000002
1452,1.452000,1837,3451994,-8920.25,370.61,-1343.2399999999998
1453,1.453000,1838,3452994,1949.75,-318.39,-1485.2399999999998
1454,1.454000,1839,3453994,8533.75,-251.39,-3219.24
1455,1.455000,1840,3454994,12653.75,-149.39,-3282.24
1456,1.456000,1841,3455994,10637.75,-262.39,-969.2399999999998
1457,1.456999,1842,3456993,4107.75,-58.39,-535.2399999999998
1458,1.457999,1843,3457993,-2742.25,134.61,-719.2399999999998
1459,1.459000,1844,3458994,-6143.25,-673.39,18.76000000000022
1460,1.460000,1845,3459994,-4545.25,-604.39,-75.23999999999978
1461,1.461000,1846,3460994,-463.25,-340.39,-1471.2399999999998
1462,1.462000,1847,3461994,2036.75,-391.39,-2069.24
1463,1.463000,1848,3462994,603.75,-159.39,-1823.2399999999998
1464,1.464000,1849,3463994,-2912.25,-252.39,-1063.2399999999998
1465,1.465000,1850,3464994,-6165.25,-232.39,644.7600000000002
1466,1.466000,1851,3465994,-5856.25,-264.39,2662.76
1467,1.467000,1852,3466994,-4293.25,-122.39,3397.76
1468,1.468000,1853,3467994,-2082.25,315.61,3514.76
1469,1.469000,1854,3468994,2252.75,959.61,2891.76
1470,1.470000,1855,3469994,7143.75,1375.61,780.7600000000002
1471,1.471000,1856,3470994,9995.75,793.61,451.7600000000002
1472,1.472000,1857,3471994,9005.75,80.61,693.7600000000002
1473,1.473000,1858,3472994,5875.75,-304.39,-881.2399999999998
1474,1.474000,1859,3473994,1220.75,-522.39,-2433.24
1475,1.475000,1860,3474994,-2394.25,-574.39,-3100.24
1476,1.476000,1861,3475994,-1994.25,-581.39,-3458.24
1477,1.477000,1862,3476994,-245.25,-822.39,-3242.24
1478,1.478000,1863,3477994,870.75,-935.39,-2214.24
1479,1.479000,1864,3478994,13.75,-485.39,-1428.2399999999998
1480,1.480000,1865,3479994,-203.25,-246.39,-269.2399999999998
1481,1.481000,1866,3480994,-1861.25,-328.39,2007.7600000000002
1482,1.482000,1867,3481994,-1928.25,617.61,3591.76
1483,1.483000,1868,3482994,-3057.25,1495.61,2880.76
1484,1.484000,1869,3483994,-2827.25,957.61,3215.76
1485,1.485000,1870,3484994,-1133.25,1023.61,4979.76
1486,1.486000,1871,3485994,-6647.25,723.61,4171.76
1487,1.487000,1872,3486994,-9758.25,52.61,1554.7600000000002
1488,1.488000,1873,3487994,-10684.25,51.61,-840.2399999999998
1489,1.488999,1874,3488993,-4335.25,-151.39,-1415.2399999999998
1490,1.490000,1875,3489994,5406.75,-118.39,-2132.24
1491,1.491000,1876,3490994,11928.75,-133.39,-3663.24
1492,1.492000,1877,3491994,12503.75,-225.39,-2337.24
1493,1.493000,1878,3492994,7015.75,-115.39,-526.2399999999998
1494,1.494000,1879,3493994,1092.75,59.61,-511.2399999999998
1495,1.495000,1880,3494994,-4524.25,-323.39,-205.23999999999978
1496,1.496000,1881,3495994,-6047.25,-579.39,-8.239999999999782
1497,1.497000,1882,3496994,-3402.25,-438.39,-749.2399999999998
1498,1.498000,1883,3497994,813.75,-375.39,-1807.2399999999998
1499,1.499000,1884,3498994,1681.75,-451.39,-2008.2399999999998
1500,1.500000,1885,3499994,-256.25,-269.39,-1617.2399999999998
1501,1.501000,1886,3500994,-4479.25,-11.39,-541.2399999999998
1502,1.502000,1887,3501994,-6342.25,-368.39,1709.7600000000002
1503,1.503000,1888,3502994,-5504.25,-305.39,3065.76
1504,1.504000,1889,3503994,-3941.25,220.61,3765.76
1505,1.505000,1890,3504994,1097.75,676.61,3623.76
1506,1.506000,1891,3505994,4642.75,1279.61,1329.7600000000002
1507,1.507000,1892,3506994,7484.75,1100.61,577.7600000000002
1508,1.508000,1893,3507994,10221.75,281.61,1174.7600000000002
1509,1.509000,1894,3508994,8797.75,-132.39,-321.2399999999998
1510,1.510000,1895,3509994,3499.75,-196.39,-1945.2399999999998
1511,1.511000,1896,3510994,-1247.25,-541.39,-2668.24
1512,1.512000,1897,3511994,-2299.25,-699.39,-3543.24
1513,1.513000,1898,3512994,-1428.25,-660.39,-3458.24
1514,1.514000,1899,3513994,437.75,-922.39,-2441.24
1515,1.515000,1900,3514994,911.75,-927.39,-1713.2399999999998
1516,1.516000,1901,3515994,-284.25,-191.39,-1212.2399999999998
1517,1.517000,1902,3516994,-2036.25,-204.39,903.7600000000002
1518,1.518000,1903,3517994,-2677.25,-63.39,3157.76
1519,1.519000,1904,3518994,-1500.25,1026.61,3188.76
1520,1.520000,1905,3519994,-1920.25,1426.61,2827.76
1521,1.521000,1906,3520994,-626.25,1149.61,4330.76
1522,1.522000,1907,3521994,-4660.25,941.61,4939.76
1523,1.523000,1908,3522994,-9001.25,228.61,2717.76
1524,1.524000,1909,3523994,-10793.25,28.61,334.7600000000002
1525,1.525000,1910,3524994,-9187.25,70.61,-1258.2399999999998
1526,1.526000,1911,3525994,2038.75,-258.39,-1597.2399999999998
1527,1.527000,1912,3526994,8682.75,-53.39,-3254.24
1528,1.528000,1913,3527994,12737.75,-337.39,-3383.24
1529,1.529000,1914,3528994,10821.75,-176.39,-990.2399999999998
1530,1.530000,1915,3529994,3899.75,-12.39,-659.2399999999998
1531,1.531000,1916,3530994,-2506.25,-128.39,-645.2399999999998
1532,1.532000,1917,3531994,-6488.25,-460.39,-32.23999999999978
1533,1.533000,1918,3532994,-4621.25,-576.39,-225.23999999999978
1534,1.534000,1919,3533994,-540.25,-265.39,-1269.2399999999998
1535,1.535000,1920,3534994,1999.75,-380.39,-1797.2399999999998
1536,1.536000,1921,3535994,978.75,-342.39,-1722.2399999999998
1537,1.536999,1922,3536993,-3033.25,-159.39,-1005.2399999999998
1538,1.538000,1923,3537994,-6344.25,-77.39,741.7600000000002
1539,1.539000,1924,3538994,-5816.25,-228.39,2401.76
1540,1.540000,1925,3539994,-3880.25,-47.39,3245.76
1541,1.541000,1926,3540994,-1439.25,275.61,3788.76
1542,1.542000,1927,3541994,1826.75,890.61,2724.76
1543,1.543000,1928,3542994,6937.75,1343.61,648.7600000000002
1544,1.544000,1929,3543994,9786.75,705.61,615.7600000000002
1545,1.545000,1930,3544994,8621.75,107.61,603.7600000000002
1546,1.546000,1931,3545994,5991.75,-420.39,-1066.2399999999998
1547,1.546999,1932,3546993,1232.75,-580.39,-2433.24
1548,1.548000,1933,3547994,-2127.25,-408.39,-3107.24
1549,1.549000,1934,3548994,-1830.25,-584.39,-3514.24
1550,1.549999,1935,3549993,-214.25,-894.39,-3026.24
1551,1.551000,1936,3550994,893.75,-776.39,-2027.2399999999998
1552,1.552000,1937,3551994,144.75,-534.39,-1359.2399999999998
1553,1.552999,1938,3552993,-632.25,-208.39,-201.23999999999978
1554,1.554000,1939,3553994,-1945.25,-231.39,2246.76
1555,1.555000,1940,3554994,-1883.25,552.61,3559.76
1556,1.556000,1941,3555994,-3020.25,1389.61,2761.76
1557,1.557000,1942,3556994,-2898.25,1007.61,3319.76
1558,1.557999,1943,3557993,-1119.25,1066.61,4965.76
1559,1.559000,1944,3558994,-6234.25,598.61,4151.76
1560,1.560000,1945,3559994,-9676.25,77.61,1615.7600000000002
1561,1.561000,1946,3560994,-10539.25,15.61,-881.2399999999998
1562,1.562000,1947,3561994,-4639.25,-52.39,-1613.2399999999998
1563,1.563000,1948,3562994,5168.75,-110.39,-2104.24
1564,1.564000,1949,3563994,12061.75,-225.39,-3654.24
1565,1.565000,1950,3564994,12759.75,-230.39,-2397.24
1566,1.566000,1951,3565994,6957.75,-171.39,-574.2399999999998
1567,1.566999,1952,3566993,922.75,21.61,-676.2399999999998
1568,1.568000,1953,3567994,-4808.25,-308.39,-326.2399999999998
1569,1.569000,1954,3568994,-5964.25,-624.39,88.76000000000022
1570,1.570000,1955,3569994,-3561.25,-393.39,-863.2399999999998
1571,1.570999,1956,3570993,1062.75,-247.39,-1781.2399999999998
1572,1.571999,1957,3571993,1980.75,-348.39,-1772.2399999999998
1573,1.572999,1958,3572993,-329.25,-241.39,-1483.2399999999998
1574,1.574000,1959,3573994,-4485.25,-17.39,-293.2399999999998
1575,1.574999,1960,3574993,-6858.25,-328.39,1739.7600000000002
1576,1.576000,1961,3575994,-5252.25,-371.39,3206.76
1577,1.577000,1962,3576994,-4232.25,164.61,3660.76
1578,1.578000,1963,3577994,1468.75,644.61,3416.76
1579,1.579000,1964,3578994,5114.75,1359.61,1327.7600000000002
1580,1.580000,1965,3579994,7465.75,1160.61,379.7600000000002
1581,1.581000,1966,3580994,10493.75,264.61,1067.7600000000002
1582,1.582000,1967,3581994,8272.75,-126.39,-359.2399999999998
1583,1.583000,1968,3582994,3014.75,-189.39,-1954.2399999999998
1584,1.584000,1969,3583994,-1730.25,-598.39,-2680.24
1585,1.585000,1970,3584994,-2106.25,-681.39,-3425.24
1586,1.586000,1971,3585994,-1308.25,-544.39,-3387.24
1587,1.587000,1972,3586994,940.75,-1059.39,-2499.24
1588,1.588000,1973,3587994,971.75,-647.39,-1840.2399999999998
1589,1.589000,1974,3588994,-390.25,-90.39,-1049.2399999999998
1590,1.590000,1975,3589994,-1854.25,-522.39,1074.7600000000002
1591,1.591000,1976,3590994,-3193.25,69.61,3244.76
1592,1.592000,1977,3591994,-1277.25,966.61,3316.76
1593,1.593000,1978,3592994,-2233.25,1464.61,2643.76
1594,1.594000,1979,3593994,-315.25,1146.61,4430.76
1595,1.595000,1980,3594994,-4096.25,969.61,4852.76
1596,1.596000,1981,3595994,-9088.25,381.61,2633.76
1597,1.597000,1982,3596994,-10549.25,-302.39,515.7600000000002
1598,1.598000,1983,3597994,-9350.25,221.61,-1330.2399999999998
1599,1.598999,1984,3598993,1147.75,-192.39,-1748.2399999999998
1600,1.600000,1985,3599994,8483.75,-449.39,-3151.24
1601,1.601000,1986,3600994,12966.75,-187.39,-3465.24
1602,1.602000,1987,3601994,11300.75,-64.39,-1085.2399999999998
1603,1.603000,1988,3602994,4291.75,-149.39,-492.2399999999998
1604,1.604000,1989,3603994,-2874.25,-62.39,-707.2399999999998
1605,1.605000,1990,3604994,-6854.25,-413.39,98.76000000000022
1606,1.606000,1991,3605994,-4871.25,-710.39,14.760000000000218
1607,1.607000,1992,3606994,-252.25,-239.39,-1355.2399999999998
1608,1.608000,1993,3607994,2410.75,-288.39,-1899.2399999999998
1609,1.609000,1994,3608994,1196.75,-317.39,-1625.2399999999998
1610,1.610000,1995,3609994,-2486.25,-151.39,-1161.2399999999998
1611,1.611000,1996,3610994,-6235.25,-130.39,443.7600000000002
1612,1.612000,1997,3611994,-6417.25,-359.39,2581.76
1613,1.613000,1998,3612994,-4590.25,-108.39,3325.76
1614,1.614000,1999,3613994,-1701.25,400.61,3510.76
1615,1.615000,2000,3614994,2389.75,834.61,2831.76
1616,1.616000,2001,3615994,7101.75,1290.61,687.7600000000002
1617,1.617000,2002,3616994,10102.75,742.61,490.7600000000002
1618,1.618000,2003,3617994,8444.75,174.61,587.7600000000002
1619,1.619000,2004,3618994,5511.75,-318.39,-937.2399999999998
1620,1.620000,2005,3619994,931.75,-529.39,-2341.24
1621,1.620999,2006,3620993,-2151.25,-466.39,-3007.24
1622,1.622000,2007,3621994,-1350.25,-660.39,-3312.24
1623,1.623000,2008,3622994,93.75,-899.39,-3030.24
1624,1.624000,2009,3623994,759.75,-826.39,-2020.2399999999998
1625,1.625000,2010,3624994,-317.25,-608.39,-1336.2399999999998
1626,1.626000,2011,3625994,-791.25,-207.39,-423.2399999999998
1627,1.627000,2012,3626994,-2245.25,-129.39,1981.7600000000002
1628,1.628000,2013,3627994,-1852.25,487.61,3500.76
1629,1.628999,2014,3628993,-2120.25,1381.61,2803.76
1630,1.630000,2015,3629994,-2349.25,1126.61,3379.76
1631,1.631000,2016,3630994,-977.25,971.61,5052.76
1632,1.632000,2017,3631994,-5971.25,582.61,3926.76
1633,1.633000,2018,3632994,-10016.25,226.61,1524.7600000000002
1634,1.634000,2019,3633994,-11067.25,-91.39,-475.2399999999998
1635,1.635000,2020,3634994,-4857.25,-82.39,-1711.2399999999998
1636,1.636000,2021,3635994,5358.75,-102.39,-2183.24
1637,1.637000,2022,3636994,11803.75,-302.39,-3634.24
1638,1.638000,2023,3637994,12449.75,-138.39,-2506.24
1639,1.639000,2024,3638994,7127.75,-172.39,-509.2399999999998
1640,1.640000,2025,3639994,1028.75,-47.39,-703.2399999999998
1641,1.641000,2026,3640994,-4983.25,-133.39,-360.2399999999998
1642,1.642000,2027,3641994,-6156.25,-650.39,161.76000000000022
1643,1.643000,2028,3642994,-3419.25,-473.39,-616.2399999999998
1644,1.644000,2029,3643994,1122.75,-217.39,-1750.2399999999998
1645,1.645000,2030,3644994,2492.75,-468.39,-1838.2399999999998
1646,1.646000,2031,3645994,144.75,-247.39,-1322.2399999999998
1647,1.647000,2032,3646994,-4508.25,4.609999999999999,-399.2399999999998
1648,1.648000,2033,3647994,-7119.25,-254.39,1474.7600000000002
1649,1.649000,2034,3648994,-5393.25,-355.39,3124.76
1650,1.650000,2035,3649994,-3930.25,146.61,3619.76
1651,1.651000,2036,3650994,1285.75,652.61,3428.76
1652,1.652000,2037,3651994,4812.75,1152.61,1458.7600000000002
1653,1.652999,2038,3652993,7210.75,1142.61,398.7600000000002
1654,1.654000,2039,3653994,10216.75,344.61,1038.7600000000002
1655,1.655000,2040,3654994,8050.75,-186.39,-278.2399999999998
1656,1.656000,2041,3655994,3318.75,-233.39,-1841.2399999999998
1657,1.657000,2042,3656994,-1096.25,-557.39,-2583.24
1658,1.658000,2043,3657994,-2110.25,-714.39,-3412.24
1659,1.659000,2044,3658994,-1006.25,-604.39,-3341.24
1660,1.660000,2045,3659994,476.75,-868.39,-2496.24
1661,1.661000,2046,3660994,819.75,-849.39,-1798.2399999999998
1662,1.662000,2047,3661994,-554.25,-110.39,-1207.2399999999998
1663,1.663000,2048,3662994,-2136.25,-312.39,962.7600000000002
1664,1.664000,2049,3663994,-2369.25,12.61,3202.76
1665,1.665000,2050,3664994,-1091.25,1040.61,3302.76
1666,1.666000,2051,3665994,-2212.25,1386.61,2876.76
1667,1.667000,2052,3666994,-814.25,1049.61,4222.76
1668,1.668000,2053,3667994,-4635.25,1042.61,4768.76
1669,1.669000,2054,3668994,-9350.25,406.61,2744.76
1670,1.670000,2055,3669994,-9661.25,-247.39,420.7600000000002
1671,1.671000,2056,3670994,-8565.25,230.61,-1352.2399999999998
1672,1.671999,2057,3671993,901.75,-247.39,-1587.2399999999998
1673,1.673000,2058,3672994,8025.75,-299.39,-3071.24
1674,1.674000,2059,3673994,12641.75,-176.39,-3378.24
1675,1.675000,2060,3674994,11289.75,-272.39,-895.2399999999998
1676,1.676000,2061,3675994,4016.75,29.61,-651.2399999999998
1677,1.677000,2062,3676994,-2432.25,-41.39,-787.2399999999998
1678,1.678000,2063,3677994,-6524.25,-615.39,-75.23999999999978
1679,1.679000,2064,3678994,-4931.25,-368.39,-260.2399999999998
1680,1.680000,2065,3679994,-620.25,-326.39,-1274.2399999999998
1681,1.681000,2066,3680994,2176.75,-528.39,-1935.2399999999998
1682,1.682000,2067,3681994,1392.75,-193.39,-1768.2399999999998
1683,1.683000,2068,3682994,-2436.25,-170.39,-1015.2399999999998
1684,1.684000,2069,3683994,-5811.25,-113.39,692.7600000000002
1685,1.685000,2070,3684994,-6133.25,-418.39,2612.76
1686,1.686000,2071,3685994,-4953.25,-184.39,3327.76
1687,1.687000,2072,3686994,-2567.25,454.61,3580.76
1688,1.687999,2073,3687993,2230.75,938.61,2836.76
1689,1.689000,2074,3688994,7551.75,1322.61,653.7600000000002
1690,1.690000,2075,3689994,10104.75,805.61,424.7600000000002
1691,1.691000,2076,3690994,8877.75,169.61,691.7600000000002
1692,1.692000,2077,3691994,5717.75,-316.39,-915.2399999999998
1693,1.693000,2078,3692994,896.75,-511.39,-2361.24
1694,1.694000,2079,3693994,-2606.25,-529.39,-3006.24
1695,1.695000,2080,3694994,-1901.25,-563.39,-3394.24
1696,1.696000,2081,3695994,25.75,-880.39,-3156.24
1697,1.697000,2082,3696994,840.75,-1006.39,-2293.24
1698,1.698000,2083,3697994,-13.25,-456.39,-1483.2399999999998
1699,1.699000,2084,3698994,-293.25,-419.39,-281.2399999999998
1700,1.700000,2085,3699994,-1803.25,-217.39,1922.7600000000002
1701,1.701000,2086,3700994,-1830.25,570.61,3521.76
1702,1.702000,2087,3701994,-2265.25,1409.61,2922.76
1703,1.703000,2088,3702994,-2782.25,1297.61,3347.76
1704,1.704000,2089,3703994,-1248.25,823.61,5034.76
1705,1.705000,2090,3704994,-6374.25,747.61,3844.76
1706,1.706000,2091,3705994,-10146.25,204.61,1662.7600000000002
1707,1.706999,2092,3706993,-10934.25,-77.39,-575.2399999999998
1708,1.708000,2093,3707994,-4831.25,-31.39,-1635.2399999999998
1709,1.709000,2094,3708994,5561.75,-217.39,-2045.2399999999998
1710,1.710000,2095,3709994,11871.75,-344.39,-3618.24
1711,1.711000,2096,3710994,12504.75,-50.39,-2337.24
1712,1.712000,2097,3711994,6952.75,-136.39,-686.2399999999998
1713,1.713000,2098,3712994,838.75,-37.39,-739.2399999999998
1714,1.714000,2099,3713994,-4502.25,-212.39,-239.23999999999978
1715,1.715000,2100,3714994,-6037.25,-638.39,120.76000000000022
1716,1.716000,2101,3715994,-3295.25,-371.39,-453.2399999999998
1717,1.717000,2102,3716994,980.75,-360.39,-1702.2399999999998
1718,1.718000,2103,3717994,2001.75,-305.39,-2209.24
1719,1.719000,2104,3718994,246.75,-248.39,-1412.2399999999998
1720,1.720000,2105,3719994,-4369.25,-53.39,-465.2399999999998
1721,1.721000,2106,3720994,-6149.25,-247.39,1365.7600000000002
1722,1.722000,2107,3721994,-5697.25,-391.39,3119.76
1723,1.723000,2108,3722994,-4571.25,88.61,3784.76
1724,1.724000,2109,3723994,777.75,666.61,3541.76
1725,1.725000,2110,3724994,4487.75,1195.61,1322.7600000000002
1726,1.726000,2111,3725994,7556.75,1062.61,581.7600000000002
1727,1.727000,2112,3726994,10269.75,396.61,1232.7600000000002
1728,1.728000,2113,3727994,8464.75,-91.39,-278.2399999999998
1729,1.729000,2114,3728994,2996.75,-156.39,-1874.2399999999998
1730,1.730000,2115,3729994,-1068.25,-622.39,-2438.24
1731,1.731000,2116,3730994,-2181.25,-624.39,-3363.24
1732,1.732000,2117,3731994,-1067.25,-597.39,-3460.24
1733,1.733000,2118,3732994,817.75,-1015.39,-2437.24
1734,1.734000,2119,3733994,644.75,-895.39,-1747.2399999999998
1735,1.735000,2120,3734994,-247.25,-140.39,-1297.2399999999998
1736,1.735999,2121,3735993,-2198.25,-188.39,549.7600000000002
1737,1.737000,2122,3736994,-2514.25,-0.39000000000000057,3114.76
1738,1.738000,2123,3737994,-1112.25,910.61,3411.76
1739,1.739000,2124,3738994,-1906.25,1323.61,2611.76
1740,1.739999,2125,3739993,-682.25,1137.61,4137.76
1741,1.740999,2126,3740993,-4972.25,1083.61,4857.76
1742,1.742000,2127,3741994,-8907.25,186.61,2877.76
1743,1.743000,2128,3742994,-10406.25,-64.39,419.7600000000002
1744,1.744000,2129,3743994,-9086.25,232.61,-1350.2399999999998
1745,1.745000,2130,3744994,1504.75,-303.39,-1569.2399999999998
1746,1.746000,2131,3745994,8415.75,-170.39,-2961.24
1747,1.747000,2132,3746994,12666.75,-312.39,-3396.24
1748,1.748000,2133,3747994,10807.75,-28.39,-1185.2399999999998
1749,1.749000,2134,3748994,4187.75,-3.3900000000000006,-490.2399999999998
1750,1.749999,2135,3749993,-2537.25,-212.39,-675.2399999999998
1751,1.751000,2136,3750994,-6495.25,-403.39,-144.23999999999978
1752,1.752000,2137,3751994,-4368.25,-660.39,-79.23999999999978
1753,1.753000,2138,3752994,-701.25,-340.39,-1367.2399999999998
1754,1.754000,2139,3753994,2257.75,-274.39,-1948.2399999999998
1755,1.755000,2140,3754994,834.75,-348.39,-1610.2399999999998
1756,1.756000,2141,3755994,-2783.25,-127.39,-1212.2399999999998
1757,1.757000,2142,3756994,-5712.25,-123.39,604.7600000000002
1758,1.758000,2143,3757994,-6330.25,-297.39,2483.76
1759,1.759000,2144,3758994,-4454.25,-68.39,3224.76
1760,1.760000,2145,3759994,-2075.25,172.61,3660.76
1761,1.761000,2146,3760994,2180.75,807.61,2898.76
1762,1.762000,2147,3761994,7061.75,1528.61,714.7600000000002
1763,1.762999,2148,3762993,10012.75,726.61,566.7600000000002
1764,1.764000,2149,3763994,8686.75,130.61,713.7600000000002
1765,1.765000,2150,3764994,5792.75,-220.39,-1015.2399999999998
1766,1.766000,2151,3765994,1222.75,-628.39,-2326.24
1767,1.766999,2152,3766993,-2638.25,-444.39,-3065.24
1768,1.768000,2153,3767994,-1694.25,-645.39,-3517.24
1769,1.769000,2154,3768994,-53.25,-951.39,-3139.24
1770,1.770000,2155,3769994,930.75,-786.39,-2168.24
1771,1.771000,2156,3770994,314.75,-412.39,-1582.2399999999998
1772,1.772000,2157,3771994,-668.25,-218.39,-433.2399999999998
1773,1.773000,2158,3772994,-2072.25,-447.39,2253.76
1774,1.774000,2159,3773994,-1867.25,436.61,3552.76
1775,1.775000,2160,3774994,-2971.25,1582.61,2771.76
1776,1.776000,2161,3775994,-2519.25,1000.61,3479.76
1777,1.777000,2162,3776994,-1364.25,1017.61,4886.76
1778,1.778000,2163,3777994,-6586.25,851.61,4025.76
1779,1.779000,2164,3778994,-9555.25,-38.39,1728.7600000000002
1780,1.780000,2165,3779994,-10555.25,64.61,-696.2399999999998
1781,1.781000,2166,3780994,-4630.25,36.61,-1574.2399999999998
1782,1.782000,2167,3781994,5289.75,-259.39,-2125.24
1783,1.783000,2168,3782994,12034.75,-220.39,-3666.24
1784,1.784000,2169,3783994,12748.75,-243.39,-2285.24
1785,1.784999,2170,3784993,6762.75,1.6099999999999994,-725.2399999999998
1786,1.785999,2171,3785993,860.75,-59.39,-776.2399999999998
1787,1.787000,2172,3786994,-4971.25,-314.39,-394.2399999999998
1788,1.788000,2173,3787994,-6151.25,-502.39,-92.23999999999978
1789,1.789000,2174,3788994,-2891.25,-572.39,-602.2399999999998
1790,1.790000,2175,3789994,1060.75,-316.39,-1772.2399999999998
1791,1.791000,2176,3790994,2263.75,-372.39,-1854.2399999999998
1792,1.792000,2177,3791994,-46.25,-220.39,-1417.2399999999998
1793,1.793000,2178,3792994,-4767.25,8.61,-311.2399999999998
1794,1.793999,2179,3793993,-7087.25,-256.39,1636.7600000000002
1795,1.795000,2180,3794994,-5523.25,-323.39,3129.76
1796,1.796000,2181,3795994,-3674.25,80.61,3965.76
1797,1.797000,2182,3796994,1123.75,450.61,3478.76
1798,1.797999,2183,3797993,4442.75,1413.61,1135.7600000000002
1799,1.799000,2184,3798994,7477.75,1219.61,504.7600000000002
1800,1.800000,2185,3799994,10452.75,200.61,1130.7600000000002
1801,1.801000,2186,3800994,8589.75,-111.39,-383.2399999999998
1802,1.802000,2187,3801994,3198.75,-218.39,-1862.2399999999998
1803,1.803000,2188,3802994,-1481.25,-663.39,-2571.24
1804,1.804000,2189,3803994,-2278.25,-736.39,-3496.24
1805,1.805000,2190,3804994,-988.25,-596.39,-3431.24
1806,1.806000,2191,3805994,792.75,-963.39,-2627.24
1807,1.807000,2192,3806994,655.75,-715.39,-1954.2399999999998
1808,1.808000,2193,3807994,-141.25,-290.39,-1015.2399999999998
1809,1.809000,2194,3808994,-1832.25,-229.39,998.7600000000002
1810,1.810000,2195,3809994,-2896.25,69.61,3040.76
1811,1.811000,2196,3810994,-1223.25,818.61,3361.76
1812,1.812000,2197,3811994,-1949.25,1532.61,2882.76
1813,1.813000,2198,3812994,-967.25,1192.61,4229.76
1814,1.814000,2199,3813994,-4837.25,798.61,4858.76
1815,1.815000,2200,3814994,-9202.25,360.61,2626.76
1816,1.816000,2201,3815994,-10834.25,8.61,327.7600000000002
1817,1.817000,2202,3816994,-8855.25,50.61,-1204.2399999999998
1818,1.818000,2203,3817994,2005.75,-199.39,-1553.2399999999998
1819,1.819000,2204,3818994,8878.75,-251.39,-3163.24
1820,1.820000,2205,3819994,12697.75,-220.39,-3374.24
1821,1.821000,2206,3820994,10805.75,-111.39,-1057.2399999999998
1822,1.822000,2207,3821994,3990.75,-64.39,-744.2399999999998
1823,1.823000,2208,3822994,-2521.25,-116.39,-621.2399999999998
1824,1.823999,2209,3823993,-6363.25,-549.39,-100.23999999999978
1825,1.825000,2210,3824994,-4723.25,-485.39,-277.2399999999998
1826,1.826000,2211,3825994,-639.25,-316.39,-1201.2399999999998
1827,1.827000,2212,3826994,1987.75,-521.39,-1942.2399999999998
1828,1.828000,2213,3827994,1019.75,-107.39,-1806.2399999999998
1829,1.829000,2214,3828994,-2980.25,-158.39,-1012.2399999999998
1830,1.830000,2215,3829994,-5919.25,-330.39,781.7600000000002
1831,1.831000,2216,3830994,-5775.25,-132.39,2373.76
1832,1.832000,2217,3831994,-4058.25,-63.39,3475.76
1833,1.833000,2218,3832994,-1793.25,234.61,4011.76
1834,1.834000,2219,3833994,1637.75,982.61,2562.76
1835,1.835000,2220,3834994,6789.75,1473.61,567.7600000000002
1836,1.836000,2221,3835994,10121.75,724.61,813.7600000000002
1837,1.837000,2222,3836994,8773.75,49.61,616.7600000000002
1838,1.838000,2223,3837994,5817.75,-269.39,-1179.2399999999998
1839,1.839000,2224,3838994,973.75,-609.39,-2265.24
1840,1.840000,2225,3839994,-2211.25,-537.39,-3071.24
1841,1.841000,2226,3840994,-1722.25,-547.39,-3651.24
1842,1.842000,2227,3841994,105.75,-863.39,-3127.24
1843,1.843000,2228,3842994,1163.75,-801.39,-2053.24
1844,1.844000,2229,3843994,-507.25,-545.39,-1427.2399999999998
1845,1.845000,2230,3844994,-614.25,-328.39,-182.23999999999978
1846,1.846000,2231,3845994,-2097.25,-276.39,2219.76
1847,1.847000,2232,3846994,-1785.25,558.61,3482.76
1848,1.848000,2233,3847994,-2570.25,1456.61,2816.76
1849,1.849000,2234,3848994,-2554.25,1077.61,3434.76
1850,1.849999,2235,3849993,-796.25,938.61,5029.76
1851,1.851000,2236,3850994,-6992.25,756.61,4042.76
1852,1.852000,2237,3851994,-10100.25,130.61,1596.7600000000002
1853,1.853000,2238,3852994,-10704.25,-88.39,-758.2399999999998
1854,1.854000,2239,3853994,-4459.25,-65.39,-1534.2399999999998
1855,1.855000,2240,3854994,5616.75,-144.39,-2195.24
1856,1.855999,2241,3855993,12138.75,-249.39,-3626.24
1857,1.857000,2242,3856994,12627.75,-250.39,-2334.24
1858,1.858000,2243,3857994,6635.75,-86.39,-687.2399999999998
1859,1.859000,2244,3858994,803.75,28.61,-633.2399999999998
1860,1.860000,2245,3859994,-4804.25,-271.39,-350.2399999999998
1861,1.861000,2246,3860994,-5850.25,-605.39,166.76000000000022
1862,1.861999,2247,3861993,-3130.25,-568.39,-761.2399999999998
1863,1.863000,2248,3862994,1163.75,-321.39,-1877.2399999999998
1864,1.864000,2249,3863994,1883.75,-295.39,-1803.2399999999998
1865,1.865000,2250,3864994,-452.25,-314.39,-1470.2399999999998
1866,1.866000,2251,3865994,-4863.25,-6.390000000000001,-392.2399999999998
1867,1.867000,2252,3866994,-6792.25,-324.39,1711.7600000000002
1868,1.868000,2253,3867994,-5106.25,-350.39,3155.76
1869,1.869000,2254,3868994,-3543.25,243.61,3751.76
1870,1.870000,2255,3869994,1765.75,632.61,3669.76
1871,1.871000,2256,3870994,4635.75,1278.61,1208.7600000000002
1872,1.872000,2257,3871994,7170.75,1145.61,306.7600000000002
1873,1.873000,2258,3872994,10094.75,263.61,1187.7600000000002
1874,1.874000,2259,3873994,8188.75,-156.39,-257.2399999999998
1875,1.875000,2260,3874994,3129.75,-207.39,-1897.2399999999998
1876,1.876000,2261,3875994,-1457.25,-620.39,-2648.24
1877,1.877000,2262,3876994,-2082.25,-600.39,-3460.24
1878,1.878000,2263,3877994,-1144.25,-609.39,-3494.24
1879,1.879000,2264,3878994,1052.75,-1164.39,-2508.24
1880,1.879999,2265,3879993,998.75,-618.39,-1718.2399999999998
1881,1.881000,2266,3880994,-43.25,-204.39,-896.2399999999998
1882,1.882000,2267,3881994,-2278.25,-376.39,871.7600000000002
1883,1.883000,2268,3882994,-3152.25,210.61,3076.76
1884,1.884000,2269,3883994,-1029.25,852.61,3415.76
1885,1.885000,2270,3884994,-2065.25,1455.61,2784.76
1886,1.886000,2271,3885994,-897.25,1149.61,4349.76
1887,1.886999,2272,3886993,-5028.25,888.61,4667.76
1888,1.888000,2273,3887994,-9505.25,363.61,2698.76
1889,1.888999,2274,3888993,-10674.25,-189.39,576.7600000000002
1890,1.890000,2275,3889994,-8370.25,213.61,-1302.2399999999998
1891,1.890999,2276,3890993,2241.75,-114.39,-1766.2399999999998
1892,1.891999,2277,3891993,9087.75,-483.39,-3157.24
1893,1.893000,2278,3892994,12642.75,-110.39,-3334.24
1894,1.894000,2279,3893994,10185.75,6.609999999999999,-1113.2399999999998
1895,1.895000,2280,3894994,3764.75,-371.39,-581.2399999999998
1896,1.896000,2281,3895994,-2818.25,117.61,-753.2399999999998
1897,1.897000,2282,3896994,-6187.25,-485.39,-18.23999999999978
1898,1.898000,2283,3897994,-4321.25,-721.39,-51.23999999999978
1899,1.899000,2284,3898994,-678.25,-80.39,-1391.2399999999998
1900,1.900000,2285,3899994,2137.75,-561.39,-2043.2399999999998
1901,1.901000,2286,3900994,1138.75,-215.39,-1805.2399999999998
1902,1.902000,2287,3901994,-3199.25,-72.39,-946.2399999999998
1903,1.903000,2288,3902994,-6024.25,-392.39,886.7600000000002
1904,1.904000,2289,3903994,-5940.25,-159.39,2441.76
1905,1.905000,2290,3904994,-4275.25,-77.39,3242.76
1906,1.906000,2291,3905994,-1137.25,207.61,3772.76
1907,1.907000,2292,3906994,1718.75,1089.61,2660.76
1908,1.908000,2293,3907994,6786.75,1333.61,572.7600000000002
1909,1.909000,2294,3908994,10009.75,773.61,550.7600000000002
1910,1.909999,2295,3909993,8875.75,116.61,715.7600000000002
1911,1.910999,2296,3910993,5741.75,-394.39,-1044.2399999999998
1912,1.912000,2297,3911994,839.75,-453.39,-2420.24
1913,1.913000,2298,3912994,-2102.25,-651.39,-2996.24
1914,1.913999,2299,3913993,-1841.25,-571.39,-3480.24
1915,1.915000,2300,3914994,-14.25,-575.39,-3209.24
1916,1.916000,2301,3915994,874.75,-1111.39,-2213.24
1917,1.917000,2302,3916994,-513.25,-515.39,-1405.2399999999998
1918,1.918000,2303,3917994,-662.25,-226.39,-112.23999999999978
1919,1.919000,2304,3918994,-1657.25,-296.39,2184.76
1920,1.920000,2305,3919994,-1590.25,593.61,3488.76
1921,1.921000,2306,3920994,-2255.25,1254.61,2924.76
1922,1.922000,2307,3921994,-2725.25,1229.61,3453.76
1923,1.923000,2308,3922994,-1643.25,979.61,4941.76
1924,1.924000,2309,3923994,-6879.25,565.61,3943.76
1925,1.925000,2310,3924994,-10169.25,168.61,1431.7600000000002
1926,1.926000,2311,3925994,-10446.25,-70.39,-854.2399999999998
1927,1.927000,2312,3926994,-4170.25,-60.39,-1550.2399999999998
1928,1.928000,2313,3927994,5629.75,-37.39,-2216.24
1929,1.929000,2314,3928994,12072.75,-386.39,-3610.24
1930,1.930000,2315,3929994,12449.75,-239.39,-2069.24
1931,1.931000,2316,3930994,6935.75,-107.39,-465.2399999999998
1932,1.932000,2317,3931994,837.75,46.61,-748.2399999999998
1933,1.933000,2318,3932994,-5175.25,-133.39,-267.2399999999998
1934,1.933999,2319,3933993,-6101.25,-650.39,-24.23999999999978
1935,1.935000,2320,3934994,-2697.25,-519.39,-761.2399999999998
1936,1.936000,2321,3935994,976.75,-271.39,-1653.2399999999998
1937,1.937000,2322,3936994,1720.75,-418.39,-2014.2399999999998
1938,1.938000,2323,3937994,-511.25,-167.39,-1594.2399999999998
1939,1.939000,2324,3938994,-4909.25,8.61,-287.2399999999998
1940,1.940000,2325,3939994,-5966.25,-465.39,1638.7600000000002
1941,1.940999,2326,3940993,-5171.25,-315.39,2954.76
1942,1.942000,2327,3941994,-3807.25,111.61,3909.76
1943,1.943000,2328,3942994,1640.75,551.61,3646.76
1944,1.944000,2329,3943994,4815.75,1333.61,1016.7600000000002
1945,1.945000,2330,3944994,7167.75,1269.61,297.7600000000002
1946,1.946000,2331,3945994,9785.75,319.61,1347.7600000000002
1947,1.947000,2332,3946994,8159.75,-174.39,-280.2399999999998
1948,1.948000,2333,3947994,3061.75,-257.39,-2064.24
1949,1.949000,2334,3948994,-1251.25,-622.39,-2494.24
1950,1.950000,2335,3949994,-1826.25,-629.39,-3378.24
1951,1.951000,2336,3950994,-969.25,-610.39,-3516.24
1952,1.952000,2337,3951994,677.75,-1031.39,-2510.24
1953,1.953000,2338,3952994,532.75,-709.39,-1602.2399999999998
1954,1.953999,2339,3953993,-573.25,-326.39,-999.2399999999998
1955,1.955000,2340,3954994,-2214.25,-304.39,815.7600000000002
1956,1.956000,2341,3955994,-2732.25,48.61,3156.76
1957,1.957000,2342,3956994,-831.25,1061.61,3282.76
1958,1.958000,2343,3957994,-2115.25,1487.61,2743.76
1959,1.959000,2344,3958994,-655.25,922.61,4348.76
1960,1.960000,2345,3959994,-4976.25,1093.61,4756.76
1961,1.961000,2346,3960994,-9445.25,130.61,2818.76
1962,1.962000,2347,3961994,-10721.25,-107.39,427.7600000000002
1963,1.963000,2348,3962994,-8789.25,308.61,-1434.2399999999998
1964,1.964000,2349,3963994,2484.75,-337.39,-1657.2399999999998
1965,1.965000,2350,3964994,8931.75,-258.39,-3175.24
1966,1.966000,2351,3965994,12823.75,-201.39,-3222.24
1967,1.967000,2352,3966994,10174.75,-51.39,-1127.2399999999998
1968,1.968000,2353,3967994,3523.75,-127.39,-593.2399999999998
1969,1.969000,2354,3968994,-2487.25,-83.39,-517.2399999999998
1970,1.970000,2355,3969994,-6181.25,-486.39,107.76000000000022
1971,1.970999,2356,3970993,-4729.25,-656.39,-6.239999999999782
1972,1.972000,2357,3971994,-528.25,-324.39,-1480.2399999999998
1973,1.973000,2358,3972994,1870.75,-294.39,-2109.24
1974,1.974000,2359,3973994,1049.75,-240.39,-1751.2399999999998
1975,1.975000,2360,3974994,-3021.25,-191.39,-1011.2399999999998
1976,1.976000,2361,3975994,-6481.25,-75.39,569.7600000000002
1977,1.977000,2362,3976994,-5595.25,-295.39,2515.76
1978,1.978000,2363,3977994,-3909.25,-153.39,3501.76
1979,1.979000,2364,3978994,-1264.25,271.61,3701.76
1980,1.979999,2365,3979993,2054.75,1015.61,2688.76
1981,1.981000,2366,3980994,6950.75,1385.61,749.7600000000002
1982,1.982000,2367,3981994,10128.75,680.61,505.7600000000002
1983,1.983000,2368,3982994,8777.75,166.61,466.7600000000002
1984,1.984000,2369,3983994,5429.75,-295.39,-915.2399999999998
1985,1.985000,2370,3984994,1004.75,-631.39,-2302.24
1986,1.986000,2371,3985994,-2472.25,-506.39,-3123.24
1987,1.987000,2372,3986994,-1874.25,-507.39,-3387.24
1988,1.988000,2373,3987994,17.75,-936.39,-3103.24
1989,1.988999,2374,3988993,919.75,-1086.39,-2087.24
1990,1.990000,2375,3989994,-200.25,-367.39,-1374.2399999999998
1991,1.991000,2376,3990994,-819.25,-290.39,-286.2399999999998
1992,1.992000,2377,3991994,-1770.25,-290.39,2080.76
1993,1.993000,2378,3992994,-1822.25,576.61,3417.76
1994,1.994000,2379,3993994,-2264.25,1377.61,2762.76
1995,1.995000,2380,3994994,-2477.25,1290.61,3365.76
1996,1.996000,2381,3995994,-1471.25,987.61,5083.76
1997,1.997000,2382,3996994,-6732.25,563.61,4085.76
1998,1.998000,2383,3997994,-10207.25,183.61,1399.7600000000002
1999,1.999000,2384,3998994,-10357.25,-32.39,-660.2399999999998
2000,2.000000,2385,3999994,-3938.25,-110.39,-1445.2399999999998
2001,2.001000,2386,4000994,5644.75,-124.39,-2477.24
2002,2.002000,2387,4001994,11986.75,-410.39,-3769.24
2003,2.002999,2388,4002993,12672.75,-232.39,-2036.2399999999998
2004,2.004000,2389,4003994,6453.75,-40.39,-547.2399999999998
2005,2.005000,2390,4004994,337.75,6.609999999999999,-776.2399999999998
2006,2.006000,2391,4005994,-5218.25,-276.39,-344.2399999999998
2007,2.006999,2392,4006993,-6309.25,-451.39,3.7600000000002183
2008,2.008000,2393,4007994,-2777.25,-463.39,-622.2399999999998
2009,2.008999,2394,4008993,1184.75,-211.39,-1790.2399999999998
2010,2.010000,2395,4009994,1985.75,-297.39,-1970.2399999999998
2011,2.011000,2396,4010994,110.75,-429.39,-1323.2399999999998
2012,2.012000,2397,4011994,-4753.25,117.61,-191.23999999999978
2013,2.013000,2398,4012994,-6477.25,-321.39,1589.7600000000002
2014,2.013999,2399,4013993,-5193.25,-362.39,2888.76
2015,2.015000,2400,4014994,-3812.25,142.61,3756.76
2016,2.016000,2401,4015994,1405.75,553.61,3542.76
2017,2.017000,2402,4016994,4637.75,1251.61,1104.7600000000002
2018,2.018000,2403,4017994,6948.75,1094.61,385.7600000000002
2019,2.019000,2404,4018994,9661.75,358.61,1109.7600000000002
2020,2.020000,2405,4019994,8617.75,-124.39,-282.2399999999998
2021,2.021000,2406,4020994,3417.75,-247.39,-1860.2399999999998
2022,2.022000,2407,4021994,-795.25,-499.39,-2428.24
2023,2.023000,2408,4022994,-1995.25,-611.39,-3358.24
2024,2.024000,2409,4023994,-1163.25,-621.39,-3429.24
2025,2.025000,2410,4024994,574.75,-905.39,-2315.24
2026,2.026000,2411,4025994,394.75,-989.39,-1659.2399999999998
2027,2.026999,2412,4026993,-392.25,-132.39,-1216.2399999999998
2028,2.028000,2413,4027994,-2096.25,-236.39,808.7600000000002
2029,2.029000,2414,4028994,-2721.25,58.61,3064.76
2030,2.030000,2415,4029994,-1312.25,928.61,3215.76
2031,2.031000,2416,4030994,-1681.25,1241.61,2767.76
2032,2.032000,2417,4031994,-592.25,1247.61,4243.76
2033,2.032999,2418,4032993,-5360.25,1029.61,4720.76
2034,2.034000,2419,4033994,-8889.25,50.61,2804.76
2035,2.035000,2420,4034994,-10920.25,33.61,56.76000000000022
2036,2.036000,2421,4035994,-8847.25,385.61,-1435.2399999999998
2037,2.037000,2422,4036994,2774.75,-481.39,-1271.2399999999998
2038,2.038000,2423,4037994,9090.75,-185.39,-3269.24
2039,2.039000,2424,4038994,12820.75,-218.39,-3236.24
2040,2.040000,2425,4039994,9686.75,-119.39,-961.2399999999998
2041,2.041000,2426,4040994,4112.75,-167.39,-498.2399999999998
2042,2.041999,2427,4041993,-2656.25,32.61,-667.2399999999998
2043,2.043000,2428,4042994,-6530.25,-451.39,1.7600000000002183
2044,2.044000,2429,4043994,-4579.25,-704.39,-110.23999999999978
2045,2.044999,2430,4044993,-1009.25,-137.39,-1495.2399999999998
2046,2.046000,2431,4045994,2120.75,-510.39,-1815.2399999999998
2047,2.047000,2432,4046994,793.75,-342.39,-1875.2399999999998
2048,2.048000,2433,4047994,-3000.25,-26.39,-1171.2399999999998
2049,2.049000,2434,4048994,-6137.25,-216.39,763.7600000000002
2050,2.050000,2435,4049994,-5354.25,-410.39,2406.76
2051,2.051000,2436,4050994,-3489.25,-92.39,3258.76
2052,2.052000,2437,4051994,-1169.25,352.61,3824.76
2053,2.053000,2438,4052994,1713.75,1037.61,2805.76
2054,2.054000,2439,4053994,6549.75,1332.61,599.7600000000002
2055,2.055000,2440,4054994,9988.75,819.61,600.7600000000002
2056,2.056000,2441,4055994,8636.75,61.61,750.7600000000002
2057,2.057000,2442,4056994,5598.75,-430.39,-1056.2399999999998
2058,2.058000,2443,4057994,903.75,-439.39,-2502.24
2059,2.059000,2444,4058994,-2227.25,-567.39,-3063.24
2060,2.060000,2445,4059994,-1743.25,-587.39,-3422.24
2061,2.061000,2446,4060994,-271.25,-814.39,-3113.24
2062,2.062000,2447,4061994,1189.75,-1066.39,-2005.2399999999998
2063,2.063000,2448,4062994,-350.25,-301.39,-1355.2399999999998
2064,2.064000,2449,4063994,-1072.25,-176.39,-70.23999999999978
2065,2.065000,2450,4064994,-1932.25,-517.39,2163.76
2066,2.066000,2451,4065994,-1848.25,740.61,3288.76
2067,2.067000,2452,4066994,-1948.25,1501.61,2828.76
2068,2.068000,2453,4067994,-2248.25,1051.61,3385.76
2069,2.069000,2454,4068994,-1073.25,1019.61,5010.76
