row,seconds,esp32_index,micros,ax,ay,az
0,0.000000,162,7952551,-2209.61,-543.06,-1826.7200000000003
1,0.000414,163,7952965,-254.61,-778.06,-1656.7200000000003
2,0.000824,164,7953375,-254.61,-778.06,-1656.7200000000003
3,0.001225,165,7953776,-254.61,-778.06,-1656.7200000000003
4,0.001631,166,7954182,2728.39,-492.06,-1030.7200000000003
5,0.002031,167,7954582,2728.39,-492.06,-1030.7200000000003
6,0.002446,168,7954997,2014.39,-61.06,-223.72000000000025
7,0.002840,169,7955391,2014.39,-61.06,-223.72000000000025
8,0.003234,170,7955785,2014.39,-61.06,-223.72000000000025
9,0.003632,171,7956183,-956.61,-27.06,1131.2799999999997
10,0.004049,172,7956600,-956.61,-27.06,1131.2799999999997
11,0.004462,173,7957013,-1429.61,483.94,2062.2799999999997
12,0.004865,174,7957416,-1429.61,483.94,2062.2799999999997
13,0.005253,175,7957804,-1429.61,483.94,2062.2799999999997
14,0.005651,176,7958202,-1484.61,978.94,1882.2799999999997
15,0.006060,177,7958611,-1484.61,978.94,1882.2799999999997
16,0.006466,178,7959017,-856.61,810.94,2712.2799999999997
17,0.006866,179,7959417,-856.61,810.94,2712.2799999999997
18,0.007255,180,7959806,-856.61,810.94,2712.2799999999997
19,0.007661,181,7960212,346.39,539.94,3785.2799999999997
20,0.008055,182,7960606,346.39,539.94,3785.2799999999997
21,0.008451,183,7961002,188.39,563.94,2332.2799999999997
22,0.008838,184,7961389,188.39,563.94,2332.2799999999997
23,0.009224,185,7961775,188.39,563.94,2332.2799999999997
24,0.009613,186,7962164,-4015.61,46.94,975.2799999999997
25,0.010015,187,7962566,-4015.61,46.94,975.2799999999997
26,0.010426,188,7962977,-10314.61,-162.06,204.27999999999975
27,0.010836,189,7963387,-10314.61,-162.06,204.27999999999975
28,0.011232,190,7963783,-10314.61,-162.06,204.27999999999975
29,0.011617,191,7964168,-11099.61,301.94,-1750.7200000000003
30,0.012006,192,7964557,-11099.61,301.94,-1750.7200000000003
31,0.012418,193,7964969,-2551.61,-256.06,-2133.7200000000003
32,0.012827,194,7965378,-2551.61,-256.06,-2133.7200000000003
33,0.013229,195,7965780,-2551.61,-256.06,-2133.7200000000003
34,0.013641,196,7966192,6483.39,-473.06,-1305.7200000000003
35,0.014043,197,7966594,6483.39,-473.06,-1305.7200000000003
36,0.014449,198,7967000,10062.39,-4.059999999999999,-900.7200000000003
37,0.014850,199,7967401,10062.39,-4.059999999999999,-900.7200000000003
38,0.015239,200,7967790,10062.39,-4.059999999999999,-900.7200000000003
39,0.015646,201,7968197,9117.39,61.94,304.27999999999975
40,0.016039,202,7968590,9117.39,61.94,304.27999999999975
41,0.016438,203,7968989,2473.39,32.94,496.27999999999975
42,0.016825,204,7969376,2473.39,32.94,496.27999999999975
43,0.017213,205,7969764,2473.39,32.94,496.27999999999975
44,0.017594,206,7970145,-3176.61,726.94,79.27999999999975
45,0.018003,207,7970554,-3176.61,726.94,79.27999999999975
46,0.018409,208,7970960,-4138.61,293.94,698.2799999999997
47,0.018812,209,7971363,-4138.61,293.94,698.2799999999997
48,0.019206,210,7971757,-4138.61,293.94,698.2799999999997
49,0.019596,211,7972147,-946.61,-641.06,310.27999999999975
50,0.020012,212,7972563,-946.61,-641.06,310.27999999999975
51,0.020426,213,7972977,2587.39,-341.06,-1140.7200000000003
52,0.020835,214,7973386,2587.39,-341.06,-1140.7200000000003
53,0.021222,215,7973773,2587.39,-341.06,-1140.7200000000003
54,0.021628,216,7974179,1375.39,-162.06,-1518.7200000000003
55,0.022031,217,7974582,1375.39,-162.06,-1518.7200000000003
56,0.022437,218,7974988,-936.61,-535.06,-1149.7200000000003
57,0.022846,219,7975397,-936.61,-535.06,-1149.7200000000003
58,0.023241,220,7975792,-936.61,-535.06,-1149.7200000000003
59,0.023655,221,7976206,-3317.61,-311.06,-1911.7200000000003
60,0.024065,222,7976616,-3317.61,-311.06,-1911.7200000000003
61,0.024484,223,7977035,-4423.61,-130.06,-1227.7200000000003
62,0.024895,224,7977446,-4423.61,-130.06,-1227.7200000000003
63,0.025292,225,7977843,-2350.61,-602.06,1660.2799999999997
64,0.025704,226,7978255,-2350.61,-602.06,1660.2799999999997
65,0.026113,227,7978664,-2350.61,-602.06,1660.2799999999997
66,0.026524,228,7979075,-615.61,-371.06,2629.2799999999997
67,0.026934,229,7979485,-615.61,-371.06,2629.2799999999997
68,0.027338,230,7979889,-276.61,449.94,1967.2799999999997
69,0.027749,231,7980300,-276.61,449.94,1967.2799999999997
70,0.028144,232,7980695,-276.61,449.94,1967.2799999999997
71,0.028520,233,7981071,1388.39,946.94,1656.2799999999997
72,0.028902,234,7981453,1388.39,946.94,1656.2799999999997
73,0.029290,235,7981841,6216.39,864.94,1329.2799999999997
74,0.029691,236,7982242,6216.39,864.94,1329.2799999999997
75,0.030084,237,7982635,6216.39,864.94,1329.2799999999997
76,0.030475,238,7983026,10108.39,491.94,1507.2799999999997
77,0.030878,239,7983429,10108.39,491.94,1507.2799999999997
78,0.031251,240,7983802,10108.39,491.94,1507.2799999999997
79,0.031642,241,7984193,7391.39,274.94,1163.2799999999997
80,0.032035,242,7984586,7391.39,274.94,1163.2799999999997
81,0.032437,243,7984988,3275.39,83.94,-324.72000000000025
82,0.032823,244,7985374,3275.39,83.94,-324.72000000000025
83,0.033217,245,7985768,3275.39,83.94,-324.72000000000025
84,0.033606,246,7986157,-265.61,-226.06,-1532.7200000000003
85,0.034015,247,7986566,-265.61,-226.06,-1532.7200000000003
86,0.034428,248,7986979,-3206.61,-373.06,-1947.7200000000003
87,0.034832,249,7987383,-3206.61,-373.06,-1947.7200000000003
88,0.035234,250,7987785,-3206.61,-373.06,-1947.7200000000003
89,0.035645,251,7988196,-2639.61,-446.06,-2011.7200000000003
90,0.036060,252,7988611,-2639.61,-446.06,-2011.7200000000003
91,0.036475,253,7989026,-624.61,-783.06,-2224.7200000000003
92,0.036884,254,7989435,-624.61,-783.06,-2224.7200000000003
93,0.037284,255,7989835,1542.39,-801.06,-1813.7200000000003
94,0.037679,256,7990230,1542.39,-801.06,-1813.7200000000003
95,0.038083,257,7990634,1542.39,-801.06,-1813.7200000000003
96,0.038482,258,7991033,1316.39,-236.06,-885.7200000000003
97,0.038895,259,7991446,1316.39,-236.06,-885.7200000000003
98,0.039284,260,7991835,408.39,6.940000000000001,444.27999999999975
99,0.039679,261,7992230,408.39,6.940000000000001,444.27999999999975
100,0.040080,262,7992631,408.39,6.940000000000001,444.27999999999975
101,0.040493,263,7993044,-194.61,-92.06,2033.2799999999997
102,0.040902,264,7993453,-194.61,-92.06,2033.2799999999997
103,0.041300,265,7993851,-1584.61,863.94,2358.2799999999997
104,0.041708,266,7994259,-1584.61,863.94,2358.2799999999997
105,0.042103,267,7994654,-1584.61,863.94,2358.2799999999997
106,0.042505,268,7995056,-1955.61,1249.94,2613.2799999999997
107,0.042911,269,7995462,-1955.61,1249.94,2613.2799999999997
108,0.043301,270,7995852,-710.61,682.94,3771.2799999999997
109,0.043704,271,7996255,-710.61,682.94,3771.2799999999997
110,0.044099,272,7996650,-710.61,682.94,3771.2799999999997
111,0.044506,273,7997057,618.39,818.94,3493.2799999999997
112,0.044895,274,7997446,618.39,818.94,3493.2799999999997
113,0.045257,275,7997808,618.39,818.94,3493.2799999999997
114,0.045650,276,7998201,-2297.61,229.94,1950.2799999999997
115,0.046059,277,7998610,-2297.61,229.94,1950.2799999999997
116,0.046463,278,7999014,-8316.61,-246.06,935.2799999999997
117,0.046876,279,7999427,-8316.61,-246.06,935.2799999999997
118,0.047275,280,7999826,-10935.61,122.94,-985.7200000000003
119,0.047676,281,8000227,-10935.61,122.94,-985.7200000000003
120,0.048064,282,8000615,-10935.61,122.94,-985.7200000000003
121,0.048472,283,8001023,-5371.61,120.94,-2524.7200000000003
122,0.048875,284,8001426,-5371.61,120.94,-2524.7200000000003
123,0.049256,285,8001807,-5371.61,120.94,-2524.7200000000003
124,0.049662,286,8002213,2932.39,-418.06,-1890.7200000000003
125,0.050064,287,8002615,2932.39,-418.06,-1890.7200000000003
126,0.050468,288,8003019,9404.39,-381.06,-1450.7200000000003
127,0.050872,289,8003423,9404.39,-381.06,-1450.7200000000003
128,0.051259,290,8003810,9404.39,-381.06,-1450.7200000000003
129,0.051663,291,8004214,10270.39,52.94,-636.7200000000003
130,0.052058,292,8004609,10270.39,52.94,-636.7200000000003
131,0.052454,293,8005005,4468.39,15.940000000000001,492.27999999999975
132,0.052863,294,8005414,4468.39,15.940000000000001,492.27999999999975
133,0.053250,295,8005801,4468.39,15.940000000000001,492.27999999999975
134,0.053656,296,8006207,-1630.61,383.94,525.2799999999997
135,0.054056,297,8006607,-1630.61,383.94,525.2799999999997
136,0.054462,298,8007013,-4162.61,417.94,722.2799999999997
137,0.054856,299,8007407,-4162.61,417.94,722.2799999999997
138,0.055251,300,8007802,-4162.61,417.94,722.2799999999997
139,0.055648,301,8008199,-2715.61,-144.06,281.27999999999975
140,0.056066,302,8008617,-2715.61,-144.06,281.27999999999975
141,0.056480,303,8009031,1155.39,-525.06,-806.7200000000003
142,0.056876,304,8009427,1155.39,-525.06,-806.7200000000003
143,0.057264,305,8009815,1155.39,-525.06,-806.7200000000003
144,0.057663,306,8010214,2999.39,-231.06,-1387.7200000000003
145,0.058064,307,8010615,2999.39,-231.06,-1387.7200000000003
146,0.058471,308,8011022,1766.39,-333.06,-1297.7200000000003
147,0.058880,309,8011431,1766.39,-333.06,-1297.7200000000003
148,0.059260,310,8011811,1766.39,-333.06,-1297.7200000000003
149,0.059673,311,8012224,-2315.61,-451.06,-1756.7200000000003
150,0.060082,312,8012633,-2315.61,-451.06,-1756.7200000000003
151,0.060497,313,8013048,-5223.61,34.94,-1581.7200000000003
152,0.060892,314,8013443,-5223.61,34.94,-1581.7200000000003
153,0.061289,315,8013840,-2739.61,-553.06,875.2799999999997
154,0.061684,316,8014235,-2739.61,-553.06,875.2799999999997
155,0.062089,317,8014640,-2739.61,-553.06,875.2799999999997
156,0.062500,318,8015051,-1324.61,-718.06,2497.2799999999997
157,0.062911,319,8015462,-1324.61,-718.06,2497.2799999999997
158,0.063317,320,8015868,-2090.61,89.94,2513.2799999999997
159,0.063722,321,8016273,-2090.61,89.94,2513.2799999999997
160,0.064126,322,8016677,-2090.61,89.94,2513.2799999999997
161,0.064527,323,8017078,1577.39,714.94,1939.2799999999997
162,0.064917,324,8017468,1577.39,714.94,1939.2799999999997
163,0.065305,325,8017856,5211.39,1133.94,946.2799999999997
164,0.065702,326,8018253,5211.39,1133.94,946.2799999999997
165,0.066090,327,8018641,5211.39,1133.94,946.2799999999997
166,0.066486,328,8019037,6804.39,720.94,1065.2799999999997
167,0.066884,329,8019435,6804.39,720.94,1065.2799999999997
168,0.067264,330,8019815,6804.39,720.94,1065.2799999999997
169,0.067654,331,8020205,7981.39,185.94,1548.2799999999997
170,0.068048,332,8020599,7981.39,185.94,1548.2799999999997
171,0.068444,333,8020995,5805.39,70.94,235.27999999999975
172,0.068839,334,8021390,5805.39,70.94,235.27999999999975
173,0.069224,335,8021775,5805.39,70.94,235.27999999999975
174,0.069615,336,8022166,1316.39,-182.06,-1328.7200000000003
175,0.070016,337,8022567,1316.39,-182.06,-1328.7200000000003
176,0.070429,338,8022980,-2812.61,-224.06,-1683.7200000000003
177,0.070839,339,8023390,-2812.61,-224.06,-1683.7200000000003
178,0.071234,340,8023785,-2812.61,-224.06,-1683.7200000000003
179,0.071647,341,8024198,-2205.61,-456.06,-1594.7200000000003
180,0.072058,342,8024609,-2205.61,-456.06,-1594.7200000000003
181,0.072470,343,8025021,-898.61,-720.06,-2076.7200000000003
182,0.072881,344,8025432,-898.61,-720.06,-2076.7200000000003
183,0.073279,345,8025830,-483.61,-678.06,-2068.7200000000003
184,0.073688,346,8026239,-483.61,-678.06,-2068.7200000000003
185,0.074097,347,8026648,-483.61,-678.06,-2068.7200000000003
186,0.074508,348,8027059,1377.39,-462.06,-1132.7200000000003
187,0.074911,349,8027462,1377.39,-462.06,-1132.7200000000003
188,0.075300,350,8027851,1488.39,-197.06,-141.72000000000025
189,0.075696,351,8028247,1488.39,-197.06,-141.72000000000025
190,0.076097,352,8028648,1488.39,-197.06,-141.72000000000025
191,0.076500,353,8029051,-307.61,65.94,1337.2799999999997
192,0.076903,354,8029454,-307.61,65.94,1337.2799999999997
193,0.077299,355,8029850,-815.61,504.94,2163.2799999999997
194,0.077693,356,8030244,-815.61,504.94,2163.2799999999997
195,0.078095,357,8030646,-815.61,504.94,2163.2799999999997
196,0.078501,358,8031052,-1076.61,1051.94,2151.2799999999997
197,0.078900,359,8031451,-1076.61,1051.94,2151.2799999999997
198,0.079290,360,8031841,-732.61,892.94,3271.2799999999997
199,0.079693,361,8032244,-732.61,892.94,3271.2799999999997
200,0.080094,362,8032645,-732.61,892.94,3271.2799999999997
201,0.080500,363,8033051,903.39,737.94,3684.2799999999997
202,0.080889,364,8033440,903.39,737.94,3684.2799999999997
203,0.081263,365,8033814,903.39,737.94,3684.2799999999997
204,0.081653,366,8034204,-1526.61,677.94,2267.2799999999997
205,0.082061,367,8034612,-1526.61,677.94,2267.2799999999997
206,0.082468,368,8035019,-6795.61,-147.06,1233.2799999999997
207,0.082879,369,8035430,-6795.61,-147.06,1233.2799999999997
208,0.083278,370,8035829,-8913.61,-258.06,-42.720000000000255
209,0.083688,371,8036239,-8913.61,-258.06,-42.720000000000255
210,0.084097,372,8036648,-8913.61,-258.06,-42.720000000000255
211,0.084509,373,8037060,-9116.61,301.94,-2189.7200000000003
212,0.084900,374,8037451,-9116.61,301.94,-2189.7200000000003
213,0.085297,375,8037848,-2270.61,-182.06,-2000.7200000000003
214,0.085708,376,8038259,-2270.61,-182.06,-2000.7200000000003
215,0.086119,377,8038670,-2270.61,-182.06,-2000.7200000000003
216,0.086528,378,8039079,7416.39,-610.06,-1391.7200000000003
217,0.086931,379,8039482,7416.39,-610.06,-1391.7200000000003
218,0.087314,380,8039865,10533.39,-176.06,-1131.7200000000003
219,0.087720,381,8040271,10533.39,-176.06,-1131.7200000000003
220,0.088122,382,8040673,10533.39,-176.06,-1131.7200000000003
221,0.088524,383,8041075,7431.39,135.94,255.27999999999975
222,0.088920,384,8041471,7431.39,135.94,255.27999999999975
223,0.089308,385,8041859,1065.39,149.94,484.27999999999975
224,0.089704,386,8042255,1065.39,149.94,484.27999999999975
225,0.090092,387,8042643,1065.39,149.94,484.27999999999975
226,0.090485,388,8043036,-3052.61,652.94,387.27999999999975
227,0.090895,389,8043446,-3052.61,652.94,387.27999999999975
228,0.091285,390,8043836,-3830.61,151.94,765.2799999999997
229,0.091680,391,8044231,-3830.61,151.94,765.2799999999997
230,0.092081,392,8044632,-3830.61,151.94,765.2799999999997
231,0.092485,393,8045036,-931.61,-649.06,252.27999999999975
232,0.092899,394,8045450,-931.61,-649.06,252.27999999999975
233,0.093298,395,8045849,3188.39,-267.06,-1228.7200000000003
234,0.093698,396,8046249,3188.39,-267.06,-1228.7200000000003
235,0.094100,397,8046651,3188.39,-267.06,-1228.7200000000003
236,0.094502,398,8047053,2255.39,-164.06,-1553.7200000000003
237,0.094895,399,8047446,2255.39,-164.06,-1553.7200000000003
238,0.095281,400,8047832,-1151.61,-404.06,-1254.7200000000003
239,0.095689,401,8048240,-1151.61,-404.06,-1254.7200000000003
240,0.096098,402,8048649,-1151.61,-404.06,-1254.7200000000003
241,0.096507,403,8049058,-3524.61,-345.06,-1739.7200000000003
242,0.096917,404,8049468,-3524.61,-345.06,-1739.7200000000003
243,0.097315,405,8049866,-3983.61,-147.06,-876.7200000000003
244,0.097735,406,8050286,-3983.61,-147.06,-876.7200000000003
245,0.098145,407,8050696,-3983.61,-147.06,-876.7200000000003
246,0.098555,408,8051106,-2349.61,-550.06,1445.2799999999997
247,0.098966,409,8051517,-2349.61,-550.06,1445.2799999999997
248,0.099379,410,8051930,-222.61,-497.06,2813.2799999999997
249,0.099789,411,8052340,-222.61,-497.06,2813.2799999999997
250,0.100199,412,8052750,-222.61,-497.06,2813.2799999999997
251,0.100602,413,8053153,1107.39,381.94,2375.2799999999997
252,0.100990,414,8053541,1107.39,381.94,2375.2799999999997
253,0.101388,415,8053939,1535.39,1023.94,1079.2799999999997
254,0.101782,416,8054333,1535.39,1023.94,1079.2799999999997
255,0.102177,417,8054728,1535.39,1023.94,1079.2799999999997
256,0.102565,418,8055116,4421.39,868.94,856.2799999999997
257,0.102966,419,8055517,4421.39,868.94,856.2799999999997
258,0.103352,420,8055903,8622.39,388.94,1720.2799999999997
259,0.103750,421,8056301,8622.39,388.94,1720.2799999999997
260,0.104144,422,8056695,8622.39,388.94,1720.2799999999997
261,0.104533,423,8057084,7598.39,193.94,1047.2799999999997
262,0.104927,424,8057478,7598.39,193.94,1047.2799999999997
263,0.105323,425,8057874,2848.39,68.94,-853.7200000000003
264,0.105714,426,8058265,2848.39,68.94,-853.7200000000003
265,0.106108,427,8058659,2848.39,68.94,-853.7200000000003
266,0.106502,428,8059053,-384.61,-250.06,-1428.7200000000003
267,0.106918,429,8059469,-384.61,-250.06,-1428.7200000000003
268,0.107314,430,8059865,-2602.61,-376.06,-1501.7200000000003
269,0.107734,431,8060285,-2602.61,-376.06,-1501.7200000000003
270,0.108144,432,8060695,-2602.61,-376.06,-1501.7200000000003
271,0.108554,433,8061105,-2858.61,-317.06,-2032.7200000000003
272,0.108965,434,8061516,-2858.61,-317.06,-2032.7200000000003
273,0.109378,435,8061929,-428.61,-804.06,-2012.7200000000003
274,0.109788,436,8062339,-428.61,-804.06,-2012.7200000000003
275,0.110198,437,8062749,-428.61,-804.06,-2012.7200000000003
276,0.110602,438,8063153,2452.39,-724.06,-1463.7200000000003
277,0.111005,439,8063556,2452.39,-724.06,-1463.7200000000003
278,0.111411,440,8063962,1981.39,-149.06,-619.7200000000003
279,0.111798,441,8064349,1981.39,-149.06,-619.7200000000003
280,0.112187,442,8064738,1981.39,-149.06,-619.7200000000003
281,0.112583,443,8065134,-788.61,-38.06,584.2799999999997
282,0.112996,444,8065547,-788.61,-38.06,584.2799999999997
283,0.113410,445,8065961,-968.61,224.94,2070.2799999999997
284,0.113806,446,8066357,-968.61,224.94,2070.2799999999997
285,0.114207,447,8066758,-968.61,224.94,2070.2799999999997
286,0.114603,448,8067154,-1049.61,901.94,2019.2799999999997
287,0.115006,449,8067557,-1049.61,901.94,2019.2799999999997
288,0.115412,450,8067963,-1213.61,1152.94,2273.2799999999997
289,0.115808,451,8068359,-1213.61,1152.94,2273.2799999999997
290,0.116209,452,8068760,-1213.61,1152.94,2273.2799999999997
291,0.116598,453,8069149,153.39,524.94,4054.2799999999997
292,0.116985,454,8069536,153.39,524.94,4054.2799999999997
293,0.117392,455,8069943,461.39,662.94,3082.2799999999997
294,0.117786,456,8070337,461.39,662.94,3082.2799999999997
295,0.118173,457,8070724,461.39,662.94,3082.2799999999997
296,0.118561,458,8071112,-3282.61,114.94,1250.2799999999997
297,0.118972,459,8071523,-3282.61,114.94,1250.2799999999997
298,0.119378,460,8071929,-10072.61,-249.06,566.2799999999997
299,0.119788,461,8072339,-10072.61,-249.06,566.2799999999997
300,0.120191,462,8072742,-10072.61,-249.06,566.2799999999997
301,0.120595,463,8073146,-11341.61,357.94,-1187.7200000000003
302,0.120992,464,8073543,-11341.61,357.94,-1187.7200000000003
303,0.121406,465,8073957,-3993.61,-109.06,-2446.7200000000003
304,0.121816,466,8074367,-3993.61,-109.06,-2446.7200000000003
305,0.122219,467,8074770,-3993.61,-109.06,-2446.7200000000003
306,0.122623,468,8075174,4917.39,-613.06,-1549.7200000000003
307,0.123018,469,8075569,4917.39,-613.06,-1549.7200000000003
308,0.123431,470,8075982,9754.39,2.9400000000000013,-1160.7200000000003
309,0.123826,471,8076377,9754.39,2.9400000000000013,-1160.7200000000003
310,0.124227,472,8076778,9754.39,2.9400000000000013,-1160.7200000000003
311,0.124623,473,8077174,9711.39,101.94,-54.720000000000255
312,0.125018,474,8077569,9711.39,101.94,-54.720000000000255
313,0.125415,475,8077966,3611.39,-99.06,768.2799999999997
314,0.125816,476,8078367,3611.39,-99.06,768.2799999999997
315,0.126218,477,8078769,3611.39,-99.06,768.2799999999997
316,0.126609,478,8079160,-2516.61,646.94,143.27999999999975
317,0.127004,479,8079555,-2516.61,646.94,143.27999999999975
318,0.127416,480,8079967,-3739.61,336.94,650.2799999999997
319,0.127811,481,8080362,-3739.61,336.94,650.2799999999997
320,0.128205,482,8080756,-3739.61,336.94,650.2799999999997
321,0.128583,483,8081134,-1295.61,-438.06,515.2799999999997
322,0.128995,484,8081546,-1295.61,-438.06,515.2799999999997
323,0.129410,485,8081961,1738.39,-474.06,-889.7200000000003
324,0.129806,486,8082357,1738.39,-474.06,-889.7200000000003
325,0.130203,487,8082754,1738.39,-474.06,-889.7200000000003
326,0.130599,488,8083150,2015.39,-211.06,-1695.7200000000003
327,0.130997,489,8083548,2015.39,-211.06,-1695.7200000000003
328,0.131403,490,8083954,351.39,-470.06,-1354.7200000000003
329,0.131806,491,8084357,351.39,-470.06,-1354.7200000000003
330,0.132201,492,8084752,351.39,-470.06,-1354.7200000000003
331,0.132597,493,8085148,-2923.61,-334.06,-1843.7200000000003
332,0.133006,494,8085557,-2923.61,-334.06,-1843.7200000000003
333,0.133414,495,8085965,-5232.61,-148.06,-1391.7200000000003
334,0.133830,496,8086381,-5232.61,-148.06,-1391.7200000000003
335,0.134233,497,8086784,-5232.61,-148.06,-1391.7200000000003
336,0.134645,498,8087196,-3159.61,-613.06,1164.2799999999997
337,0.135054,499,8087605,-3159.61,-613.06,1164.2799999999997
338,0.135468,500,8088019,-980.61,-557.06,2482.2799999999997
339,0.135878,501,8088429,-980.61,-557.06,2482.2799999999997
340,0.136277,502,8088828,-1813.61,274.94,2205.2799999999997
341,0.136673,503,8089224,-1813.61,274.94,2205.2799999999997
342,0.137075,504,8089626,-1813.61,274.94,2205.2799999999997
343,0.137480,505,8090031,2664.39,832.94,2098.2799999999997
344,0.137878,506,8090429,2664.39,832.94,2098.2799999999997
345,0.138252,507,8090803,2664.39,832.94,2098.2799999999997
346,0.138643,508,8091194,6548.39,1109.94,1287.2799999999997
347,0.139031,509,8091582,6548.39,1109.94,1287.2799999999997
348,0.139429,510,8091980,7754.39,857.94,1086.2799999999997
349,0.139823,511,8092374,7754.39,857.94,1086.2799999999997
350,0.140209,512,8092760,7754.39,857.94,1086.2799999999997
351,0.140590,513,8093141,7694.39,284.94,1626.2799999999997
352,0.140985,514,8093536,7694.39,284.94,1626.2799999999997
353,0.141384,515,8093935,4831.39,41.94,355.27999999999975
354,0.141778,516,8094329,4831.39,41.94,355.27999999999975
355,0.142172,517,8094723,4831.39,41.94,355.27999999999975
356,0.142553,518,8095104,603.39,-144.06,-1409.7200000000003
357,0.142962,519,8095513,603.39,-144.06,-1409.7200000000003
358,0.143356,520,8095907,-3217.61,-334.06,-1860.7200000000003
359,0.143774,521,8096325,-3217.61,-334.06,-1860.7200000000003
360,0.144185,522,8096736,-3217.61,-334.06,-1860.7200000000003
361,0.144589,523,8097140,-1825.61,-575.06,-1857.7200000000003
362,0.144992,524,8097543,-1825.61,-575.06,-1857.7200000000003
363,0.145407,525,8097958,-296.61,-650.06,-2499.7200000000003
364,0.145816,526,8098367,-296.61,-650.06,-2499.7200000000003
365,0.146223,527,8098774,-296.61,-650.06,-2499.7200000000003
366,0.146626,528,8099177,73.39,-703.06,-2241.7200000000003
367,0.147035,529,8099586,73.39,-703.06,-2241.7200000000003
368,0.147450,530,8100001,1071.39,-458.06,-1155.7200000000003
369,0.147851,531,8100402,1071.39,-458.06,-1155.7200000000003
370,0.148246,532,8100797,1071.39,-458.06,-1155.7200000000003
371,0.148652,533,8101203,720.39,-188.06,-85.72000000000025
372,0.149054,534,8101605,720.39,-188.06,-85.72000000000025
373,0.149458,535,8102009,-322.61,-25.06,1508.2799999999997
374,0.149867,536,8102418,-322.61,-25.06,1508.2799999999997
375,0.150261,537,8102812,-926.61,479.94,2492.2799999999997
376,0.150672,538,8103223,-926.61,479.94,2492.2799999999997
377,0.151067,539,8103618,-926.61,479.94,2492.2799999999997
378,0.151474,540,8104025,-1395.61,1197.94,2659.2799999999997
379,0.151871,541,8104422,-1395.61,1197.94,2659.2799999999997
380,0.152274,542,8104825,-1183.61,993.94,3372.2799999999997
381,0.152669,543,8105220,-1183.61,993.94,3372.2799999999997
382,0.153077,544,8105628,-1183.61,993.94,3372.2799999999997
383,0.153477,545,8106028,1080.39,747.94,3564.2799999999997
384,0.153871,546,8106422,1080.39,747.94,3564.2799999999997
385,0.154251,547,8106802,1080.39,747.94,3564.2799999999997
386,0.154641,548,8107192,-2860.61,614.94,2435.2799999999997
387,0.155038,549,8107589,-2860.61,614.94,2435.2799999999997
388,0.155452,550,8108003,-7600.61,-336.06,1568.2799999999997
389,0.155862,551,8108413,-7600.61,-336.06,1568.2799999999997
390,0.156258,552,8108809,-7600.61,-336.06,1568.2799999999997
391,0.156656,553,8109207,-8681.61,-219.06,-363.72000000000025
392,0.157070,554,8109621,-8681.61,-219.06,-363.72000000000025
393,0.157479,555,8110030,-7956.61,556.94,-2503.7200000000003
394,0.157887,556,8110438,-7956.61,556.94,-2503.7200000000003
395,0.158278,557,8110829,-22.61,-181.06,-1960.7200000000003
396,0.158682,558,8111233,-22.61,-181.06,-1960.7200000000003
397,0.159092,559,8111643,-22.61,-181.06,-1960.7200000000003
398,0.159504,560,8112055,8739.39,-770.06,-1578.7200000000003
399,0.159910,561,8112461,8739.39,-770.06,-1578.7200000000003
400,0.160301,562,8112852,11214.39,-31.06,-969.7200000000003
401,0.160709,563,8113260,11214.39,-31.06,-969.7200000000003
402,0.161111,564,8113662,11214.39,-31.06,-969.7200000000003
403,0.161506,565,8114057,5752.39,193.94,280.27999999999975
404,0.161895,566,8114446,5752.39,193.94,280.27999999999975
405,0.162256,567,8114807,5752.39,193.94,280.27999999999975
406,0.162632,568,8115183,-540.61,169.94,531.2799999999997
407,0.163040,569,8115591,-540.61,169.94,531.2799999999997
408,0.163446,570,8115997,-3733.61,334.94,569.2799999999997
409,0.163849,571,8116400,-3733.61,334.94,569.2799999999997
410,0.164235,572,8116786,-3733.61,334.94,569.2799999999997
411,0.164641,573,8117192,-3554.61,39.94,317.27999999999975
412,0.165043,574,8117594,-3554.61,39.94,317.27999999999975
413,0.165448,575,8117999,242.39,-540.06,-392.72000000000025
414,0.165843,576,8118394,242.39,-540.06,-392.72000000000025
415,0.166238,577,8118789,242.39,-540.06,-392.72000000000025
416,0.166636,578,8119187,3472.39,-434.06,-1278.7200000000003
417,0.167046,579,8119597,3472.39,-434.06,-1278.7200000000003
418,0.167452,580,8120003,2415.39,-142.06,-1502.7200000000003
419,0.167854,581,8120405,2415.39,-142.06,-1502.7200000000003
420,0.168241,582,8120792,2415.39,-142.06,-1502.7200000000003
421,0.168647,583,8121198,-1934.61,-331.06,-1622.7200000000003
422,0.169056,584,8121607,-1934.61,-331.06,-1622.7200000000003
423,0.169467,585,8122018,-5011.61,-181.06,-1555.7200000000003
424,0.169879,586,8122430,-5011.61,-181.06,-1555.7200000000003
425,0.170278,587,8122829,-3666.61,-334.06,60.279999999999745
426,0.170682,588,8123233,-3666.61,-334.06,60.279999999999745
427,0.171092,589,8123643,-3666.61,-334.06,60.279999999999745
428,0.171505,590,8124056,-1576.61,-530.06,1949.2799999999997
429,0.171915,591,8124466,-1576.61,-530.06,1949.2799999999997
430,0.172313,592,8124864,45.39,-229.06,2755.2799999999997
431,0.172731,593,8125282,45.39,-229.06,2755.2799999999997
432,0.173140,594,8125691,45.39,-229.06,2755.2799999999997
433,0.173540,595,8126091,2442.39,504.94,2444.2799999999997
434,0.173933,596,8126484,2442.39,504.94,2444.2799999999997
435,0.174321,597,8126872,2844.39,1130.94,1015.2799999999997
436,0.174718,598,8127269,2844.39,1130.94,1015.2799999999997
437,0.175112,599,8127663,2844.39,1130.94,1015.2799999999997
438,0.175507,600,8128058,3421.39,861.94,806.2799999999997
439,0.175903,601,8128454,3421.39,861.94,806.2799999999997
440,0.176292,602,8128843,6810.39,239.94,1715.2799999999997
441,0.176681,603,8129232,6810.39,239.94,1715.2799999999997
442,0.177075,604,8129626,6810.39,239.94,1715.2799999999997
443,0.177468,605,8130019,7169.39,27.94,722.2799999999997
444,0.177862,606,8130413,7169.39,27.94,722.2799999999997
445,0.178250,607,8130801,7169.39,27.94,722.2799999999997
446,0.178640,608,8131191,2803.39,-3.0599999999999987,-1120.7200000000003
447,0.179048,609,8131599,2803.39,-3.0599999999999987,-1120.7200000000003
448,0.179454,610,8132005,-658.61,-352.06,-1667.7200000000003
449,0.179864,611,8132415,-658.61,-352.06,-1667.7200000000003
450,0.180276,612,8132827,-2093.61,-332.06,-1712.7200000000003
451,0.180685,613,8133236,-2093.61,-332.06,-1712.7200000000003
452,0.181095,614,8133646,-2093.61,-332.06,-1712.7200000000003
453,0.181507,615,8134058,-1919.61,-371.06,-2103.7200000000003
454,0.181918,616,8134469,-1919.61,-371.06,-2103.7200000000003
455,0.182323,617,8134874,-667.61,-749.06,-1913.7200000000003
456,0.182737,618,8135288,-667.61,-749.06,-1913.7200000000003
457,0.183147,619,8135698,-667.61,-749.06,-1913.7200000000003
458,0.183557,620,8136108,2203.39,-641.06,-1165.7200000000003
459,0.183961,621,8136512,2203.39,-641.06,-1165.7200000000003
460,0.184366,622,8136917,1928.39,-154.06,-279.72000000000025
461,0.184768,623,8137319,1928.39,-154.06,-279.72000000000025
462,0.185162,624,8137713,1928.39,-154.06,-279.72000000000025
463,0.185558,625,8138109,-980.61,18.94,1142.2799999999997
464,0.185969,626,8138520,-980.61,18.94,1142.2799999999997
465,0.186374,627,8138925,-1160.61,365.94,2151.2799999999997
466,0.186769,628,8139320,-1160.61,365.94,2151.2799999999997
467,0.187171,629,8139722,-1160.61,365.94,2151.2799999999997
468,0.187575,630,8140126,-1207.61,1092.94,1887.2799999999997
469,0.187970,631,8140521,-1207.61,1092.94,1887.2799999999997
470,0.188383,632,8140934,-656.61,954.94,2586.2799999999997
471,0.188778,633,8141329,-656.61,954.94,2586.2799999999997
472,0.189179,634,8141730,-656.61,954.94,2586.2799999999997
473,0.189583,635,8142134,230.39,411.94,3945.2799999999997
474,0.189972,636,8142523,230.39,411.94,3945.2799999999997
475,0.190371,637,8142922,479.39,542.94,2673.2799999999997
476,0.190765,638,8143316,479.39,542.94,2673.2799999999997
477,0.191158,639,8143709,479.39,542.94,2673.2799999999997
478,0.191546,640,8144097,-3897.61,24.94,897.2799999999997
479,0.191950,641,8144501,-3897.61,24.94,897.2799999999997
480,0.192345,642,8144896,-10801.61,-214.06,238.27999999999975
481,0.192765,643,8145316,-10801.61,-214.06,238.27999999999975
482,0.193176,644,8145727,-10801.61,-214.06,238.27999999999975
483,0.193580,645,8146131,-11663.61,387.94,-1442.7200000000003
484,0.193984,646,8146535,-11663.61,387.94,-1442.7200000000003
485,0.194383,647,8146934,-2536.61,-78.06,-2125.7200000000003
486,0.194799,648,8147350,-2536.61,-78.06,-2125.7200000000003
487,0.195188,649,8147739,-2536.61,-78.06,-2125.7200000000003
488,0.195592,650,8148143,6128.39,-514.06,-1310.7200000000003
489,0.195990,651,8148541,6128.39,-514.06,-1310.7200000000003
490,0.196396,652,8148947,9692.39,-16.06,-934.7200000000003
491,0.196797,653,8149348,9692.39,-16.06,-934.7200000000003
492,0.197198,654,8149749,9692.39,-16.06,-934.7200000000003
493,0.197587,655,8150138,9403.39,150.94,196.27999999999975
494,0.197983,656,8150534,9403.39,150.94,196.27999999999975
495,0.198388,657,8150939,2891.39,-52.06,703.2799999999997
496,0.198782,658,8151333,2891.39,-52.06,703.2799999999997
497,0.199183,659,8151734,2891.39,-52.06,703.2799999999997
498,0.199587,660,8152138,-2710.61,520.94,172.27999999999975
499,0.199979,661,8152530,-2710.61,520.94,172.27999999999975
500,0.200393,662,8152944,-3877.61,390.94,440.27999999999975
501,0.200787,663,8153338,-3877.61,390.94,440.27999999999975
502,0.201189,664,8153740,-3877.61,390.94,440.27999999999975
503,0.201586,665,8154137,-1011.61,-572.06,294.27999999999975
504,0.201996,666,8154547,-1011.61,-572.06,294.27999999999975
505,0.202410,667,8154961,2241.39,-486.06,-1109.7200000000003
506,0.202813,668,8155364,2241.39,-486.06,-1109.7200000000003
507,0.203206,669,8155757,2241.39,-486.06,-1109.7200000000003
508,0.203603,670,8156154,1722.39,-67.06,-1709.7200000000003
509,0.203997,671,8156548,1722.39,-67.06,-1709.7200000000003
510,0.204411,672,8156962,-475.61,-584.06,-1204.7200000000003
511,0.204812,673,8157363,-475.61,-584.06,-1204.7200000000003
512,0.205216,674,8157767,-475.61,-584.06,-1204.7200000000003
513,0.205619,675,8158170,-3972.61,-520.06,-1832.7200000000003
514,0.206029,676,8158580,-3972.61,-520.06,-1832.7200000000003
515,0.206443,677,8158994,-5414.61,-115.06,-1321.7200000000003
516,0.206854,678,8159405,-5414.61,-115.06,-1321.7200000000003
517,0.207249,679,8159800,-5414.61,-115.06,-1321.7200000000003
518,0.207656,680,8160207,-2423.61,-524.06,1431.2799999999997
519,0.208073,681,8160624,-2423.61,-524.06,1431.2799999999997
520,0.208487,682,8161038,325.39,-439.06,2405.2799999999997
521,0.208891,683,8161442,325.39,-439.06,2405.2799999999997
522,0.209282,684,8161833,929.39,437.94,2199.2799999999997
523,0.209669,685,8162220,929.39,437.94,2199.2799999999997
524,0.210063,686,8162614,929.39,437.94,2199.2799999999997
525,0.210460,687,8163011,1874.39,959.94,2113.2799999999997
526,0.210854,688,8163405,1874.39,959.94,2113.2799999999997
527,0.211240,689,8163791,1874.39,959.94,2113.2799999999997
528,0.211624,690,8164175,5124.39,982.94,1252.2799999999997
529,0.212005,691,8164556,5124.39,982.94,1252.2799999999997
530,0.212403,692,8164954,7718.39,643.94,1185.2799999999997
531,0.212796,693,8165347,7718.39,643.94,1185.2799999999997
532,0.213185,694,8165736,7718.39,643.94,1185.2799999999997
533,0.213574,695,8166125,6577.39,229.94,1487.2799999999997
534,0.213969,696,8166520,6577.39,229.94,1487.2799999999997
535,0.214373,697,8166924,4518.39,-127.06,147.27999999999975
536,0.214775,698,8167326,4518.39,-127.06,147.27999999999975
537,0.215177,699,8167728,4518.39,-127.06,147.27999999999975
538,0.215574,700,8168125,1029.39,-360.06,-1776.7200000000003
539,0.215976,701,8168527,1029.39,-360.06,-1776.7200000000003
540,0.216382,702,8168933,-2773.61,-258.06,-2077.7200000000003
541,0.216792,703,8169343,-2773.61,-258.06,-2077.7200000000003
542,0.217200,704,8169751,-2773.61,-258.06,-2077.7200000000003
543,0.217604,705,8170155,-2617.61,-299.06,-1968.7200000000003
544,0.218014,706,8170565,-2617.61,-299.06,-1968.7200000000003
545,0.218427,707,8170978,-813.61,-827.06,-2446.7200000000003
546,0.218837,708,8171388,-813.61,-827.06,-2446.7200000000003
547,0.219232,709,8171783,-813.61,-827.06,-2446.7200000000003
548,0.219645,710,8172196,569.39,-809.06,-1980.7200000000003
549,0.220041,711,8172592,569.39,-809.06,-1980.7200000000003
550,0.220447,712,8172998,1746.39,-317.06,-643.7200000000003
551,0.220850,713,8173401,1746.39,-317.06,-643.7200000000003
552,0.221237,714,8173788,1746.39,-317.06,-643.7200000000003
553,0.221643,715,8174194,993.39,-127.06,463.27999999999975
554,0.222043,716,8174594,993.39,-127.06,463.27999999999975
555,0.222444,717,8174995,-715.61,41.94,1749.2799999999997
556,0.222841,718,8175392,-715.61,41.94,1749.2799999999997
557,0.223228,719,8175779,-715.61,41.94,1749.2799999999997
558,0.223633,720,8176184,-1242.61,803.94,2443.2799999999997
559,0.224036,721,8176587,-1242.61,803.94,2443.2799999999997
560,0.224441,722,8176992,-1528.61,1331.94,2321.2799999999997
561,0.224837,723,8177388,-1528.61,1331.94,2321.2799999999997
562,0.225231,724,8177782,-1528.61,1331.94,2321.2799999999997
563,0.225637,725,8178188,-724.61,714.94,3472.2799999999997
564,0.226032,726,8178583,-724.61,714.94,3472.2799999999997
565,0.226438,727,8178989,1245.39,551.94,3877.2799999999997
566,0.226832,728,8179383,1245.39,551.94,3877.2799999999997
567,0.227225,729,8179776,1245.39,551.94,3877.2799999999997
568,0.227606,730,8180157,-3307.61,502.94,1768.2799999999997
569,0.228016,731,8180567,-3307.61,502.94,1768.2799999999997
570,0.228416,732,8180967,-8674.61,-259.06,848.2799999999997
571,0.228827,733,8181378,-8674.61,-259.06,848.2799999999997
572,0.229221,734,8181772,-8674.61,-259.06,848.2799999999997
573,0.229634,735,8182185,-10063.61,-146.06,-501.72000000000025
574,0.230044,736,8182595,-10063.61,-146.06,-501.72000000000025
575,0.230460,737,8183011,-6610.61,439.94,-2670.7200000000003
576,0.230862,738,8183413,-6610.61,439.94,-2670.7200000000003
577,0.231251,739,8183802,-6610.61,439.94,-2670.7200000000003
578,0.231656,740,8184207,2124.39,-333.06,-1990.7200000000003
579,0.232059,741,8184610,2124.39,-333.06,-1990.7200000000003
580,0.232459,742,8185010,9553.39,-545.06,-1391.7200000000003
581,0.232854,743,8185405,9553.39,-545.06,-1391.7200000000003
582,0.233248,744,8185799,9553.39,-545.06,-1391.7200000000003
583,0.233647,745,8186198,10822.39,196.94,-649.7200000000003
584,0.234042,746,8186593,10822.39,196.94,-649.7200000000003
585,0.234441,747,8186992,4607.39,108.94,586.2799999999997
586,0.234835,748,8187386,4607.39,108.94,586.2799999999997
587,0.235222,749,8187773,4607.39,108.94,586.2799999999997
588,0.235612,750,8188163,-1262.61,156.94,630.2799999999997
589,0.236015,751,8188566,-1262.61,156.94,630.2799999999997
590,0.236419,752,8188970,-3429.61,410.94,575.2799999999997
591,0.236812,753,8189363,-3429.61,410.94,575.2799999999997
592,0.237208,754,8189759,-3429.61,410.94,575.2799999999997
593,0.237605,755,8190156,-2339.61,-123.06,375.27999999999975
594,0.238015,756,8190566,-2339.61,-123.06,375.27999999999975
595,0.238427,757,8190978,828.39,-611.06,-526.7200000000003
596,0.238821,758,8191372,828.39,-611.06,-526.7200000000003
597,0.239223,759,8191774,828.39,-611.06,-526.7200000000003
598,0.239619,760,8192170,2901.39,-221.06,-1664.7200000000003
599,0.240020,761,8192571,2901.39,-221.06,-1664.7200000000003
600,0.240425,762,8192976,1487.39,-267.06,-1696.7200000000003
601,0.240820,763,8193371,1487.39,-267.06,-1696.7200000000003
602,0.241222,764,8193773,1487.39,-267.06,-1696.7200000000003
603,0.241612,765,8194163,-2847.61,-384.06,-1733.7200000000003
604,0.242029,766,8194580,-2847.61,-384.06,-1733.7200000000003
605,0.242443,767,8194994,-5221.61,-139.06,-1442.7200000000003
606,0.242854,768,8195405,-5221.61,-139.06,-1442.7200000000003
607,0.243249,769,8195800,-5221.61,-139.06,-1442.7200000000003
608,0.243663,770,8196214,-3767.61,-409.06,623.2799999999997
609,0.244072,771,8196623,-3767.61,-409.06,623.2799999999997
610,0.244487,772,8197038,-2091.61,-558.06,2365.2799999999997
611,0.244900,773,8197451,-2091.61,-558.06,2365.2799999999997
612,0.245297,774,8197848,-925.61,-31.06,2663.2799999999997
613,0.245700,775,8198251,-925.61,-31.06,2663.2799999999997
614,0.246109,776,8198660,-925.61,-31.06,2663.2799999999997
615,0.246519,777,8199070,3038.39,713.94,2334.2799999999997
616,0.246915,778,8199466,3038.39,713.94,2334.2799999999997
617,0.247296,779,8199847,5108.39,1108.94,1275.2799999999997
618,0.247685,780,8200236,5108.39,1108.94,1275.2799999999997
619,0.248079,781,8200630,5108.39,1108.94,1275.2799999999997
620,0.248473,782,8201024,5616.39,852.94,953.2799999999997
621,0.248867,783,8201418,5616.39,852.94,953.2799999999997
622,0.249253,784,8201804,7678.39,287.94,1456.2799999999997
623,0.249644,785,8202195,7678.39,287.94,1456.2799999999997
624,0.250038,786,8202589,7678.39,287.94,1456.2799999999997
625,0.250437,787,8202988,6415.39,-40.06,503.27999999999975
626,0.250838,788,8203389,6415.39,-40.06,503.27999999999975
627,0.251233,789,8203784,6415.39,-40.06,503.27999999999975
628,0.251639,790,8204190,1624.39,-95.06,-1162.7200000000003
629,0.252041,791,8204592,1624.39,-95.06,-1162.7200000000003
630,0.252447,792,8204998,-2324.61,-272.06,-1868.7200000000003
631,0.252858,793,8205409,-2324.61,-272.06,-1868.7200000000003
632,0.253253,794,8205804,-2009.61,-620.06,-1899.7200000000003
633,0.253666,795,8206217,-2009.61,-620.06,-1899.7200000000003
634,0.254076,796,8206627,-2009.61,-620.06,-1899.7200000000003
635,0.254490,797,8207041,-859.61,-573.06,-2209.7200000000003
636,0.254902,798,8207453,-859.61,-573.06,-2209.7200000000003
637,0.255300,799,8207851,-464.61,-548.06,-2256.7200000000003
638,0.255715,800,8208266,-464.61,-548.06,-2256.7200000000003
639,0.256124,801,8208675,-464.61,-548.06,-2256.7200000000003
640,0.256534,802,8209085,1398.39,-711.06,-1158.7200000000003
641,0.256932,803,8209483,1398.39,-711.06,-1158.7200000000003
642,0.257335,804,8209886,1267.39,-155.06,-223.72000000000025
643,0.257732,805,8210283,1267.39,-155.06,-223.72000000000025
644,0.258134,806,8210685,1267.39,-155.06,-223.72000000000025
645,0.258536,807,8211087,-480.61,140.94,1203.2799999999997
646,0.258947,808,8211498,-480.61,140.94,1203.2799999999997
647,0.259341,809,8211892,-479.61,355.94,2388.2799999999997
648,0.259752,810,8212303,-479.61,355.94,2388.2799999999997
649,0.260146,811,8212697,-479.61,355.94,2388.2799999999997
650,0.260542,812,8213093,-1252.61,946.94,2284.2799999999997
651,0.260944,813,8213495,-1252.61,946.94,2284.2799999999997
652,0.261347,814,8213898,-1019.61,958.94,3228.2799999999997
653,0.261752,815,8214303,-1019.61,958.94,3228.2799999999997
654,0.262160,816,8214711,-1019.61,958.94,3228.2799999999997
655,0.262557,817,8215108,158.39,797.94,3662.2799999999997
656,0.262944,818,8215495,158.39,797.94,3662.2799999999997
657,0.263338,819,8215889,-1458.61,656.94,2597.2799999999997
658,0.263751,820,8216302,-1458.61,656.94,2597.2799999999997
659,0.264152,821,8216703,-1458.61,656.94,2597.2799999999997
660,0.264555,822,8217106,-5807.61,24.94,1607.2799999999997
661,0.264951,823,8217502,-5807.61,24.94,1607.2799999999997
662,0.265352,824,8217903,-8999.61,-368.06,-6.720000000000255
663,0.265760,825,8218311,-8999.61,-368.06,-6.720000000000255
664,0.266178,826,8218729,-8999.61,-368.06,-6.720000000000255
665,0.266582,827,8219133,-9813.61,388.94,-2237.7200000000003
666,0.266980,828,8219531,-9813.61,388.94,-2237.7200000000003
667,0.267381,829,8219932,-2358.61,-134.06,-2003.7200000000003
668,0.267789,830,8220340,-2358.61,-134.06,-2003.7200000000003
669,0.268199,831,8220750,-2358.61,-134.06,-2003.7200000000003
670,0.268603,832,8221154,7267.39,-621.06,-1442.7200000000003
671,0.269006,833,8221557,7267.39,-621.06,-1442.7200000000003
672,0.269412,834,8221963,10590.39,-5.059999999999999,-1311.7200000000003
673,0.269815,835,8222366,10590.39,-5.059999999999999,-1311.7200000000003
674,0.270210,836,8222761,10590.39,-5.059999999999999,-1311.7200000000003
675,0.270599,837,8223150,8649.39,-144.06,310.27999999999975
676,0.271001,838,8223552,8649.39,-144.06,310.27999999999975
677,0.271413,839,8223964,1421.39,187.94,565.2799999999997
678,0.271800,840,8224351,1421.39,187.94,565.2799999999997
679,0.272195,841,8224746,1421.39,187.94,565.2799999999997
680,0.272577,842,8225128,-3289.61,570.94,338.27999999999975
681,0.272981,843,8225532,-3289.61,570.94,338.27999999999975
682,0.273387,844,8225938,-4133.61,47.94,504.27999999999975
683,0.273789,845,8226340,-4133.61,47.94,504.27999999999975
684,0.274190,846,8226741,-4133.61,47.94,504.27999999999975
685,0.274580,847,8227131,-903.61,-491.06,12.279999999999745
686,0.274997,848,8227548,-903.61,-491.06,12.279999999999745
687,0.275411,849,8227962,3152.39,-374.06,-1127.7200000000003
688,0.275812,850,8228363,3152.39,-374.06,-1127.7200000000003
689,0.276214,851,8228765,3152.39,-374.06,-1127.7200000000003
690,0.276602,852,8229153,2422.39,-237.06,-1634.7200000000003
691,0.277011,853,8229562,2422.39,-237.06,-1634.7200000000003
692,0.277410,854,8229961,-816.61,-342.06,-1450.7200000000003
693,0.277825,855,8230376,-816.61,-342.06,-1450.7200000000003
694,0.278220,856,8230771,-816.61,-342.06,-1450.7200000000003
695,0.278624,857,8231175,-4223.61,-246.06,-1646.7200000000003
696,0.279034,858,8231585,-4223.61,-246.06,-1646.7200000000003
697,0.279447,859,8231998,-5062.61,-236.06,-504.72000000000025
698,0.279856,860,8232407,-5062.61,-236.06,-504.72000000000025
699,0.280252,861,8232803,-3183.61,-500.06,1522.2799999999997
700,0.280665,862,8233216,-3183.61,-500.06,1522.2799999999997
701,0.281076,863,8233627,-3183.61,-500.06,1522.2799999999997
702,0.281490,864,8234041,-78.61,-380.06,2477.2799999999997
703,0.281902,865,8234453,-78.61,-380.06,2477.2799999999997
704,0.282300,866,8234851,1872.39,333.94,2575.2799999999997
705,0.282688,867,8235239,1872.39,333.94,2575.2799999999997
706,0.283078,868,8235629,1872.39,333.94,2575.2799999999997
707,0.283470,869,8236021,1841.39,1007.94,1682.2799999999997
708,0.283863,870,8236414,1841.39,1007.94,1682.2799999999997
709,0.284252,871,8236803,4905.39,978.94,857.2799999999997
710,0.284649,872,8237200,4905.39,978.94,857.2799999999997
711,0.285043,873,8237594,4905.39,978.94,857.2799999999997
712,0.285440,874,8237991,8688.39,420.94,1374.2799999999997
713,0.285835,875,8238386,8688.39,420.94,1374.2799999999997
714,0.286221,876,8238772,8688.39,420.94,1374.2799999999997
715,0.286603,877,8239154,6518.39,207.94,1210.2799999999997
716,0.286996,878,8239547,6518.39,207.94,1210.2799999999997
717,0.287395,879,8239946,3379.39,-1.0599999999999987,-383.72000000000025
718,0.287796,880,8240347,3379.39,-1.0599999999999987,-383.72000000000025
719,0.288198,881,8240749,3379.39,-1.0599999999999987,-383.72000000000025
720,0.288586,882,8241137,324.39,-322.06,-1599.7200000000003
721,0.288990,883,8241541,324.39,-322.06,-1599.7200000000003
722,0.289404,884,8241955,-2238.61,-285.06,-1889.7200000000003
723,0.289814,885,8242365,-2238.61,-285.06,-1889.7200000000003
724,0.290216,886,8242767,-2238.61,-285.06,-1889.7200000000003
725,0.290620,887,8243171,-2235.61,-306.06,-2166.7200000000003
726,0.291029,888,8243580,-2235.61,-306.06,-2166.7200000000003
727,0.291443,889,8243994,-603.61,-810.06,-2172.7200000000003
728,0.291853,890,8244404,-603.61,-810.06,-2172.7200000000003
729,0.292248,891,8244799,1375.39,-724.06,-1636.7200000000003
730,0.292646,892,8245197,1375.39,-724.06,-1636.7200000000003
731,0.293048,893,8245599,1375.39,-724.06,-1636.7200000000003
732,0.293453,894,8246004,1179.39,-324.06,-700.7200000000003
733,0.293855,895,8246406,1179.39,-324.06,-700.7200000000003
734,0.294249,896,8246800,-276.61,-2.0599999999999987,452.27999999999975
735,0.294662,897,8247213,-276.61,-2.0599999999999987,452.27999999999975
736,0.295056,898,8247607,-276.61,-2.0599999999999987,452.27999999999975
737,0.295461,899,8248012,-494.61,97.94,2086.2799999999997
738,0.295864,900,8248415,-494.61,97.94,2086.2799999999997
739,0.296253,901,8248804,-680.61,751.94,2267.2799999999997
740,0.296657,902,8249208,-680.61,751.94,2267.2799999999997
741,0.297052,903,8249603,-680.61,751.94,2267.2799999999997
742,0.297463,904,8250014,-1371.61,1385.94,2279.2799999999997
743,0.297867,905,8250418,-1371.61,1385.94,2279.2799999999997
744,0.298254,906,8250805,-18.61,574.94,3904.2799999999997
745,0.298652,907,8251203,-18.61,574.94,3904.2799999999997
746,0.299054,908,8251605,-18.61,574.94,3904.2799999999997
747,0.299467,909,8252018,578.39,717.94,3383.2799999999997
748,0.299853,910,8252404,578.39,717.94,3383.2799999999997
749,0.300234,911,8252785,578.39,717.94,3383.2799999999997
750,0.300625,912,8253176,-3775.61,437.94,1595.2799999999997
751,0.301027,913,8253578,-3775.61,437.94,1595.2799999999997
752,0.301441,914,8253992,-9423.61,-437.06,833.2799999999997
753,0.301850,915,8254401,-9423.61,-437.06,833.2799999999997
754,0.302246,916,8254797,-9423.61,-437.06,833.2799999999997
755,0.302659,917,8255210,-10721.61,241.94,-868.7200000000003
756,0.303068,918,8255619,-10721.61,241.94,-868.7200000000003
757,0.303473,919,8256024,-5136.61,154.94,-2423.7200000000003
758,0.303871,920,8256422,-5136.61,154.94,-2423.7200000000003
759,0.304259,921,8256810,3620.39,-615.06,-1705.7200000000003
760,0.304658,922,8257209,3620.39,-615.06,-1705.7200000000003
761,0.305059,923,8257610,3620.39,-615.06,-1705.7200000000003
762,0.305463,924,8258014,9684.39,-201.06,-1499.7200000000003
763,0.305866,925,8258417,9684.39,-201.06,-1499.7200000000003
764,0.306259,926,8258810,10229.39,60.94,-526.7200000000003
765,0.306651,927,8259202,10229.39,60.94,-526.7200000000003
766,0.307045,928,8259596,10229.39,60.94,-526.7200000000003
767,0.307441,929,8259992,3912.39,4.940000000000001,478.27999999999975
768,0.307842,930,8260393,3912.39,4.940000000000001,478.27999999999975
769,0.308237,931,8260788,3912.39,4.940000000000001,478.27999999999975
770,0.308636,932,8261187,-1936.61,474.94,248.27999999999975
771,0.309044,933,8261595,-1936.61,474.94,248.27999999999975
772,0.309451,934,8262002,-3562.61,325.94,727.2799999999997
773,0.309845,935,8262396,-3562.61,325.94,727.2799999999997
774,0.310239,936,8262790,-3562.61,325.94,727.2799999999997
775,0.310642,937,8263193,-1936.61,-268.06,604.2799999999997
776,0.311051,938,8263602,-1936.61,-268.06,604.2799999999997
777,0.311463,939,8264014,1548.39,-536.06,-551.7200000000003
778,0.311850,940,8264401,1548.39,-536.06,-551.7200000000003
779,0.312240,941,8264791,1548.39,-536.06,-551.7200000000003
780,0.312643,942,8265194,2531.39,-157.06,-1615.7200000000003
781,0.313038,943,8265589,2531.39,-157.06,-1615.7200000000003
782,0.313452,944,8266003,1012.39,-308.06,-1324.7200000000003
783,0.313846,945,8266397,1012.39,-308.06,-1324.7200000000003
784,0.314241,946,8266792,1012.39,-308.06,-1324.7200000000003
785,0.314640,947,8267191,-3171.61,-474.06,-1722.7200000000003
786,0.315056,948,8267607,-3171.61,-474.06,-1722.7200000000003
787,0.315469,949,8268020,-6039.61,-67.06,-1635.7200000000003
788,0.315879,950,8268430,-6039.61,-67.06,-1635.7200000000003
789,0.316282,951,8268833,-3069.61,-486.06,477.27999999999975
790,0.316687,952,8269238,-3069.61,-486.06,477.27999999999975
791,0.317096,953,8269647,-3069.61,-486.06,477.27999999999975
792,0.317506,954,8270057,256.39,-632.06,2093.2799999999997
793,0.317911,955,8270462,256.39,-632.06,2093.2799999999997
794,0.318301,956,8270852,-78.61,92.94,2651.2799999999997
795,0.318709,957,8271260,-78.61,92.94,2651.2799999999997
796,0.319110,958,8271661,-78.61,92.94,2651.2799999999997
797,0.319512,959,8272063,2681.39,618.94,2387.2799999999997
798,0.319900,960,8272451,2681.39,618.94,2387.2799999999997
799,0.320290,961,8272841,4045.39,1141.94,980.2799999999997
800,0.320677,962,8273228,4045.39,1141.94,980.2799999999997
801,0.321071,963,8273622,4045.39,1141.94,980.2799999999997
802,0.321477,964,8274028,4324.39,953.94,852.2799999999997
803,0.321864,965,8274415,4324.39,953.94,852.2799999999997
804,0.322252,966,8274803,6949.39,213.94,1892.2799999999997
805,0.322644,967,8275195,6949.39,213.94,1892.2799999999997
806,0.323044,968,8275595,6949.39,213.94,1892.2799999999997
807,0.323443,969,8275994,6656.39,-98.06,638.2799999999997
808,0.323845,970,8276396,6656.39,-98.06,638.2799999999997
809,0.324232,971,8276783,6656.39,-98.06,638.2799999999997
810,0.324631,972,8277182,2483.39,-195.06,-1537.7200000000003
811,0.325040,973,8277591,2483.39,-195.06,-1537.7200000000003
812,0.325439,974,8277990,-2111.61,-262.06,-1841.7200000000003
813,0.325856,975,8278407,-2111.61,-262.06,-1841.7200000000003
814,0.326251,976,8278802,-2249.61,-406.06,-1698.7200000000003
815,0.326665,977,8279216,-2249.61,-406.06,-1698.7200000000003
816,0.327068,978,8279619,-2249.61,-406.06,-1698.7200000000003
817,0.327481,979,8280032,-1402.61,-558.06,-2454.7200000000003
818,0.327894,980,8280445,-1402.61,-558.06,-2454.7200000000003
819,0.328292,981,8280843,-763.61,-734.06,-2118.7200000000003
820,0.328696,982,8281247,-763.61,-734.06,-2118.7200000000003
821,0.329106,983,8281657,-763.61,-734.06,-2118.7200000000003
822,0.329516,984,8282067,1767.39,-569.06,-854.7200000000003
823,0.329912,985,8282463,1767.39,-569.06,-854.7200000000003
824,0.330296,986,8282847,2303.39,-239.06,83.27999999999975
825,0.330698,987,8283249,2303.39,-239.06,83.27999999999975
826,0.331094,988,8283645,2303.39,-239.06,83.27999999999975
827,0.331506,989,8284057,-546.61,129.94,1383.2799999999997
828,0.331910,990,8284461,-546.61,129.94,1383.2799999999997
829,0.332300,991,8284851,-1492.61,595.94,2301.2799999999997
830,0.332709,992,8285260,-1492.61,595.94,2301.2799999999997
831,0.333110,993,8285661,-1492.61,595.94,2301.2799999999997
832,0.333513,994,8286064,-1104.61,1150.94,2027.2799999999997
833,0.333908,995,8286459,-1104.61,1150.94,2027.2799999999997
834,0.334305,996,8286856,-813.61,904.94,2944.2799999999997
835,0.334708,997,8287259,-813.61,904.94,2944.2799999999997
836,0.335102,998,8287653,-813.61,904.94,2944.2799999999997
837,0.335504,999,8288055,914.39,555.94,3986.2799999999997
838,0.335899,1000,8288450,914.39,555.94,3986.2799999999997
839,0.336288,1001,8288839,-1732.61,628.94,2435.2799999999997
840,0.336692,1002,8289243,-1732.61,628.94,2435.2799999999997
841,0.337086,1003,8289637,-1732.61,628.94,2435.2799999999997
842,0.337490,1004,8290041,-7289.61,-13.059999999999999,1073.2799999999997
843,0.337910,1005,8290461,-7289.61,-13.059999999999999,1073.2799999999997
844,0.338308,1006,8290859,-9429.61,-448.06,15.279999999999745
845,0.338727,1007,8291278,-9429.61,-448.06,15.279999999999745
846,0.339136,1008,8291687,-9429.61,-448.06,15.279999999999745
847,0.339547,1009,8292098,-8934.61,329.94,-2231.7200000000003
848,0.339950,1010,8292501,-8934.61,329.94,-2231.7200000000003
849,0.340345,1011,8292896,-1501.61,119.94,-2144.7200000000003
850,0.340749,1012,8293300,-1501.61,119.94,-2144.7200000000003
851,0.341151,1013,8293702,-1501.61,119.94,-2144.7200000000003
852,0.341555,1014,8294106,7804.39,-719.06,-1334.7200000000003
853,0.341959,1015,8294510,7804.39,-719.06,-1334.7200000000003
854,0.342355,1016,8294906,11045.39,-112.06,-924.7200000000003
855,0.342758,1017,8295309,11045.39,-112.06,-924.7200000000003
856,0.343167,1018,8295718,11045.39,-112.06,-924.7200000000003
857,0.343564,1019,8296115,7423.39,200.94,418.27999999999975
858,0.343954,1020,8296505,7423.39,200.94,418.27999999999975
859,0.344349,1021,8296900,1214.39,-66.06,756.2799999999997
860,0.344753,1022,8297304,1214.39,-66.06,756.2799999999997
861,0.345147,1023,8297698,1214.39,-66.06,756.2799999999997
862,0.345531,1024,8298082,-3300.61,635.94,291.27999999999975
863,0.345934,1025,8298485,-3300.61,635.94,291.27999999999975
864,0.346332,1026,8298883,-3844.61,234.94,444.27999999999975
865,0.346745,1027,8299296,-3844.61,234.94,444.27999999999975
866,0.347147,1028,8299698,-3844.61,234.94,444.27999999999975
867,0.347541,1029,8300092,-107.61,-757.06,93.27999999999975
868,0.347957,1030,8300508,-107.61,-757.06,93.27999999999975
869,0.348370,1031,8300921,3058.39,-268.06,-1499.7200000000003
870,0.348764,1032,8301315,3058.39,-268.06,-1499.7200000000003
871,0.349165,1033,8301716,3058.39,-268.06,-1499.7200000000003
872,0.349570,1034,8302121,1751.39,-34.06,-1796.7200000000003
873,0.349972,1035,8302523,1751.39,-34.06,-1796.7200000000003
874,0.350378,1036,8302929,-1915.61,-532.06,-1407.7200000000003
875,0.350788,1037,8303339,-1915.61,-532.06,-1407.7200000000003
876,0.351199,1038,8303750,-1915.61,-532.06,-1407.7200000000003
877,0.351595,1039,8304146,-4274.61,-338.06,-1896.7200000000003
878,0.352012,1040,8304563,-4274.61,-338.06,-1896.7200000000003
879,0.352426,1041,8304977,-4117.61,-281.06,-445.72000000000025
880,0.352836,1042,8305387,-4117.61,-281.06,-445.72000000000025
881,0.353230,1043,8305781,-4117.61,-281.06,-445.72000000000025
882,0.353643,1044,8306194,-2892.61,-584.06,2198.2799999999997
883,0.354053,1045,8306604,-2892.61,-584.06,2198.2799999999997
884,0.354465,1046,8307016,-873.61,-185.06,2697.2799999999997
885,0.354876,1047,8307427,-873.61,-185.06,2697.2799999999997
886,0.355281,1048,8307832,1231.39,566.94,2137.2799999999997
887,0.355668,1049,8308219,1231.39,566.94,2137.2799999999997
888,0.356063,1050,8308614,1231.39,566.94,2137.2799999999997
889,0.356459,1051,8309010,2125.39,1169.94,1600.2799999999997
890,0.356854,1052,8309405,2125.39,1169.94,1600.2799999999997
891,0.357240,1053,8309791,2125.39,1169.94,1600.2799999999997
892,0.357622,1054,8310173,6195.39,797.94,1381.2799999999997
893,0.358019,1055,8310570,6195.39,797.94,1381.2799999999997
894,0.358418,1056,8310969,10018.39,375.94,1437.2799999999997
895,0.358813,1057,8311364,10018.39,375.94,1437.2799999999997
896,0.359208,1058,8311759,10018.39,375.94,1437.2799999999997
897,0.359590,1059,8312141,7077.39,300.94,827.2799999999997
898,0.359985,1060,8312536,7077.39,300.94,827.2799999999997
899,0.360384,1061,8312935,2356.39,65.94,-517.7200000000003
900,0.360778,1062,8313329,2356.39,65.94,-517.7200000000003
901,0.361171,1063,8313722,2356.39,65.94,-517.7200000000003
902,0.361562,1064,8314113,-832.61,-339.06,-1602.7200000000003
903,0.361971,1065,8314522,-832.61,-339.06,-1602.7200000000003
904,0.362385,1066,8314936,-2773.61,-377.06,-1994.7200000000003
905,0.362795,1067,8315346,-2773.61,-377.06,-1994.7200000000003
906,0.363205,1068,8315756,-2773.61,-377.06,-1994.7200000000003
907,0.363609,1069,8316160,-2042.61,-301.06,-2198.7200000000003
908,0.364018,1070,8316569,-2042.61,-301.06,-2198.7200000000003
909,0.364434,1071,8316985,-409.61,-852.06,-2348.7200000000003
910,0.364845,1072,8317396,-409.61,-852.06,-2348.7200000000003
911,0.365238,1073,8317789,-409.61,-852.06,-2348.7200000000003
912,0.365645,1074,8318196,1844.39,-918.06,-1723.7200000000003
913,0.366044,1075,8318595,1844.39,-918.06,-1723.7200000000003
914,0.366438,1076,8318989,1251.39,-126.06,-601.7200000000003
915,0.366840,1077,8319391,1251.39,-126.06,-601.7200000000003
916,0.367234,1078,8319785,1251.39,-126.06,-601.7200000000003
917,0.367640,1079,8320191,-259.61,-49.06,729.2799999999997
918,0.368049,1080,8320600,-259.61,-49.06,729.2799999999997
919,0.368462,1081,8321013,-512.61,94.94,1842.2799999999997
920,0.368865,1082,8321416,-512.61,94.94,1842.2799999999997
921,0.369253,1083,8321804,-1543.61,871.94,2429.2799999999997
922,0.369663,1084,8322214,-1543.61,871.94,2429.2799999999997
923,0.370066,1085,8322617,-1543.61,871.94,2429.2799999999997
924,0.370470,1086,8323021,-1308.61,1223.94,3069.2799999999997
925,0.370874,1087,8323425,-1308.61,1223.94,3069.2799999999997
926,0.371261,1088,8323812,-730.61,962.94,3639.2799999999997
927,0.371667,1089,8324218,-730.61,962.94,3639.2799999999997
928,0.372070,1090,8324621,-730.61,962.94,3639.2799999999997
929,0.372478,1091,8325029,138.39,609.94,3201.2799999999997
930,0.372864,1092,8325415,138.39,609.94,3201.2799999999997
931,0.373247,1093,8325798,-2679.61,181.94,2044.2799999999997
932,0.373654,1094,8326205,-2679.61,181.94,2044.2799999999997
933,0.374048,1095,8326599,-2679.61,181.94,2044.2799999999997
934,0.374461,1096,8327012,-9282.61,-137.06,891.2799999999997
935,0.374871,1097,8327422,-9282.61,-137.06,891.2799999999997
936,0.375266,1098,8327817,-11816.61,172.94,-1446.7200000000003
937,0.375677,1099,8328228,-11816.61,172.94,-1446.7200000000003
938,0.376080,1100,8328631,-11816.61,172.94,-1446.7200000000003
939,0.376480,1101,8329031,-3907.61,-75.06,-2505.7200000000003
940,0.376892,1102,8329443,-3907.61,-75.06,-2505.7200000000003
941,0.377292,1103,8329843,5346.39,-453.06,-1625.7200000000003
942,0.377687,1104,8330238,5346.39,-453.06,-1625.7200000000003
943,0.378096,1105,8330647,5346.39,-453.06,-1625.7200000000003
944,0.378494,1106,8331045,9610.39,-78.06,-1566.7200000000003
945,0.378904,1107,8331455,9610.39,-78.06,-1566.7200000000003
946,0.379294,1108,8331845,9962.39,-173.06,-352.72000000000025
947,0.379697,1109,8332248,9962.39,-173.06,-352.72000000000025
948,0.380092,1110,8332643,9962.39,-173.06,-352.72000000000025
949,0.380501,1111,8333052,3238.39,32.94,332.27999999999975
950,0.380888,1112,8333439,3238.39,32.94,332.27999999999975
951,0.381269,1113,8333820,-2609.61,640.94,286.27999999999975
952,0.381675,1114,8334226,-2609.61,640.94,286.27999999999975
953,0.382069,1115,8334620,-2609.61,640.94,286.27999999999975
954,0.382477,1116,8335028,-4232.61,128.94,747.2799999999997
955,0.382886,1117,8335437,-4232.61,128.94,747.2799999999997
956,0.383267,1118,8335818,-1658.61,-351.06,168.27999999999975
957,0.383681,1119,8336232,-1658.61,-351.06,168.27999999999975
958,0.384091,1120,8336642,-1658.61,-351.06,168.27999999999975
959,0.384503,1121,8337054,1973.39,-285.06,-812.7200000000003
960,0.384900,1122,8337451,1973.39,-285.06,-812.7200000000003
961,0.385297,1123,8337848,2608.39,-265.06,-1430.7200000000003
962,0.385694,1124,8338245,2608.39,-265.06,-1430.7200000000003
963,0.386103,1125,8338654,2608.39,-265.06,-1430.7200000000003
964,0.386498,1126,8339049,1059.39,-368.06,-1311.7200000000003
965,0.386903,1127,8339454,1059.39,-368.06,-1311.7200000000003
966,0.387292,1128,8339843,-3234.61,-373.06,-1756.7200000000003
967,0.387702,1129,8340253,-3234.61,-373.06,-1756.7200000000003
968,0.388113,1130,8340664,-3234.61,-373.06,-1756.7200000000003
969,0.388522,1131,8341073,-5656.61,-131.06,-1173.7200000000003
970,0.388934,1132,8341485,-5656.61,-131.06,-1173.7200000000003
971,0.389338,1133,8341889,-2928.61,-430.06,975.2799999999997
972,0.389756,1134,8342307,-2928.61,-430.06,975.2799999999997
973,0.390165,1135,8342716,-2928.61,-430.06,975.2799999999997
974,0.390570,1136,8343121,295.39,-539.06,2273.2799999999997
975,0.390972,1137,8343523,295.39,-539.06,2273.2799999999997
976,0.391379,1138,8343930,-64.61,126.94,2760.2799999999997
977,0.391773,1139,8344324,-64.61,126.94,2760.2799999999997
978,0.392175,1140,8344726,-64.61,126.94,2760.2799999999997
979,0.392571,1141,8345122,1688.39,745.94,2149.2799999999997
980,0.392954,1142,8345505,1688.39,745.94,2149.2799999999997
981,0.393350,1143,8345901,4314.39,1218.94,771.2799999999997
982,0.393747,1144,8346298,4314.39,1218.94,771.2799999999997
983,0.394141,1145,8346692,4314.39,1218.94,771.2799999999997
984,0.394536,1146,8347087,5931.39,687.94,1067.2799999999997
985,0.394932,1147,8347483,5931.39,687.94,1067.2799999999997
986,0.395301,1148,8347852,6702.39,126.94,1645.2799999999997
987,0.395693,1149,8348244,6702.39,126.94,1645.2799999999997
988,0.396087,1150,8348638,6702.39,126.94,1645.2799999999997
989,0.396484,1151,8349035,5616.39,-95.06,167.27999999999975
990,0.396892,1152,8349443,5616.39,-95.06,167.27999999999975
991,0.397283,1153,8349834,1953.39,-345.06,-1600.7200000000003
992,0.397671,1154,8350222,1953.39,-345.06,-1600.7200000000003
993,0.398081,1155,8350632,1953.39,-345.06,-1600.7200000000003
994,0.398480,1156,8351031,-2136.61,-201.06,-1886.7200000000003
995,0.398899,1157,8351450,-2136.61,-201.06,-1886.7200000000003
996,0.399297,1158,8351848,-2173.61,-310.06,-1849.7200000000003
997,0.399708,1159,8352259,-2173.61,-310.06,-1849.7200000000003
998,0.400118,1160,8352669,-2173.61,-310.06,-1849.7200000000003
999,0.400528,1161,8353079,-829.61,-768.06,-2205.7200000000003
1000,0.400941,1162,8353492,-829.61,-768.06,-2205.7200000000003
1001,0.401345,1163,8353896,-194.61,-691.06,-1847.7200000000003
1002,0.401764,1164,8354315,-194.61,-691.06,-1847.7200000000003
1003,0.402166,1165,8354717,-194.61,-691.06,-1847.7200000000003
1004,0.402577,1166,8355128,1171.39,-399.06,-928.7200000000003
1005,0.402984,1167,8355535,1171.39,-399.06,-928.7200000000003
1006,0.403391,1168,8355942,1410.39,-118.06,173.27999999999975
1007,0.403786,1169,8356337,1410.39,-118.06,173.27999999999975
1008,0.404188,1170,8356739,1410.39,-118.06,173.27999999999975
1009,0.404591,1171,8357142,-628.61,76.94,1695.2799999999997
1010,0.404993,1172,8357544,-628.61,76.94,1695.2799999999997
1011,0.405394,1173,8357945,-793.61,729.94,2322.2799999999997
1012,0.405796,1174,8358347,-793.61,729.94,2322.2799999999997
1013,0.406198,1175,8358749,-793.61,729.94,2322.2799999999997
1014,0.406594,1176,8359145,-1026.61,1173.94,2205.2799999999997
1015,0.406990,1177,8359541,-1026.61,1173.94,2205.2799999999997
1016,0.407405,1178,8359956,-228.61,709.94,3253.2799999999997
1017,0.407807,1179,8360358,-228.61,709.94,3253.2799999999997
1018,0.408194,1180,8360745,-228.61,709.94,3253.2799999999997
1019,0.408584,1181,8361135,1639.39,647.94,3694.2799999999997
1020,0.408974,1182,8361525,1639.39,647.94,3694.2799999999997
1021,0.409369,1183,8361920,-3247.61,728.94,2108.2799999999997
1022,0.409777,1184,8362328,-3247.61,728.94,2108.2799999999997
1023,0.410180,1185,8362731,-3247.61,728.94,2108.2799999999997
1024,0.410575,1186,8363126,-8586.61,-218.06,940.2799999999997
1025,0.410984,1187,8363535,-8586.61,-218.06,940.2799999999997
1026,0.411400,1188,8363951,-8729.61,-331.06,-419.72000000000025
1027,0.411809,1189,8364360,-8729.61,-331.06,-419.72000000000025
1028,0.412213,1190,8364764,-8729.61,-331.06,-419.72000000000025
1029,0.412617,1191,8365168,-8055.61,478.94,-2181.7200000000003
1030,0.413013,1192,8365564,-8055.61,478.94,-2181.7200000000003
1031,0.413419,1193,8365970,-1338.61,-131.06,-1896.7200000000003
1032,0.413828,1194,8366379,-1338.61,-131.06,-1896.7200000000003
1033,0.414232,1195,8366783,-1338.61,-131.06,-1896.7200000000003
1034,0.414644,1196,8367195,8776.39,-743.06,-1293.7200000000003
1035,0.415047,1197,8367598,8776.39,-743.06,-1293.7200000000003
1036,0.415452,1198,8368003,11083.39,-85.06,-805.7200000000003
1037,0.415849,1199,8368400,11083.39,-85.06,-805.7200000000003
1038,0.416238,1200,8368789,6407.39,230.94,541.2799999999997
1039,0.416638,1201,8369189,6407.39,230.94,541.2799999999997
1040,0.417033,1202,8369584,6407.39,230.94,541.2799999999997
1041,0.417432,1203,8369983,70.39,121.94,522.2799999999997
1042,0.417834,1204,8370385,70.39,121.94,522.2799999999997
1043,0.418228,1205,8370779,70.39,121.94,522.2799999999997
1044,0.418624,1206,8371175,-3061.61,689.94,300.27999999999975
1045,0.419020,1207,8371571,-3061.61,689.94,300.27999999999975
1046,0.419434,1208,8371985,-3168.61,85.94,596.2799999999997
1047,0.419829,1209,8372380,-3168.61,85.94,596.2799999999997
1048,0.420223,1210,8372774,-3168.61,85.94,596.2799999999997
1049,0.420619,1211,8373170,17.39,-769.06,-8.720000000000255
1050,0.421028,1212,8373579,17.39,-769.06,-8.720000000000255
1051,0.421443,1213,8373994,3419.39,-356.06,-1305.7200000000003
1052,0.421839,1214,8374390,3419.39,-356.06,-1305.7200000000003
1053,0.422233,1215,8374784,3419.39,-356.06,-1305.7200000000003
1054,0.422632,1216,8375183,1886.39,-230.06,-1631.7200000000003
1055,0.423033,1217,8375584,1886.39,-230.06,-1631.7200000000003
1056,0.423432,1218,8375983,-2382.61,-421.06,-1359.7200000000003
1057,0.423839,1219,8376390,-2382.61,-421.06,-1359.7200000000003
1058,0.424240,1220,8376791,-5535.61,-180.06,-1819.7200000000003
1059,0.424654,1221,8377205,-5535.61,-180.06,-1819.7200000000003
1060,0.425063,1222,8377614,-5535.61,-180.06,-1819.7200000000003
1061,0.425476,1223,8378027,-4230.61,-280.06,-486.72000000000025
1062,0.425894,1224,8378445,-4230.61,-280.06,-486.72000000000025
1063,0.426293,1225,8378844,-1621.61,-521.06,1806.2799999999997
1064,0.426703,1226,8379254,-1621.61,-521.06,1806.2799999999997
1065,0.427113,1227,8379664,-1621.61,-521.06,1806.2799999999997
1066,0.427524,1228,8380075,688.39,-270.06,2792.2799999999997
1067,0.427919,1229,8380470,688.39,-270.06,2792.2799999999997
1068,0.428314,1230,8380865,2740.39,501.94,2392.2799999999997
1069,0.428708,1231,8381259,2740.39,501.94,2392.2799999999997
1070,0.429103,1232,8381654,2740.39,501.94,2392.2799999999997
1071,0.429492,1233,8382043,2691.39,1068.94,1235.2799999999997
1072,0.429876,1234,8382427,2691.39,1068.94,1235.2799999999997
1073,0.430256,1235,8382807,3958.39,926.94,1008.2799999999997
1074,0.430648,1236,8383199,3958.39,926.94,1008.2799999999997
1075,0.431041,1237,8383592,3958.39,926.94,1008.2799999999997
1076,0.431447,1238,8383998,7522.39,408.94,1714.2799999999997
1077,0.431833,1239,8384384,7522.39,408.94,1714.2799999999997
1078,0.432227,1240,8384778,7522.39,408.94,1714.2799999999997
1079,0.432609,1241,8385160,7027.39,67.94,1085.2799999999997
1080,0.433003,1242,8385554,7027.39,67.94,1085.2799999999997
1081,0.433401,1243,8385952,3075.39,-31.06,-860.7200000000003
1082,0.433810,1244,8386361,3075.39,-31.06,-860.7200000000003
1083,0.434204,1245,8386755,3075.39,-31.06,-860.7200000000003
1084,0.434601,1246,8387152,-668.61,-249.06,-1897.7200000000003
1085,0.435010,1247,8387561,-668.61,-249.06,-1897.7200000000003
1086,0.435423,1248,8387974,-2554.61,-419.06,-1758.7200000000003
1087,0.435827,1249,8388378,-2554.61,-419.06,-1758.7200000000003
1088,0.436224,1250,8388775,-2554.61,-419.06,-1758.7200000000003
1089,0.436629,1251,8389180,-2474.61,-385.06,-2238.7200000000003
1090,0.437039,1252,8389590,-2474.61,-385.06,-2238.7200000000003
1091,0.437453,1253,8390004,-818.61,-666.06,-2547.7200000000003
1092,0.437865,1254,8390416,-818.61,-666.06,-2547.7200000000003
1093,0.438261,1255,8390812,2769.39,-879.06,-1228.7200000000003
1094,0.438668,1256,8391219,2769.39,-879.06,-1228.7200000000003
1095,0.439063,1257,8391614,2769.39,-879.06,-1228.7200000000003
1096,0.439462,1258,8392013,2261.39,-147.06,-64.72000000000025
1097,0.439871,1259,8392422,2261.39,-147.06,-64.72000000000025
1098,0.440258,1260,8392809,-725.61,73.94,854.2799999999997
1099,0.440664,1261,8393215,-725.61,73.94,854.2799999999997
1100,0.441065,1262,8393616,-725.61,73.94,854.2799999999997
1101,0.441469,1263,8394020,-1431.61,224.94,2064.2799999999997
1102,0.441865,1264,8394416,-1431.61,224.94,2064.2799999999997
1103,0.442261,1265,8394812,-1624.61,944.94,2468.2799999999997
1104,0.442660,1266,8395211,-1624.61,944.94,2468.2799999999997
1105,0.443069,1267,8395620,-1624.61,944.94,2468.2799999999997
1106,0.443477,1268,8396028,-997.61,1180.94,2605.2799999999997
1107,0.443880,1269,8396431,-997.61,1180.94,2605.2799999999997
1108,0.444266,1270,8396817,-269.61,614.94,3520.2799999999997
1109,0.444677,1271,8397228,-269.61,614.94,3520.2799999999997
1110,0.445073,1272,8397624,-269.61,614.94,3520.2799999999997
1111,0.445463,1273,8398014,543.39,421.94,3137.2799999999997
1112,0.445857,1274,8398408,543.39,421.94,3137.2799999999997
1113,0.446243,1275,8398794,-3068.61,123.94,1552.2799999999997
1114,0.446649,1276,8399200,-3068.61,123.94,1552.2799999999997
1115,0.447043,1277,8399594,-3068.61,123.94,1552.2799999999997
1116,0.447446,1278,8399997,-10330.61,-101.06,377.27999999999975
1117,0.447856,1279,8400407,-10330.61,-101.06,377.27999999999975
1118,0.448257,1280,8400808,-11917.61,269.94,-1743.7200000000003
1119,0.448664,1281,8401215,-11917.61,269.94,-1743.7200000000003
1120,0.449067,1282,8401618,-11917.61,269.94,-1743.7200000000003
1121,0.449472,1283,8402023,-2851.61,-127.06,-2302.7200000000003
1122,0.449883,1284,8402434,-2851.61,-127.06,-2302.7200000000003
1123,0.450272,1285,8402823,5924.39,-403.06,-1268.7200000000003
1124,0.450672,1286,8403223,5924.39,-403.06,-1268.7200000000003
1125,0.451080,1287,8403631,5924.39,-403.06,-1268.7200000000003
1126,0.451487,1288,8404038,9679.39,-73.06,-1247.7200000000003
1127,0.451892,1289,8404443,9679.39,-73.06,-1247.7200000000003
1128,0.452273,1290,8404824,9449.39,34.94,-267.72000000000025
1129,0.452664,1291,8405215,9449.39,34.94,-267.72000000000025
1130,0.453059,1292,8405610,9449.39,34.94,-267.72000000000025
1131,0.453458,1293,8406009,3171.39,-7.059999999999999,632.2799999999997
1132,0.453853,1294,8406404,3171.39,-7.059999999999999,632.2799999999997
1133,0.454247,1295,8406798,-2398.61,444.94,379.27999999999975
1134,0.454646,1296,8407197,-2398.61,444.94,379.27999999999975
1135,0.455055,1297,8407606,-2398.61,444.94,379.27999999999975
1136,0.455453,1298,8408004,-3718.61,372.94,383.27999999999975
1137,0.455849,1299,8408400,-3718.61,372.94,383.27999999999975
1138,0.456238,1300,8408789,-883.61,-411.06,280.27999999999975
1139,0.456645,1301,8409196,-883.61,-411.06,280.27999999999975
1140,0.457053,1302,8409604,-883.61,-411.06,280.27999999999975
1141,0.457469,1303,8410020,1800.39,-500.06,-813.7200000000003
1142,0.457873,1304,8410424,1800.39,-500.06,-813.7200000000003
1143,0.458260,1305,8410811,1494.39,-114.06,-1761.7200000000003
1144,0.458659,1306,8411210,1494.39,-114.06,-1761.7200000000003
1145,0.459069,1307,8411620,1494.39,-114.06,-1761.7200000000003
1146,0.459474,1308,8412025,-492.61,-360.06,-1411.7200000000003
1147,0.459886,1309,8412437,-492.61,-360.06,-1411.7200000000003
1148,0.460285,1310,8412836,-3926.61,-486.06,-1462.7200000000003
1149,0.460690,1311,8413241,-3926.61,-486.06,-1462.7200000000003
1150,0.461100,1312,8413651,-3926.61,-486.06,-1462.7200000000003
1151,0.461513,1313,8414064,-5024.61,-156.06,-1101.7200000000003
1152,0.461926,1314,8414477,-5024.61,-156.06,-1101.7200000000003
1153,0.462330,1315,8414881,-2066.61,-409.06,1116.2799999999997
1154,0.462739,1316,8415290,-2066.61,-409.06,1116.2799999999997
1155,0.463148,1317,8415699,-2066.61,-409.06,1116.2799999999997
1156,0.463559,1318,8416110,266.39,-484.06,2545.2799999999997
1157,0.463962,1319,8416513,266.39,-484.06,2545.2799999999997
1158,0.464359,1320,8416910,-207.61,331.94,2537.2799999999997
1159,0.464771,1321,8417322,-207.61,331.94,2537.2799999999997
1160,0.465174,1322,8417725,-207.61,331.94,2537.2799999999997
1161,0.465570,1323,8418121,1173.39,923.94,2010.2799999999997
1162,0.465958,1324,8418509,1173.39,923.94,2010.2799999999997
1163,0.466352,1325,8418903,4561.39,1017.94,1077.2799999999997
1164,0.466751,1326,8419302,4561.39,1017.94,1077.2799999999997
1165,0.467140,1327,8419691,4561.39,1017.94,1077.2799999999997
1166,0.467535,1328,8420086,7425.39,607.94,1185.2799999999997
1167,0.467932,1329,8420483,7425.39,607.94,1185.2799999999997
1168,0.468321,1330,8420872,7778.39,223.94,1439.2799999999997
1169,0.468720,1331,8421271,7778.39,223.94,1439.2799999999997
1170,0.469108,1332,8421659,7778.39,223.94,1439.2799999999997
1171,0.469510,1333,8422061,5693.39,-145.06,30.279999999999745
1172,0.469914,1334,8422465,5693.39,-145.06,30.279999999999745
1173,0.470305,1335,8422856,1389.39,-328.06,-1841.7200000000003
1174,0.470718,1336,8423269,1389.39,-328.06,-1841.7200000000003
1175,0.471120,1337,8423671,1389.39,-328.06,-1841.7200000000003
1176,0.471518,1338,8424069,-3004.61,-201.06,-2220.7200000000003
1177,0.471934,1339,8424485,-3004.61,-201.06,-2220.7200000000003
1178,0.472338,1340,8424889,-2716.61,-475.06,-1896.7200000000003
1179,0.472759,1341,8425310,-2716.61,-475.06,-1896.7200000000003
1180,0.473175,1342,8425726,-2716.61,-475.06,-1896.7200000000003
1181,0.473579,1343,8426130,-593.61,-816.06,-2293.7200000000003
1182,0.473991,1344,8426542,-593.61,-816.06,-2293.7200000000003
1183,0.474406,1345,8426957,224.39,-637.06,-2171.7200000000003
1184,0.474808,1346,8427359,224.39,-637.06,-2171.7200000000003
1185,0.475202,1347,8427753,224.39,-637.06,-2171.7200000000003
1186,0.475598,1348,8428149,1650.39,-465.06,-800.7200000000003
1187,0.476003,1349,8428554,1650.39,-465.06,-800.7200000000003
1188,0.476408,1350,8428959,873.39,-172.06,346.27999999999975
1189,0.476810,1351,8429361,873.39,-172.06,346.27999999999975
1190,0.477204,1352,8429755,873.39,-172.06,346.27999999999975
1191,0.477601,1353,8430152,-774.61,213.94,1742.2799999999997
1192,0.478002,1354,8430553,-774.61,213.94,1742.2799999999997
1193,0.478399,1355,8430950,-888.61,672.94,2440.2799999999997
1194,0.478804,1356,8431355,-888.61,672.94,2440.2799999999997
1195,0.479191,1357,8431742,-888.61,672.94,2440.2799999999997
1196,0.479580,1358,8432131,-1775.61,1203.94,2439.2799999999997
1197,0.479984,1359,8432535,-1775.61,1203.94,2439.2799999999997
1198,0.480390,1360,8432941,-547.61,749.94,3766.2799999999997
1199,0.480792,1361,8433343,-547.61,749.94,3766.2799999999997
1200,0.481195,1362,8433746,-547.61,749.94,3766.2799999999997
1201,0.481591,1363,8434142,1722.39,717.94,3699.2799999999997
1202,0.481977,1364,8434528,1722.39,717.94,3699.2799999999997
1203,0.482378,1365,8434929,-3783.61,809.94,1903.2799999999997
1204,0.482787,1366,8435338,-3783.61,809.94,1903.2799999999997
1205,0.483189,1367,8435740,-3783.61,809.94,1903.2799999999997
1206,0.483586,1368,8436137,-8585.61,-500.06,1198.2799999999997
1207,0.483997,1369,8436548,-8585.61,-500.06,1198.2799999999997
1208,0.484405,1370,8436956,-8727.61,-241.06,-513.7200000000003
1209,0.484821,1371,8437372,-8727.61,-241.06,-513.7200000000003
1210,0.485224,1372,8437775,-8727.61,-241.06,-513.7200000000003
1211,0.485627,1373,8438178,-7858.61,586.94,-2594.7200000000003
1212,0.486023,1374,8438574,-7858.61,586.94,-2594.7200000000003
1213,0.486437,1375,8438988,15.39,-461.06,-1868.7200000000003
1214,0.486846,1376,8439397,15.39,-461.06,-1868.7200000000003
1215,0.487242,1377,8439793,9106.39,-503.06,-1560.7200000000003
1216,0.487641,1378,8440192,9106.39,-503.06,-1560.7200000000003
1217,0.488050,1379,8440601,9106.39,-503.06,-1560.7200000000003
1218,0.488457,1380,8441008,11789.39,-82.06,-956.7200000000003
1219,0.488859,1381,8441410,11789.39,-82.06,-956.7200000000003
1220,0.489248,1382,8441799,6233.39,116.94,399.27999999999975
1221,0.489640,1383,8442191,6233.39,116.94,399.27999999999975
1222,0.490034,1384,8442585,6233.39,116.94,399.27999999999975
1223,0.490440,1385,8442991,-547.61,272.94,386.27999999999975
1224,0.490842,1386,8443393,-547.61,272.94,386.27999999999975
1225,0.491229,1387,8443780,-547.61,272.94,386.27999999999975
1226,0.491635,1388,8444186,-3391.61,488.94,460.27999999999975
1227,0.492037,1389,8444588,-3391.61,488.94,460.27999999999975
1228,0.492444,1390,8444995,-2952.61,-140.06,477.27999999999975
1229,0.492855,1391,8445406,-2952.61,-140.06,477.27999999999975
1230,0.493250,1392,8445801,42.39,-640.06,-465.72000000000025
1231,0.493664,1393,8446215,42.39,-640.06,-465.72000000000025
1232,0.494073,1394,8446624,42.39,-640.06,-465.72000000000025
1233,0.494488,1395,8447039,2869.39,-178.06,-1305.7200000000003
1234,0.494884,1396,8447435,2869.39,-178.06,-1305.7200000000003
1235,0.495272,1397,8447823,1488.39,-355.06,-1381.7200000000003
1236,0.495679,1398,8448230,1488.39,-355.06,-1381.7200000000003
1237,0.496080,1399,8448631,1488.39,-355.06,-1381.7200000000003
1238,0.496488,1400,8449039,-2805.61,-290.06,-1682.7200000000003
1239,0.496900,1401,8449451,-2805.61,-290.06,-1682.7200000000003
1240,0.497297,1402,8449848,-4968.61,-107.06,-1607.7200000000003
1241,0.497709,1403,8450260,-4968.61,-107.06,-1607.7200000000003
1242,0.498119,1404,8450670,-4968.61,-107.06,-1607.7200000000003
1243,0.498529,1405,8451080,-3693.61,-435.06,274.27999999999975
1244,0.498942,1406,8451493,-3693.61,-435.06,274.27999999999975
1245,0.499345,1407,8451896,-1160.61,-595.06,2144.2799999999997
1246,0.499764,1408,8452315,-1160.61,-595.06,2144.2799999999997
1247,0.500173,1409,8452724,-1160.61,-595.06,2144.2799999999997
1248,0.500577,1410,8453128,-252.61,-137.06,2818.2799999999997
1249,0.500987,1411,8453538,-252.61,-137.06,2818.2799999999997
1250,0.501401,1412,8453952,1283.39,648.94,2439.2799999999997
1251,0.501789,1413,8454340,1283.39,648.94,2439.2799999999997
1252,0.502184,1414,8454735,1283.39,648.94,2439.2799999999997
1253,0.502573,1415,8455124,2703.39,1208.94,990.2799999999997
1254,0.502971,1416,8455522,2703.39,1208.94,990.2799999999997
1255,0.503351,1417,8455902,4944.39,861.94,932.2799999999997
1256,0.503745,1418,8456296,4944.39,861.94,932.2799999999997
1257,0.504139,1419,8456690,4944.39,861.94,932.2799999999997
1258,0.504533,1420,8457084,8674.39,232.94,1761.2799999999997
1259,0.504928,1421,8457479,8674.39,232.94,1761.2799999999997
1260,0.505316,1422,8457867,7662.39,-16.06,694.2799999999997
1261,0.505721,1423,8458272,7662.39,-16.06,694.2799999999997
1262,0.506122,1424,8458673,7662.39,-16.06,694.2799999999997
1263,0.506524,1425,8459075,2733.39,-69.06,-1201.7200000000003
1264,0.506934,1426,8459485,2733.39,-69.06,-1201.7200000000003
1265,0.507322,1427,8459873,-1579.61,-275.06,-1936.7200000000003
1266,0.507742,1428,8460293,-1579.61,-275.06,-1936.7200000000003
1267,0.508152,1429,8460703,-1579.61,-275.06,-1936.7200000000003
1268,0.508561,1430,8461112,-2557.61,-414.06,-2021.7200000000003
1269,0.508972,1431,8461523,-2557.61,-414.06,-2021.7200000000003
1270,0.509386,1432,8461937,-1855.61,-465.06,-2443.7200000000003
1271,0.509797,1433,8462348,-1855.61,-465.06,-2443.7200000000003
1272,0.510208,1434,8462759,-1855.61,-465.06,-2443.7200000000003
1273,0.510612,1435,8463163,-543.61,-758.06,-2229.7200000000003
1274,0.511023,1436,8463574,-543.61,-758.06,-2229.7200000000003
1275,0.511437,1437,8463988,2347.39,-813.06,-1094.7200000000003
1276,0.511825,1438,8464376,2347.39,-813.06,-1094.7200000000003
1277,0.512209,1439,8464760,2347.39,-813.06,-1094.7200000000003
1278,0.512605,1440,8465156,1247.39,-71.06,-393.72000000000025
1279,0.513007,1441,8465558,1247.39,-71.06,-393.72000000000025
1280,0.513412,1442,8465963,-911.61,24.94,1090.2799999999997
1281,0.513807,1443,8466358,-911.61,24.94,1090.2799999999997
1282,0.514210,1444,8466761,-911.61,24.94,1090.2799999999997
1283,0.514598,1445,8467149,-959.61,155.94,2394.2799999999997
1284,0.515000,1446,8467551,-959.61,155.94,2394.2799999999997
1285,0.515413,1447,8467964,-1460.61,1153.94,2232.2799999999997
1286,0.515815,1448,8468366,-1460.61,1153.94,2232.2799999999997
1287,0.516210,1449,8468761,-1460.61,1153.94,2232.2799999999997
1288,0.516599,1450,8469150,-919.61,1134.94,2882.2799999999997
1289,0.517009,1451,8469560,-919.61,1134.94,2882.2799999999997
1290,0.517413,1452,8469964,-120.61,579.94,3900.2799999999997
1291,0.517816,1453,8470367,-120.61,579.94,3900.2799999999997
1292,0.518203,1454,8470754,-120.61,579.94,3900.2799999999997
1293,0.518593,1455,8471144,63.39,742.94,2961.2799999999997
1294,0.519002,1456,8471553,63.39,742.94,2961.2799999999997
1295,0.519409,1457,8471960,-3253.61,97.94,1740.2799999999997
1296,0.519811,1458,8472362,-3253.61,97.94,1740.2799999999997
1297,0.520206,1459,8472757,-3253.61,97.94,1740.2799999999997
1298,0.520603,1460,8473154,-9995.61,-232.06,426.27999999999975
1299,0.521012,1461,8473563,-9995.61,-232.06,426.27999999999975
1300,0.521426,1462,8473977,-12047.61,375.94,-1963.7200000000003
1301,0.521834,1463,8474385,-12047.61,375.94,-1963.7200000000003
1302,0.522222,1464,8474773,-12047.61,375.94,-1963.7200000000003
1303,0.522618,1465,8475169,-2629.61,-273.06,-2191.7200000000003
1304,0.523028,1466,8475579,-2629.61,-273.06,-2191.7200000000003
1305,0.523443,1467,8475994,5878.39,-442.06,-1752.7200000000003
1306,0.523845,1468,8476396,5878.39,-442.06,-1752.7200000000003
1307,0.524232,1469,8476783,9848.39,-30.06,-1641.7200000000003
1308,0.524630,1470,8477181,9848.39,-30.06,-1641.7200000000003
1309,0.525027,1471,8477578,9848.39,-30.06,-1641.7200000000003
1310,0.525440,1472,8477991,9553.39,-111.06,-118.72000000000025
1311,0.525842,1473,8478393,9553.39,-111.06,-118.72000000000025
1312,0.526230,1474,8478781,2782.39,-19.06,453.27999999999975
1313,0.526628,1475,8479179,2782.39,-19.06,453.27999999999975
1314,0.527029,1476,8479580,2782.39,-19.06,453.27999999999975
1315,0.527444,1477,8479995,-2528.61,475.94,196.27999999999975
1316,0.527838,1478,8480389,-2528.61,475.94,196.27999999999975
1317,0.528232,1479,8480783,-4074.61,336.94,694.2799999999997
1318,0.528630,1480,8481181,-4074.61,336.94,694.2799999999997
1319,0.529033,1481,8481584,-4074.61,336.94,694.2799999999997
1320,0.529440,1482,8481991,-1169.61,-384.06,279.27999999999975
1321,0.529838,1483,8482389,-1169.61,-384.06,279.27999999999975
1322,0.530242,1484,8482793,2552.39,-285.06,-1002.7200000000003
1323,0.530647,1485,8483198,2552.39,-285.06,-1002.7200000000003
1324,0.531049,1486,8483600,2552.39,-285.06,-1002.7200000000003
1325,0.531455,1487,8484006,2492.39,-198.06,-1283.7200000000003
1326,0.531858,1488,8484409,2492.39,-198.06,-1283.7200000000003
1327,0.532246,1489,8484797,-246.61,-440.06,-1063.7200000000003
1328,0.532659,1490,8485210,-246.61,-440.06,-1063.7200000000003
1329,0.533069,1491,8485620,-246.61,-440.06,-1063.7200000000003
1330,0.533484,1492,8486035,-4332.61,-274.06,-1673.7200000000003
1331,0.533887,1493,8486438,-4332.61,-274.06,-1673.7200000000003
1332,0.534287,1494,8486838,-5404.61,-59.06,-1243.7200000000003
1333,0.534696,1495,8487247,-5404.61,-59.06,-1243.7200000000003
1334,0.535107,1496,8487658,-5404.61,-59.06,-1243.7200000000003
1335,0.535515,1497,8488066,-2620.61,-409.06,1355.2799999999997
1336,0.535925,1498,8488476,-2620.61,-409.06,1355.2799999999997
1337,0.536321,1499,8488872,268.39,-602.06,2801.2799999999997
1338,0.536734,1500,8489285,268.39,-602.06,2801.2799999999997
1339,0.537128,1501,8489679,268.39,-602.06,2801.2799999999997
1340,0.537531,1502,8490082,519.39,220.94,2340.2799999999997
1341,0.537920,1503,8490471,519.39,220.94,2340.2799999999997
1342,0.538308,1504,8490859,1240.39,984.94,1746.2799999999997
1343,0.538707,1505,8491258,1240.39,984.94,1746.2799999999997
1344,0.539101,1506,8491652,1240.39,984.94,1746.2799999999997
1345,0.539496,1507,8492047,4246.39,1033.94,1016.2799999999997
1346,0.539892,1508,8492443,4246.39,1033.94,1016.2799999999997
1347,0.540272,1509,8492823,7663.39,595.94,1155.2799999999997
1348,0.540665,1510,8493216,7663.39,595.94,1155.2799999999997
1349,0.541053,1511,8493604,7663.39,595.94,1155.2799999999997
1350,0.541444,1512,8493995,7499.39,249.94,1210.2799999999997
1351,0.541839,1513,8494390,7499.39,249.94,1210.2799999999997
1352,0.542226,1514,8494777,7499.39,249.94,1210.2799999999997
1353,0.542608,1515,8495159,5045.39,-103.06,-91.72000000000025
1354,0.543009,1516,8495560,5045.39,-103.06,-91.72000000000025
1355,0.543423,1517,8495974,1509.39,-339.06,-1495.7200000000003
1356,0.543818,1518,8496369,1509.39,-339.06,-1495.7200000000003
1357,0.544220,1519,8496771,1509.39,-339.06,-1495.7200000000003
1358,0.544609,1520,8497160,-2660.61,-205.06,-1953.7200000000003
1359,0.545026,1521,8497577,-2660.61,-205.06,-1953.7200000000003
1360,0.545423,1522,8497974,-2613.61,-342.06,-1904.7200000000003
1361,0.545833,1523,8498384,-2613.61,-342.06,-1904.7200000000003
1362,0.546237,1524,8498788,-798.61,-775.06,-2224.7200000000003
1363,0.546648,1525,8499199,-798.61,-775.06,-2224.7200000000003
1364,0.547058,1526,8499609,-798.61,-775.06,-2224.7200000000003
1365,0.547475,1527,8500026,388.39,-644.06,-1936.7200000000003
1366,0.547886,1528,8500437,388.39,-644.06,-1936.7200000000003
1367,0.548283,1529,8500834,1619.39,-428.06,-806.7200000000003
1368,0.548677,1530,8501228,1619.39,-428.06,-806.7200000000003
1369,0.549086,1531,8501637,1619.39,-428.06,-806.7200000000003
1370,0.549485,1532,8502036,898.39,-68.06,312.27999999999975
1371,0.549891,1533,8502442,898.39,-68.06,312.27999999999975
1372,0.550273,1534,8502824,-718.61,73.94,1799.2799999999997
1373,0.550683,1535,8503234,-718.61,73.94,1799.2799999999997
1374,0.551085,1536,8503636,-718.61,73.94,1799.2799999999997
1375,0.551491,1537,8504042,-903.61,714.94,2297.2799999999997
1376,0.551887,1538,8504438,-903.61,714.94,2297.2799999999997
1377,0.552275,1539,8504826,-1575.61,1287.94,2349.2799999999997
1378,0.552681,1540,8505232,-1575.61,1287.94,2349.2799999999997
1379,0.553083,1541,8505634,-1575.61,1287.94,2349.2799999999997
1380,0.553490,1542,8506041,-536.61,681.94,3679.2799999999997
1381,0.553895,1543,8506446,-536.61,681.94,3679.2799999999997
1382,0.554286,1544,8506837,1703.39,693.94,3717.2799999999997
1383,0.554675,1545,8507226,1703.39,693.94,3717.2799999999997
1384,0.555068,1546,8507619,1703.39,693.94,3717.2799999999997
1385,0.555466,1547,8508017,-4026.61,750.94,1877.2799999999997
1386,0.555868,1548,8508419,-4026.61,750.94,1877.2799999999997
1387,0.556256,1549,8508807,-8925.61,-345.06,973.2799999999997
1388,0.556669,1550,8509220,-8925.61,-345.06,973.2799999999997
1389,0.557079,1551,8509630,-8925.61,-345.06,973.2799999999997
1390,0.557495,1552,8510046,-8116.61,-385.06,-351.72000000000025
1391,0.557907,1553,8510458,-8116.61,-385.06,-351.72000000000025
1392,0.558305,1554,8510856,-7446.61,591.94,-2541.7200000000003
1393,0.558709,1555,8511260,-7446.61,591.94,-2541.7200000000003
1394,0.559103,1556,8511654,-7446.61,591.94,-2541.7200000000003
1395,0.559505,1557,8512056,-159.61,-345.06,-2135.7200000000003
1396,0.559922,1558,8512473,-159.61,-345.06,-2135.7200000000003
1397,0.560318,1559,8512869,9350.39,-755.06,-1535.7200000000003
1398,0.560732,1560,8513283,9350.39,-755.06,-1535.7200000000003
1399,0.561134,1561,8513685,9350.39,-755.06,-1535.7200000000003
1400,0.561536,1562,8514087,11209.39,84.94,-1008.7200000000003
1401,0.561925,1563,8514476,11209.39,84.94,-1008.7200000000003
1402,0.562308,1564,8514859,5816.39,150.94,412.27999999999975
1403,0.562704,1565,8515255,5816.39,150.94,412.27999999999975
1404,0.563098,1566,8515649,5816.39,150.94,412.27999999999975
1405,0.563499,1567,8516050,-716.61,202.94,410.27999999999975
1406,0.563903,1568,8516454,-716.61,202.94,410.27999999999975
1407,0.564293,1569,8516844,-3283.61,531.94,518.2799999999997
1408,0.564697,1570,8517248,-3283.61,531.94,518.2799999999997
1409,0.565091,1571,8517642,-3283.61,531.94,518.2799999999997
1410,0.565501,1572,8518052,-2803.61,-139.06,600.2799999999997
1411,0.565911,1573,8518462,-2803.61,-139.06,600.2799999999997
1412,0.566309,1574,8518860,159.39,-543.06,-300.72000000000025
1413,0.566723,1575,8519274,159.39,-543.06,-300.72000000000025
1414,0.567117,1576,8519668,159.39,-543.06,-300.72000000000025
1415,0.567513,1577,8520064,2938.39,-123.06,-1312.7200000000003
1416,0.567923,1578,8520474,2938.39,-123.06,-1312.7200000000003
1417,0.568313,1579,8520864,1602.39,-365.06,-1413.7200000000003
1418,0.568725,1580,8521276,1602.39,-365.06,-1413.7200000000003
1419,0.569126,1581,8521677,1602.39,-365.06,-1413.7200000000003
1420,0.569528,1582,8522079,-2364.61,-433.06,-1469.7200000000003
1421,0.569941,1583,8522492,-2364.61,-433.06,-1469.7200000000003
1422,0.570346,1584,8522897,-5305.61,-123.06,-1661.7200000000003
1423,0.570764,1585,8523315,-5305.61,-123.06,-1661.7200000000003
1424,0.571179,1586,8523730,-5305.61,-123.06,-1661.7200000000003
1425,0.571583,1587,8524134,-3531.61,-385.06,136.27999999999975
1426,0.571995,1588,8524546,-3531.61,-385.06,136.27999999999975
1427,0.572410,1589,8524961,-1325.61,-575.06,2008.2799999999997
1428,0.572821,1590,8525372,-1325.61,-575.06,2008.2799999999997
1429,0.573224,1591,8525775,-1325.61,-575.06,2008.2799999999997
1430,0.573628,1592,8526179,-759.61,-131.06,2689.2799999999997
1431,0.574037,1593,8526588,-759.61,-131.06,2689.2799999999997
1432,0.574452,1594,8527003,1709.39,602.94,2350.2799999999997
1433,0.574848,1595,8527399,1709.39,602.94,2350.2799999999997
1434,0.575227,1596,8527778,1709.39,602.94,2350.2799999999997
1435,0.575608,1597,8528159,3308.39,1081.94,969.2799999999997
1436,0.576003,1598,8528554,3308.39,1081.94,969.2799999999997
1437,0.576401,1599,8528952,4945.39,894.94,939.2799999999997
1438,0.576796,1600,8529347,4945.39,894.94,939.2799999999997
1439,0.577189,1601,8529740,4945.39,894.94,939.2799999999997
1440,0.577570,1602,8530121,8534.39,273.94,1844.2799999999997
1441,0.577965,1603,8530516,8534.39,273.94,1844.2799999999997
1442,0.578365,1604,8530916,7670.39,-11.059999999999999,666.2799999999997
1443,0.578766,1605,8531317,7670.39,-11.059999999999999,666.2799999999997
1444,0.579162,1606,8531713,7670.39,-11.059999999999999,666.2799999999997
1445,0.579566,1607,8532117,2379.39,17.94,-1276.7200000000003
1446,0.579961,1608,8532512,2379.39,17.94,-1276.7200000000003
1447,0.580348,1609,8532899,-1766.61,-291.06,-1766.7200000000003
1448,0.580767,1610,8533318,-1766.61,-291.06,-1766.7200000000003
1449,0.581171,1611,8533722,-1766.61,-291.06,-1766.7200000000003
1450,0.581576,1612,8534127,-2492.61,-503.06,-1866.7200000000003
1451,0.581987,1613,8534538,-2492.61,-503.06,-1866.7200000000003
1452,0.582397,1614,8534948,-1893.61,-503.06,-2416.7200000000003
1453,0.582805,1615,8535356,-1893.61,-503.06,-2416.7200000000003
1454,0.583208,1616,8535759,-1893.61,-503.06,-2416.7200000000003
1455,0.583612,1617,8536163,-502.61,-695.06,-2188.7200000000003
1456,0.584022,1618,8536573,-502.61,-695.06,-2188.7200000000003
1457,0.584436,1619,8536987,1991.39,-723.06,-1198.7200000000003
1458,0.584839,1620,8537390,1991.39,-723.06,-1198.7200000000003
1459,0.585233,1621,8537784,1733.39,-141.06,-379.72000000000025
1460,0.585629,1622,8538180,1733.39,-141.06,-379.72000000000025
1461,0.586031,1623,8538582,1733.39,-141.06,-379.72000000000025
1462,0.586438,1624,8538989,-575.61,19.94,1111.2799999999997
1463,0.586840,1625,8539391,-575.61,19.94,1111.2799999999997
1464,0.587227,1626,8539778,-575.61,19.94,1111.2799999999997
1465,0.587614,1627,8540165,-852.61,361.94,2414.2799999999997
1466,0.588015,1628,8540566,-852.61,361.94,2414.2799999999997
1467,0.588429,1629,8540980,-1332.61,1005.94,2333.2799999999997
1468,0.588830,1630,8541381,-1332.61,1005.94,2333.2799999999997
1469,0.589227,1631,8541778,-1332.61,1005.94,2333.2799999999997
1470,0.589624,1632,8542175,-921.61,950.94,2999.2799999999997
1471,0.590026,1633,8542577,-921.61,950.94,2999.2799999999997
1472,0.590432,1634,8542983,-71.61,739.94,3987.2799999999997
1473,0.590835,1635,8543386,-71.61,739.94,3987.2799999999997
1474,0.591230,1636,8543781,-491.61,641.94,2814.2799999999997
1475,0.591627,1637,8544178,-491.61,641.94,2814.2799999999997
1476,0.592021,1638,8544572,-491.61,641.94,2814.2799999999997
1477,0.592433,1639,8544984,-4231.61,38.94,1554.2799999999997
1478,0.592829,1640,8545380,-4231.61,38.94,1554.2799999999997
1479,0.593231,1641,8545782,-10115.61,-247.06,279.27999999999975
1480,0.593636,1642,8546187,-10115.61,-247.06,279.27999999999975
1481,0.594047,1643,8546598,-10115.61,-247.06,279.27999999999975
1482,0.594460,1644,8547011,-11148.61,262.94,-2066.7200000000003
1483,0.594863,1645,8547414,-11148.61,262.94,-2066.7200000000003
1484,0.595253,1646,8547804,-2824.61,-245.06,-2300.7200000000003
1485,0.595651,1647,8548202,-2824.61,-245.06,-2300.7200000000003
1486,0.596062,1648,8548613,-2824.61,-245.06,-2300.7200000000003
1487,0.596468,1649,8549019,6631.39,-590.06,-1524.7200000000003
1488,0.596876,1650,8549427,6631.39,-590.06,-1524.7200000000003
1489,0.597263,1651,8549814,10120.39,40.94,-1444.7200000000003
1490,0.597660,1652,8550211,10120.39,40.94,-1444.7200000000003
1491,0.598054,1653,8550605,10120.39,40.94,-1444.7200000000003
1492,0.598460,1654,8551011,9357.39,-32.06,34.279999999999745
1493,0.598862,1655,8551413,9357.39,-32.06,34.279999999999745
1494,0.599250,1656,8551801,2649.39,79.94,598.2799999999997
1495,0.599640,1657,8552191,2649.39,79.94,598.2799999999997
1496,0.600035,1658,8552586,2649.39,79.94,598.2799999999997
1497,0.600432,1659,8552983,-2925.61,628.94,314.27999999999975
1498,0.600842,1660,8553393,-2925.61,628.94,314.27999999999975
1499,0.601229,1661,8553780,-4040.61,257.94,731.2799999999997
1500,0.601628,1662,8554179,-4040.61,257.94,731.2799999999997
1501,0.602037,1663,8554588,-4040.61,257.94,731.2799999999997
1502,0.602444,1664,8554995,-1090.61,-465.06,226.27999999999975
1503,0.602854,1665,8555405,-1090.61,-465.06,226.27999999999975
1504,0.603249,1666,8555800,2776.39,-452.06,-1026.7200000000003
1505,0.603653,1667,8556204,2776.39,-452.06,-1026.7200000000003
1506,0.604046,1668,8556597,2776.39,-452.06,-1026.7200000000003
1507,0.604459,1669,8557010,2154.39,-105.06,-1514.7200000000003
1508,0.604861,1670,8557412,2154.39,-105.06,-1514.7200000000003
1509,0.605250,1671,8557801,-530.61,-424.06,-1182.7200000000003
1510,0.605664,1672,8558215,-530.61,-424.06,-1182.7200000000003
1511,0.606073,1673,8558624,-530.61,-424.06,-1182.7200000000003
1512,0.606487,1674,8559038,-4550.61,-373.06,-1935.7200000000003
1513,0.606901,1675,8559452,-4550.61,-373.06,-1935.7200000000003
1514,0.607300,1676,8559851,-5056.61,-162.06,-1168.7200000000003
1515,0.607711,1677,8560262,-5056.61,-162.06,-1168.7200000000003
1516,0.608121,1678,8560672,-5056.61,-162.06,-1168.7200000000003
1517,0.608531,1679,8561082,-1921.61,-516.06,1496.2799999999997
1518,0.608942,1680,8561493,-1921.61,-516.06,1496.2799999999997
1519,0.609347,1681,8561898,271.39,-538.06,2617.2799999999997
1520,0.609759,1682,8562310,271.39,-538.06,2617.2799999999997
1521,0.610160,1683,8562711,271.39,-538.06,2617.2799999999997
1522,0.610557,1684,8563108,717.39,313.94,2515.2799999999997
1523,0.610945,1685,8563496,717.39,313.94,2515.2799999999997
1524,0.611340,1686,8563891,629.39,1050.94,1710.2799999999997
1525,0.611723,1687,8564274,629.39,1050.94,1710.2799999999997
1526,0.612085,1688,8564636,629.39,1050.94,1710.2799999999997
1527,0.612470,1689,8565021,3947.39,1011.94,978.2799999999997
1528,0.612865,1690,8565416,3947.39,1011.94,978.2799999999997
1529,0.613247,1691,8565798,8395.39,468.94,1495.2799999999997
1530,0.613646,1692,8566197,8395.39,468.94,1495.2799999999997
1531,0.614033,1693,8566584,8395.39,468.94,1495.2799999999997
1532,0.614439,1694,8566990,7511.39,219.94,1314.2799999999997
1533,0.614835,1695,8567386,7511.39,219.94,1314.2799999999997
1534,0.615222,1696,8567773,7511.39,219.94,1314.2799999999997
1535,0.615605,1697,8568156,4815.39,-10.059999999999999,-239.72000000000025
1536,0.616005,1698,8568556,4815.39,-10.059999999999999,-239.72000000000025
1537,0.616417,1699,8568968,1130.39,-389.06,-1671.7200000000003
1538,0.616818,1700,8569369,1130.39,-389.06,-1671.7200000000003
1539,0.617214,1701,8569765,1130.39,-389.06,-1671.7200000000003
1540,0.617603,1702,8570154,-2734.61,-280.06,-2061.7200000000003
1541,0.618020,1703,8570571,-2734.61,-280.06,-2061.7200000000003
1542,0.618435,1704,8570986,-2676.61,-307.06,-2083.7200000000003
1543,0.618845,1705,8571396,-2676.61,-307.06,-2083.7200000000003
1544,0.619240,1706,8571791,-894.61,-835.06,-2378.7200000000003
1545,0.619654,1707,8572205,-894.61,-835.06,-2378.7200000000003
1546,0.620064,1708,8572615,-894.61,-835.06,-2378.7200000000003
1547,0.620477,1709,8573028,1012.39,-740.06,-1813.7200000000003
1548,0.620879,1710,8573430,1012.39,-740.06,-1813.7200000000003
1549,0.621267,1711,8573818,1456.39,-292.06,-767.7200000000003
1550,0.621673,1712,8574224,1456.39,-292.06,-767.7200000000003
1551,0.622075,1713,8574626,1456.39,-292.06,-767.7200000000003
1552,0.622473,1714,8575024,498.39,-136.06,407.27999999999975
1553,0.622883,1715,8575434,498.39,-136.06,407.27999999999975
1554,0.623270,1716,8575821,-1034.61,39.94,1950.2799999999997
1555,0.623681,1717,8576232,-1034.61,39.94,1950.2799999999997
1556,0.624076,1718,8576627,-1034.61,39.94,1950.2799999999997
1557,0.624489,1719,8577040,-1027.61,855.94,2321.2799999999997
1558,0.624895,1720,8577446,-1027.61,855.94,2321.2799999999997
1559,0.625276,1721,8577827,-1173.61,1305.94,2327.2799999999997
1560,0.625675,1722,8578226,-1173.61,1305.94,2327.2799999999997
1561,0.626085,1723,8578636,-1173.61,1305.94,2327.2799999999997
1562,0.626486,1724,8579037,-53.61,627.94,3680.2799999999997
1563,0.626895,1725,8579446,-53.61,627.94,3680.2799999999997
1564,0.627276,1726,8579827,2278.39,596.94,3916.2799999999997
1565,0.627667,1727,8580218,2278.39,596.94,3916.2799999999997
1566,0.628055,1728,8580606,2278.39,596.94,3916.2799999999997
1567,0.628454,1729,8581005,-4159.61,734.94,1756.2799999999997
1568,0.628846,1730,8581397,-4159.61,734.94,1756.2799999999997
1569,0.629241,1731,8581792,-9419.61,-361.06,796.2799999999997
1570,0.629654,1732,8582205,-9419.61,-361.06,796.2799999999997
1571,0.630057,1733,8582608,-9419.61,-361.06,796.2799999999997
1572,0.630473,1734,8583024,-9410.61,-201.06,-472.72000000000025
1573,0.630889,1735,8583440,-9410.61,-201.06,-472.72000000000025
1574,0.631294,1736,8583845,-6923.61,455.94,-2445.7200000000003
1575,0.631697,1737,8584248,-6923.61,455.94,-2445.7200000000003
1576,0.632091,1738,8584642,-6923.61,455.94,-2445.7200000000003
1577,0.632494,1739,8585045,1191.39,-444.06,-1927.7200000000003
1578,0.632896,1740,8585447,1191.39,-444.06,-1927.7200000000003
1579,0.633294,1741,8585845,9278.39,-645.06,-1595.7200000000003
1580,0.633697,1742,8586248,9278.39,-645.06,-1595.7200000000003
1581,0.634100,1743,8586651,9278.39,-645.06,-1595.7200000000003
1582,0.634506,1744,8587057,11261.39,40.94,-766.7200000000003
1583,0.634895,1745,8587446,11261.39,40.94,-766.7200000000003
1584,0.635275,1746,8587826,4927.39,247.94,442.27999999999975
1585,0.635672,1747,8588223,4927.39,247.94,442.27999999999975
1586,0.636066,1748,8588617,4927.39,247.94,442.27999999999975
1587,0.636465,1749,8589016,-1086.61,171.94,477.27999999999975
1588,0.636875,1750,8589426,-1086.61,171.94,477.27999999999975
1589,0.637263,1751,8589814,-3399.61,442.94,446.27999999999975
1590,0.637669,1752,8590220,-3399.61,442.94,446.27999999999975
1591,0.638073,1753,8590624,-3399.61,442.94,446.27999999999975
1592,0.638480,1754,8591031,-2174.61,-62.06,520.2799999999997
1593,0.638891,1755,8591442,-2174.61,-62.06,520.2799999999997
1594,0.639290,1756,8591841,914.39,-575.06,-321.72000000000025
1595,0.639691,1757,8592242,914.39,-575.06,-321.72000000000025
1596,0.640086,1758,8592637,914.39,-575.06,-321.72000000000025
1597,0.640491,1759,8593042,2964.39,-98.06,-1561.7200000000003
1598,0.640902,1760,8593453,2964.39,-98.06,-1561.7200000000003
1599,0.641293,1761,8593844,1532.39,-213.06,-1317.7200000000003
1600,0.641687,1762,8594238,1532.39,-213.06,-1317.7200000000003
1601,0.642097,1763,8594648,1532.39,-213.06,-1317.7200000000003
1602,0.642494,1764,8595045,-3164.61,-531.06,-1498.7200000000003
1603,0.642907,1765,8595458,-3164.61,-531.06,-1498.7200000000003
1604,0.643312,1766,8595863,-5495.61,-141.06,-1689.7200000000003
1605,0.643724,1767,8596275,-5495.61,-141.06,-1689.7200000000003
1606,0.644135,1768,8596686,-5495.61,-141.06,-1689.7200000000003
1607,0.644545,1769,8597096,-3657.61,-420.06,338.27999999999975
1608,0.644956,1770,8597507,-3657.61,-420.06,338.27999999999975
1609,0.645353,1771,8597904,-1223.61,-701.06,2406.2799999999997
1610,0.645761,1772,8598312,-1223.61,-701.06,2406.2799999999997
1611,0.646171,1773,8598722,-1223.61,-701.06,2406.2799999999997
1612,0.646575,1774,8599126,-1112.61,-14.059999999999999,2642.2799999999997
1613,0.646986,1775,8599537,-1112.61,-14.059999999999999,2642.2799999999997
1614,0.647400,1776,8599951,1868.39,678.94,2107.2799999999997
1615,0.647788,1777,8600339,1868.39,678.94,2107.2799999999997
1616,0.648183,1778,8600734,1868.39,678.94,2107.2799999999997
1617,0.648571,1779,8601122,4326.39,1108.94,1124.2799999999997
1618,0.648968,1780,8601519,4326.39,1108.94,1124.2799999999997
1619,0.649367,1781,8601918,5840.39,822.94,1040.2799999999997
1620,0.649762,1782,8602313,5840.39,822.94,1040.2799999999997
1621,0.650157,1783,8602708,5840.39,822.94,1040.2799999999997
1622,0.650547,1784,8603098,8515.39,325.94,1630.2799999999997
1623,0.650943,1785,8603494,8515.39,325.94,1630.2799999999997
1624,0.651339,1786,8603890,6838.39,108.94,533.2799999999997
1625,0.651731,1787,8604282,6838.39,108.94,533.2799999999997
1626,0.652120,1788,8604671,6838.39,108.94,533.2799999999997
1627,0.652513,1789,8605064,1742.39,-21.06,-1175.7200000000003
1628,0.652922,1790,8605473,1742.39,-21.06,-1175.7200000000003
1629,0.653313,1791,8605864,-2204.61,-321.06,-1798.7200000000003
1630,0.653732,1792,8606283,-2204.61,-321.06,-1798.7200000000003
1631,0.654141,1793,8606692,-2204.61,-321.06,-1798.7200000000003
1632,0.654551,1794,8607102,-2245.61,-469.06,-1861.7200000000003
1633,0.654962,1795,8607513,-2245.61,-469.06,-1861.7200000000003
1634,0.655375,1796,8607926,-1141.61,-572.06,-2350.7200000000003
1635,0.655785,1797,8608336,-1141.61,-572.06,-2350.7200000000003
1636,0.656195,1798,8608746,-1141.61,-572.06,-2350.7200000000003
1637,0.656600,1799,8609151,-315.61,-713.06,-2355.7200000000003
1638,0.657010,1800,8609561,-315.61,-713.06,-2355.7200000000003
1639,0.657423,1801,8609974,1509.39,-547.06,-1257.7200000000003
1640,0.657819,1802,8610370,1509.39,-547.06,-1257.7200000000003
1641,0.658222,1803,8610773,1509.39,-547.06,-1257.7200000000003
1642,0.658610,1804,8611161,1766.39,-331.06,-143.72000000000025
1643,0.659005,1805,8611556,1766.39,-331.06,-143.72000000000025
1644,0.659414,1806,8611965,-580.61,176.94,1095.2799999999997
1645,0.659816,1807,8612367,-580.61,176.94,1095.2799999999997
1646,0.660209,1808,8612760,-580.61,176.94,1095.2799999999997
1647,0.660606,1809,8613157,-1300.61,373.94,2337.2799999999997
1648,0.661008,1810,8613559,-1300.61,373.94,2337.2799999999997
1649,0.661413,1811,8613964,-1314.61,914.94,2517.2799999999997
1650,0.661809,1812,8614360,-1314.61,914.94,2517.2799999999997
1651,0.662205,1813,8614756,-1314.61,914.94,2517.2799999999997
1652,0.662602,1814,8615153,-1181.61,1094.94,3100.2799999999997
1653,0.663005,1815,8615556,-1181.61,1094.94,3100.2799999999997
1654,0.663411,1816,8615962,184.39,789.94,3756.2799999999997
1655,0.663799,1817,8616350,184.39,789.94,3756.2799999999997
1656,0.664193,1818,8616744,184.39,789.94,3756.2799999999997
1657,0.664581,1819,8617132,-852.61,767.94,2837.2799999999997
1658,0.664980,1820,8617531,-852.61,767.94,2837.2799999999997
1659,0.665394,1821,8617945,-5129.61,-32.06,1818.2799999999997
1660,0.665804,1822,8618355,-5129.61,-32.06,1818.2799999999997
1661,0.666213,1823,8618764,-5129.61,-32.06,1818.2799999999997
1662,0.666617,1824,8619168,-9599.61,-189.06,143.27999999999975
1663,0.667027,1825,8619578,-9599.61,-189.06,143.27999999999975
1664,0.667442,1826,8619993,-10307.61,348.94,-2092.7200000000003
1665,0.667845,1827,8620396,-10307.61,348.94,-2092.7200000000003
1666,0.668233,1828,8620784,-2219.61,-265.06,-2114.7200000000003
1667,0.668647,1829,8621198,-2219.61,-265.06,-2114.7200000000003
1668,0.669057,1830,8621608,-2219.61,-265.06,-2114.7200000000003
1669,0.669470,1831,8622021,6905.39,-571.06,-1575.7200000000003
1670,0.669874,1832,8622425,6905.39,-571.06,-1575.7200000000003
1671,0.670261,1833,8622812,10693.39,-78.06,-1491.7200000000003
1672,0.670666,1834,8623217,10693.39,-78.06,-1491.7200000000003
1673,0.671070,1835,8623621,10693.39,-78.06,-1491.7200000000003
1674,0.671470,1836,8624021,8796.39,-98.06,-147.72000000000025
1675,0.671879,1837,8624430,8796.39,-98.06,-147.72000000000025
1676,0.672266,1838,8624817,1622.39,226.94,497.27999999999975
1677,0.672657,1839,8625208,1622.39,226.94,497.27999999999975
1678,0.673050,1840,8625601,1622.39,226.94,497.27999999999975
1679,0.673447,1841,8625998,-3027.61,460.94,297.27999999999975
1680,0.673856,1842,8626407,-3027.61,460.94,297.27999999999975
1681,0.674243,1843,8626794,-4410.61,62.94,472.27999999999975
1682,0.674621,1844,8627172,-4410.61,62.94,472.27999999999975
1683,0.675009,1845,8627560,-4410.61,62.94,472.27999999999975
1684,0.675412,1846,8627963,-1067.61,-462.06,155.27999999999975
1685,0.675821,1847,8628372,-1067.61,-462.06,155.27999999999975
1686,0.676229,1848,8628780,3119.39,-412.06,-1025.7200000000003
1687,0.676625,1849,8629176,3119.39,-412.06,-1025.7200000000003
1688,0.677027,1850,8629578,3119.39,-412.06,-1025.7200000000003
1689,0.677433,1851,8629984,2475.39,-74.06,-1618.7200000000003
1690,0.677835,1852,8630386,2475.39,-74.06,-1618.7200000000003
1691,0.678229,1853,8630780,-340.61,-370.06,-1289.7200000000003
1692,0.678627,1854,8631178,-340.61,-370.06,-1289.7200000000003
1693,0.679037,1855,8631588,-340.61,-370.06,-1289.7200000000003
1694,0.679450,1856,8632001,-3963.61,-394.06,-1768.7200000000003
1695,0.679862,1857,8632413,-3963.61,-394.06,-1768.7200000000003
1696,0.680259,1858,8632810,-4915.61,-112.06,-799.7200000000003
1697,0.680672,1859,8633223,-4915.61,-112.06,-799.7200000000003
1698,0.681083,1860,8633634,-4915.61,-112.06,-799.7200000000003
1699,0.681497,1861,8634048,-3112.61,-481.06,1702.2799999999997
1700,0.681910,1862,8634461,-3112.61,-481.06,1702.2799999999997
1701,0.682309,1863,8634860,-337.61,-522.06,2663.2799999999997
1702,0.682723,1864,8635274,-337.61,-522.06,2663.2799999999997
1703,0.683134,1865,8635685,-337.61,-522.06,2663.2799999999997
1704,0.683543,1866,8636094,778.39,415.94,2430.2799999999997
1705,0.683932,1867,8636483,778.39,415.94,2430.2799999999997
1706,0.684321,1868,8636872,988.39,1053.94,1418.2799999999997
1707,0.684714,1869,8637265,988.39,1053.94,1418.2799999999997
1708,0.685106,1870,8637657,988.39,1053.94,1418.2799999999997
1709,0.685496,1871,8638047,4712.39,951.94,897.2799999999997
1710,0.685892,1872,8638443,4712.39,951.94,897.2799999999997
1711,0.686273,1873,8638824,9105.39,398.94,1481.2799999999997
1712,0.686664,1874,8639215,9105.39,398.94,1481.2799999999997
1713,0.687059,1875,8639610,9105.39,398.94,1481.2799999999997
1714,0.687456,1876,8640007,7421.39,246.94,993.2799999999997
1715,0.687850,1877,8640401,7421.39,246.94,993.2799999999997
1716,0.688237,1878,8640788,3694.39,10.940000000000001,-475.72000000000025
1717,0.688643,1879,8641194,3694.39,10.940000000000001,-475.72000000000025
1718,0.689045,1880,8641596,3694.39,10.940000000000001,-475.72000000000025
1719,0.689452,1881,8642003,418.39,-341.06,-1503.7200000000003
1720,0.689846,1882,8642397,418.39,-341.06,-1503.7200000000003
1721,0.690241,1883,8642792,-2387.61,-271.06,-1811.7200000000003
1722,0.690654,1884,8643205,-2387.61,-271.06,-1811.7200000000003
1723,0.691064,1885,8643615,-2387.61,-271.06,-1811.7200000000003
1724,0.691477,1886,8644028,-2358.61,-414.06,-2049.7200000000003
1725,0.691888,1887,8644439,-2358.61,-414.06,-2049.7200000000003
1726,0.692277,1888,8644828,-654.61,-882.06,-2261.7200000000003
1727,0.692695,1889,8645246,-654.61,-882.06,-2261.7200000000003
1728,0.693105,1890,8645656,-654.61,-882.06,-2261.7200000000003
1729,0.693515,1891,8646066,1209.39,-635.06,-1845.7200000000003
1730,0.693911,1892,8646462,1209.39,-635.06,-1845.7200000000003
1731,0.694308,1893,8646859,1156.39,-288.06,-796.7200000000003
1732,0.694715,1894,8647266,1156.39,-288.06,-796.7200000000003
1733,0.695110,1895,8647661,1156.39,-288.06,-796.7200000000003
1734,0.695496,1896,8648047,-235.61,-42.06,377.27999999999975
1735,0.695880,1897,8648431,-235.61,-42.06,377.27999999999975
1736,0.696256,1898,8648807,-420.61,135.94,1956.2799999999997
1737,0.696659,1899,8649210,-420.61,135.94,1956.2799999999997
1738,0.697061,1900,8649612,-420.61,135.94,1956.2799999999997
1739,0.697466,1901,8650017,-241.61,811.94,2411.2799999999997
1740,0.697871,1902,8650422,-241.61,811.94,2411.2799999999997
1741,0.698258,1903,8650809,-1033.61,1291.94,2494.2799999999997
1742,0.698665,1904,8651216,-1033.61,1291.94,2494.2799999999997
1743,0.699068,1905,8651619,-1033.61,1291.94,2494.2799999999997
1744,0.699474,1906,8652025,-225.61,648.94,3944.2799999999997
1745,0.699876,1907,8652427,-225.61,648.94,3944.2799999999997
1746,0.700262,1908,8652813,763.39,669.94,3732.2799999999997
1747,0.700660,1909,8653211,763.39,669.94,3732.2799999999997
1748,0.701047,1910,8653598,763.39,669.94,3732.2799999999997
1749,0.701443,1911,8653994,-4465.61,501.94,1679.2799999999997
1750,0.701845,1912,8654396,-4465.61,501.94,1679.2799999999997
1751,0.702240,1913,8654791,-9799.61,-385.06,758.2799999999997
1752,0.702653,1914,8655204,-9799.61,-385.06,758.2799999999997
1753,0.703063,1915,8655614,-9799.61,-385.06,758.2799999999997
1754,0.703476,1916,8656027,-9879.61,-71.06,-787.7200000000003
1755,0.703886,1917,8656437,-9879.61,-71.06,-787.7200000000003
1756,0.704292,1918,8656843,-5359.61,392.94,-2546.7200000000003
1757,0.704694,1919,8657245,-5359.61,392.94,-2546.7200000000003
1758,0.705095,1920,8657646,-5359.61,392.94,-2546.7200000000003
1759,0.705501,1921,8658052,2798.39,-498.06,-1969.7200000000003
1760,0.705904,1922,8658455,2798.39,-498.06,-1969.7200000000003
1761,0.706295,1923,8658846,9624.39,-492.06,-1637.7200000000003
1762,0.706684,1924,8659235,9624.39,-492.06,-1637.7200000000003
1763,0.707093,1925,8659644,9624.39,-492.06,-1637.7200000000003
1764,0.707499,1926,8660050,10440.39,129.94,-660.7200000000003
1765,0.707895,1927,8660446,10440.39,129.94,-660.7200000000003
1766,0.708268,1928,8660819,4521.39,85.94,559.2799999999997
1767,0.708659,1929,8661210,4521.39,85.94,559.2799999999997
1768,0.709060,1930,8661611,4521.39,85.94,559.2799999999997
1769,0.709451,1931,8662002,-1495.61,272.94,477.27999999999975
1770,0.709860,1932,8662411,-1495.61,272.94,477.27999999999975
1771,0.710248,1933,8662799,-3397.61,471.94,723.2799999999997
1772,0.710654,1934,8663205,-3397.61,471.94,723.2799999999997
1773,0.711056,1935,8663607,-3397.61,471.94,723.2799999999997
1774,0.711462,1936,8664013,-2084.61,-200.06,572.2799999999997
1775,0.711857,1937,8664408,-2084.61,-200.06,572.2799999999997
1776,0.712252,1938,8664803,1002.39,-479.06,-663.7200000000003
1777,0.712648,1939,8665199,1002.39,-479.06,-663.7200000000003
1778,0.713056,1940,8665607,1002.39,-479.06,-663.7200000000003
1779,0.713461,1941,8666012,3034.39,-164.06,-1581.7200000000003
1780,0.713857,1942,8666408,3034.39,-164.06,-1581.7200000000003
1781,0.714253,1943,8666804,1251.39,-373.06,-1384.7200000000003
1782,0.714660,1944,8667211,1251.39,-373.06,-1384.7200000000003
1783,0.715061,1945,8667612,1251.39,-373.06,-1384.7200000000003
1784,0.715468,1946,8668019,-2902.61,-451.06,-1691.7200000000003
1785,0.715878,1947,8668429,-2902.61,-451.06,-1691.7200000000003
1786,0.716273,1948,8668824,-5909.61,-35.06,-1722.7200000000003
1787,0.716687,1949,8669238,-5909.61,-35.06,-1722.7200000000003
1788,0.717096,1950,8669647,-5909.61,-35.06,-1722.7200000000003
1789,0.717508,1951,8670059,-3615.61,-501.06,542.2799999999997
1790,0.717919,1952,8670470,-3615.61,-501.06,542.2799999999997
1791,0.718318,1953,8670869,-470.61,-746.06,2443.2799999999997
1792,0.718727,1954,8671278,-470.61,-746.06,2443.2799999999997
1793,0.719137,1955,8671688,-470.61,-746.06,2443.2799999999997
1794,0.719547,1956,8672098,-608.61,-3.0599999999999987,2768.2799999999997
1795,0.719956,1957,8672507,-608.61,-3.0599999999999987,2768.2799999999997
1796,0.720359,1958,8672910,2188.39,677.94,2238.2799999999997
1797,0.720756,1959,8673307,2188.39,677.94,2238.2799999999997
1798,0.721148,1960,8673699,2188.39,677.94,2238.2799999999997
1799,0.721536,1961,8674087,4009.39,1193.94,964.2799999999997
1800,0.721933,1962,8674484,4009.39,1193.94,964.2799999999997
1801,0.722321,1963,8674872,5254.39,873.94,1043.2799999999997
1802,0.722715,1964,8675266,5254.39,873.94,1043.2799999999997
1803,0.723110,1965,8675661,5254.39,873.94,1043.2799999999997
1804,0.723504,1966,8676055,7653.39,264.94,1645.2799999999997
1805,0.723901,1967,8676452,7653.39,264.94,1645.2799999999997
1806,0.724275,1968,8676826,6617.39,-46.06,446.27999999999975
1807,0.724678,1969,8677229,6617.39,-46.06,446.27999999999975
1808,0.725080,1970,8677631,6617.39,-46.06,446.27999999999975
1809,0.725487,1971,8678038,2165.39,-190.06,-1250.7200000000003
1810,0.725884,1972,8678435,2165.39,-190.06,-1250.7200000000003
1811,0.726272,1973,8678823,-2178.61,-304.06,-1824.7200000000003
1812,0.726686,1974,8679237,-2178.61,-304.06,-1824.7200000000003
1813,0.727097,1975,8679648,-2178.61,-304.06,-1824.7200000000003
1814,0.727501,1976,8680052,-2203.61,-345.06,-1910.7200000000003
1815,0.727913,1977,8680464,-2203.61,-345.06,-1910.7200000000003
1816,0.728311,1978,8680862,-1475.61,-572.06,-2449.7200000000003
1817,0.728720,1979,8681271,-1475.61,-572.06,-2449.7200000000003
1818,0.729130,1980,8681681,-1475.61,-572.06,-2449.7200000000003
1819,0.729540,1981,8682091,-330.61,-743.06,-2186.7200000000003
1820,0.729950,1982,8682501,-330.61,-743.06,-2186.7200000000003
1821,0.730353,1983,8682904,1957.39,-459.06,-1052.7200000000003
1822,0.730765,1984,8683316,1957.39,-459.06,-1052.7200000000003
1823,0.731160,1985,8683711,1957.39,-459.06,-1052.7200000000003
1824,0.731556,1986,8684107,2059.39,-278.06,-33.720000000000255
1825,0.731958,1987,8684509,2059.39,-278.06,-33.720000000000255
1826,0.732370,1988,8684921,-685.61,27.94,1267.2799999999997
1827,0.732772,1989,8685323,-685.61,27.94,1267.2799999999997
1828,0.733174,1990,8685725,-685.61,27.94,1267.2799999999997
1829,0.733570,1991,8686121,-1541.61,567.94,2342.2799999999997
1830,0.733965,1992,8686516,-1541.61,567.94,2342.2799999999997
1831,0.734380,1993,8686931,-1103.61,997.94,2466.2799999999997
1832,0.734781,1994,8687332,-1103.61,997.94,2466.2799999999997
1833,0.735175,1995,8687726,-1103.61,997.94,2466.2799999999997
1834,0.735572,1996,8688123,-811.61,991.94,3170.2799999999997
1835,0.735983,1997,8688534,-811.61,991.94,3170.2799999999997
1836,0.736390,1998,8688941,249.39,772.94,3888.2799999999997
1837,0.736776,1999,8689327,249.39,772.94,3888.2799999999997
1838,0.737248,2000,8689799,-1272.61,602.94,2599.2799999999997
1839,0.737658,2001,8690209,-1272.61,602.94,2599.2799999999997
1840,0.738052,2002,8690603,-1272.61,602.94,2599.2799999999997
1841,0.738451,2003,8691002,-6205.61,-21.06,1320.2799999999997
1842,0.738854,2004,8691405,-6205.61,-21.06,1320.2799999999997
1843,0.739250,2005,8691801,-9976.61,-194.06,85.27999999999975
1844,0.739663,2006,8692214,-9976.61,-194.06,85.27999999999975
1845,0.740074,2007,8692625,-9976.61,-194.06,85.27999999999975
1846,0.740489,2008,8693040,-9661.61,206.94,-2168.7200000000003
1847,0.740895,2009,8693446,-9661.61,206.94,-2168.7200000000003
1848,0.741276,2010,8693827,-1554.61,-44.06,-2307.7200000000003
1849,0.741689,2011,8694240,-1554.61,-44.06,-2307.7200000000003
1850,0.742099,2012,8694650,-1554.61,-44.06,-2307.7200000000003
1851,0.742513,2013,8695064,7565.39,-643.06,-1373.7200000000003
1852,0.742916,2014,8695467,7565.39,-643.06,-1373.7200000000003
1853,0.743305,2015,8695856,10868.39,-238.06,-999.7200000000003
1854,0.743701,2016,8696252,10868.39,-238.06,-999.7200000000003
1855,0.744103,2017,8696654,10868.39,-238.06,-999.7200000000003
1856,0.744512,2018,8697063,8038.39,315.94,44.279999999999745
1857,0.744901,2019,8697452,8038.39,315.94,44.279999999999745
1858,0.745291,2020,8697842,1547.39,41.94,581.2799999999997
1859,0.745672,2021,8698223,1547.39,41.94,581.2799999999997
1860,0.746060,2022,8698611,1547.39,41.94,581.2799999999997
1861,0.746457,2023,8699008,-3062.61,449.94,300.27999999999975
1862,0.746858,2024,8699409,-3062.61,449.94,300.27999999999975
1863,0.747253,2025,8699804,-3828.61,288.94,464.27999999999975
1864,0.747659,2026,8700210,-3828.61,288.94,464.27999999999975
1865,0.748061,2027,8700612,-3828.61,288.94,464.27999999999975
1866,0.748467,2028,8701018,-236.61,-687.06,185.27999999999975
1867,0.748879,2029,8701430,-236.61,-687.06,185.27999999999975
1868,0.749274,2030,8701825,2905.39,-398.06,-1240.7200000000003
1869,0.749677,2031,8702228,2905.39,-398.06,-1240.7200000000003
1870,0.750087,2032,8702638,2905.39,-398.06,-1240.7200000000003
1871,0.750493,2033,8703044,1859.39,-24.06,-1698.7200000000003
1872,0.750891,2034,8703442,1859.39,-24.06,-1698.7200000000003
1873,0.751272,2035,8703823,-1825.61,-350.06,-1440.7200000000003
1874,0.751685,2036,8704236,-1825.61,-350.06,-1440.7200000000003
1875,0.752095,2037,8704646,-1825.61,-350.06,-1440.7200000000003
1876,0.752507,2038,8705058,-4015.61,-383.06,-1623.7200000000003
1877,0.752920,2039,8705471,-4015.61,-383.06,-1623.7200000000003
1878,0.753318,2040,8705869,-4337.61,-133.06,-550.7200000000003
1879,0.753739,2041,8706290,-4337.61,-133.06,-550.7200000000003
1880,0.754149,2042,8706700,-4337.61,-133.06,-550.7200000000003
1881,0.754554,2043,8707105,-2823.61,-467.06,1841.2799999999997
1882,0.754966,2044,8707517,-2823.61,-467.06,1841.2799999999997
1883,0.755380,2045,8707931,-318.61,-440.06,2805.2799999999997
1884,0.755789,2046,8708340,-318.61,-440.06,2805.2799999999997
1885,0.756199,2047,8708750,-318.61,-440.06,2805.2799999999997
1886,0.756596,2048,8709147,735.39,521.94,2365.2799999999997
1887,0.756990,2049,8709541,735.39,521.94,2365.2799999999997
1888,0.757391,2050,8709942,1549.39,1140.94,1616.2799999999997
1889,0.757778,2051,8710329,1549.39,1140.94,1616.2799999999997
1890,0.758180,2052,8710731,1549.39,1140.94,1616.2799999999997
1891,0.758569,2053,8711120,5443.39,835.94,1186.2799999999997
1892,0.758965,2054,8711516,5443.39,835.94,1186.2799999999997
1893,0.759351,2055,8711902,9526.39,393.94,1435.2799999999997
1894,0.759749,2056,8712300,9526.39,393.94,1435.2799999999997
1895,0.760144,2057,8712695,9526.39,393.94,1435.2799999999997
1896,0.760533,2058,8713084,7356.39,233.94,937.2799999999997
1897,0.760928,2059,8713479,7356.39,233.94,937.2799999999997
1898,0.761312,2060,8713863,3138.39,1.9400000000000013,-532.7200000000003
1899,0.761724,2061,8714275,3138.39,1.9400000000000013,-532.7200000000003
1900,0.762126,2062,8714677,3138.39,1.9400000000000013,-532.7200000000003
1901,0.762527,2063,8715078,-128.61,-359.06,-1652.7200000000003
1902,0.762939,2064,8715490,-128.61,-359.06,-1652.7200000000003
1903,0.763343,2065,8715894,-2764.61,-435.06,-2013.7200000000003
1904,0.763760,2066,8716311,-2764.61,-435.06,-2013.7200000000003
1905,0.764171,2067,8716722,-2764.61,-435.06,-2013.7200000000003
1906,0.764581,2068,8717132,-2279.61,-421.06,-2255.7200000000003
1907,0.764992,2069,8717543,-2279.61,-421.06,-2255.7200000000003
1908,0.765408,2070,8717959,-594.61,-828.06,-2397.7200000000003
1909,0.765818,2071,8718369,-594.61,-828.06,-2397.7200000000003
1910,0.766221,2072,8718772,1761.39,-753.06,-1826.7200000000003
1911,0.766617,2073,8719168,1761.39,-753.06,-1826.7200000000003
1912,0.767019,2074,8719570,1761.39,-753.06,-1826.7200000000003
1913,0.767425,2075,8719976,1694.39,-287.06,-624.7200000000003
1914,0.767828,2076,8720379,1694.39,-287.06,-624.7200000000003
1915,0.768222,2077,8720773,-362.61,16.94,621.2799999999997
1916,0.768618,2078,8721169,-362.61,16.94,621.2799999999997
1917,0.769011,2079,8721562,-362.61,16.94,621.2799999999997
1918,0.769424,2080,8721975,-478.61,11.940000000000001,2080.2799999999997
1919,0.769833,2081,8722384,-478.61,11.940000000000001,2080.2799999999997
1920,0.770236,2082,8722787,-1190.61,911.94,2488.2799999999997
1921,0.770632,2083,8723183,-1190.61,911.94,2488.2799999999997
