row,seconds,esp32_index,micros,ax,ay,az
0,0.000000,2524,4138994,5811.09,572.66,2413.0200000000004
1,0.001000,2525,4139994,6616.09,957.66,1861.0200000000004
2,0.001999,2526,4140993,4428.09,706.66,1482.0200000000004
3,0.003000,2527,4141994,1605.09,49.66,1121.0200000000004
4,0.004000,2528,4142994,506.09000000000003,7.66,-689.9799999999996
5,0.004999,2529,4143993,648.09,-139.34,-1728.9799999999996
6,0.006000,2530,4144994,1537.09,-648.34,-1598.9799999999996
7,0.007000,2531,4145994,1895.09,-493.34,-2359.9799999999996
8,0.007999,2532,4146993,32.09,-502.34,-2748.9799999999996
9,0.009000,2533,4147994,-1721.91,-298.34,-1697.9799999999996
10,0.010000,2534,4148994,-1471.91,-150.34,-690.9799999999996
11,0.011000,2535,4149994,-910.91,-124.34,-23.979999999999563
12,0.012000,2536,4150994,-1008.91,12.66,1689.0200000000004
13,0.013000,2537,4151994,-809.91,567.66,2569.0200000000004
14,0.014000,2538,4152994,-957.91,1353.66,2424.0200000000004
15,0.015000,2539,4153994,-61.91,1027.66,3201.0200000000004
16,0.016000,2540,4154994,-4144.91,585.66,3313.0200000000004
17,0.017000,2541,4155994,-8354.91,201.66,2450.0200000000004
18,0.018000,2542,4156994,-9032.91,148.66,473.02000000000044
19,0.019000,2543,4157994,-7628.91,515.66,-1444.9799999999996
20,0.020000,2544,4158994,1241.09,362.66,-1469.9799999999996
21,0.021000,2545,4159994,10401.09,-442.34,-1392.9799999999996
22,0.022000,2546,4160994,11747.09,-362.34,-1203.9799999999996
23,0.023000,2547,4161994,4940.09,216.66,-536.9799999999996
24,0.024000,2548,4162994,-2280.91,-37.34,-373.97999999999956
25,0.025000,2549,4163994,-5576.91,-475.34,-145.97999999999956
26,0.026000,2550,4164994,-3368.91,-620.34,-996.9799999999996
27,0.027000,2551,4165994,2428.09,-725.34,-1600.9799999999996
28,0.028000,2552,4166994,3431.09,-473.34,-1403.9799999999996
29,0.029000,2553,4167994,2044.09,-563.34,-1823.9799999999996
30,0.030000,2554,4168994,-2620.91,-136.34,-2497.9799999999996
31,0.031000,2555,4169994,-4828.91,221.66,-765.9799999999996
32,0.032000,2556,4170994,-1796.91,-569.34,2136.0200000000004
33,0.033000,2557,4171994,810.09,-271.34,2541.0200000000004
34,0.034000,2558,4172994,3703.09,555.66,2285.0200000000004
35,0.035000,2559,4173994,5326.09,811.66,2122.0200000000004
36,0.036000,2560,4174994,5828.09,814.66,1656.0200000000004
37,0.037000,2561,4175994,4446.09,352.66,1441.0200000000004
38,0.038000,2562,4176994,1439.09,-8.34,87.02000000000044
39,0.039000,2563,4177994,-225.91,148.66,-1488.9799999999996
40,0.040000,2564,4178994,714.09,-468.34,-1502.9799999999996
41,0.040999,2565,4179993,2198.09,-801.34,-1865.9799999999996
42,0.042000,2566,4180994,1503.09,-276.34,-2856.9799999999996
43,0.043000,2567,4181994,-1862.91,-351.34,-2319.9799999999996
44,0.044000,2568,4182994,-722.91,-598.34,-991.9799999999996
45,0.045000,2569,4183994,-1268.91,123.66,-529.9799999999996
46,0.046000,2570,4184994,-1226.91,100.66,794.0200000000004
47,0.047000,2571,4185994,-326.90999999999997,-155.34,2170.0200000000004
48,0.048000,2572,4186994,-1571.91,1188.66,2475.0200000000004
49,0.048999,2573,4187993,-1330.91,1435.66,2876.0200000000004
50,0.049999,2574,4188993,-1440.91,471.66,3366.0200000000004
51,0.051000,2575,4189994,-3952.91,360.66,3227.0200000000004
52,0.052000,2576,4190994,-9374.91,361.66,1640.0200000000004
53,0.053000,2577,4191994,-11333.91,256.66,-653.9799999999996
54,0.054000,2578,4192994,-3500.91,364.66,-1415.9799999999996
55,0.055000,2579,4193994,7342.09,49.66,-1525.9799999999996
56,0.056000,2580,4194994,11166.09,-272.34,-1658.9799999999996
57,0.057000,2581,4195994,9650.09,-327.34,-765.9799999999996
58,0.058000,2582,4196994,1535.09,24.66,-702.9799999999996
59,0.059000,2583,4197994,-4693.91,-33.34,-353.97999999999956
60,0.060000,2584,4198994,-5336.91,-508.34,-397.97999999999956
61,0.061000,2585,4199994,-55.91,-767.34,-1328.9799999999996
62,0.062000,2586,4200994,3558.09,-665.34,-1328.9799999999996
63,0.063000,2587,4201994,2673.09,-595.34,-1431.9799999999996
64,0.063999,2588,4202993,-165.91,-261.34,-2301.9799999999996
65,0.065000,2589,4203994,-4195.91,50.66,-2030.9799999999996
66,0.066000,2590,4204994,-3628.91,-355.34,533.0200000000004
67,0.067000,2591,4205994,-1015.91,-399.34,2354.0200000000004
68,0.068000,2592,4206994,1765.09,26.66,2431.0200000000004
69,0.069000,2593,4207994,5571.09,605.66,2458.0200000000004
70,0.070000,2594,4208994,6609.09,1017.66,1840.0200000000004
71,0.071000,2595,4209994,4484.09,778.66,1427.0200000000004
72,0.072000,2596,4210994,2256.09,19.66,1330.0200000000004
73,0.073000,2597,4211994,1066.09,28.66,-615.9799999999996
74,0.074000,2598,4212994,742.09,4.66,-1783.9799999999996
75,0.075000,2599,4213994,1302.09,-709.34,-1473.9799999999996
76,0.076000,2600,4214994,1818.09,-629.34,-2418.9799999999996
77,0.077000,2601,4215994,-261.90999999999997,-224.34,-3063.9799999999996
78,0.078000,2602,4216994,-1645.91,-475.34,-1745.9799999999996
79,0.079000,2603,4217994,-929.91,-427.34,-713.9799999999996
80,0.080000,2604,4218994,-1094.91,105.66,-130.97999999999956
81,0.081000,2605,4219994,-1171.91,-145.34,1697.0200000000004
82,0.082000,2606,4220994,-1299.91,494.66,2402.0200000000004
83,0.083000,2607,4221994,-1071.91,1502.66,2436.0200000000004
84,0.084000,2608,4222994,72.09,1114.66,3115.0200000000004
85,0.085000,2609,4223994,-3952.91,712.66,3350.0200000000004
86,0.086000,2610,4224994,-7080.91,64.66,2953.0200000000004
87,0.087000,2611,4225994,-8328.91,202.66,801.0200000000004
88,0.088000,2612,4226994,-8604.91,519.66,-1223.9799999999996
89,0.089000,2613,4227994,-214.91,272.66,-1471.9799999999996
90,0.090000,2614,4228994,9531.09,-247.34,-1591.9799999999996
91,0.091000,2615,4229994,12156.09,-514.34,-1345.9799999999996
92,0.092000,2616,4230994,5843.09,140.66,-812.9799999999996
93,0.093000,2617,4231994,-1906.91,114.66,-700.9799999999996
94,0.094000,2618,4232994,-5203.91,-468.34,-309.97999999999956
95,0.095000,2619,4233994,-3947.91,-615.34,-954.9799999999996
96,0.096000,2620,4234994,1917.09,-650.34,-1415.9799999999996
97,0.096999,2621,4235993,3780.09,-678.34,-1134.9799999999996
98,0.098000,2622,4236994,2263.09,-497.34,-1775.9799999999996
99,0.099000,2623,4237994,-2078.91,34.66,-2480.9799999999996
100,0.100000,2624,4238994,-4705.91,-1.34,-876.9799999999996
101,0.101000,2625,4239994,-2242.91,-441.34,1825.0200000000004
102,0.102000,2626,4240994,247.09,-304.34,2435.0200000000004
103,0.103000,2627,4241994,3193.09,421.66,2345.0200000000004
104,0.104000,2628,4242994,5084.09,877.66,2261.0200000000004
105,0.104999,2629,4243993,6173.09,725.66,1690.0200000000004
106,0.106000,2630,4244994,5105.09,416.66,1463.0200000000004
107,0.106999,2631,4245993,1541.09,67.66,307.02000000000044
108,0.108000,2632,4246994,-53.91,29.66,-1311.9799999999996
109,0.108999,2633,4247993,419.09000000000003,-390.34,-1579.9799999999996
110,0.110000,2634,4248994,1912.09,-797.34,-1796.9799999999996
111,0.111000,2635,4249994,1493.09,-322.34,-2838.9799999999996
112,0.112000,2636,4250994,-1449.91,-330.34,-2430.9799999999996
113,0.113000,2637,4251994,-651.91,-593.34,-1080.9799999999996
114,0.113999,2638,4252993,-1132.91,60.66,-671.9799999999996
115,0.115000,2639,4253994,-806.91,4.66,692.0200000000004
116,0.116000,2640,4254994,-374.90999999999997,14.66,2220.0200000000004
117,0.117000,2641,4255994,-2050.91,980.66,2446.0200000000004
118,0.118000,2642,4256994,-1605.91,1367.66,2775.0200000000004
119,0.119000,2643,4257994,-1474.91,875.66,3378.0200000000004
120,0.119999,2644,4258993,-3223.91,214.66,3246.0200000000004
121,0.121000,2645,4259994,-8972.91,400.66,1739.0200000000004
122,0.121999,2646,4260993,-11738.91,458.66,-485.97999999999956
123,0.123000,2647,4261994,-3727.91,14.66,-1238.9799999999996
124,0.124000,2648,4262994,5917.09,173.66,-1427.9799999999996
125,0.125000,2649,4263994,10691.09,-259.34,-1607.9799999999996
126,0.126000,2650,4264994,10019.09,-376.34,-910.9799999999996
127,0.126999,2651,4265993,2346.09,247.66,-606.9799999999996
128,0.128000,2652,4266994,-3870.91,-126.34,-318.97999999999956
129,0.129000,2653,4267994,-5399.91,-275.34,-562.9799999999996
130,0.130000,2654,4268994,-393.90999999999997,-760.34,-1258.9799999999996
131,0.130999,2655,4269993,3234.09,-786.34,-1349.9799999999996
132,0.132000,2656,4270994,2364.09,-457.34,-1397.9799999999996
133,0.133000,2657,4271994,276.09000000000003,-380.34,-2116.9799999999996
134,0.134000,2658,4272994,-3783.91,15.66,-2175.9799999999996
135,0.135000,2659,4273994,-3779.91,-165.34,407.02000000000044
136,0.136000,2660,4274994,-1295.91,-448.34,2512.0200000000004
137,0.137000,2661,4275994,1115.09,-6.34,2337.0200000000004
138,0.138000,2662,4276994,5371.09,581.66,2359.0200000000004
139,0.139000,2663,4277994,6872.09,816.66,1915.0200000000004
140,0.140000,2664,4278994,4908.09,839.66,1405.0200000000004
141,0.141000,2665,4279994,2729.09,134.66,1285.0200000000004
142,0.142000,2666,4280994,1122.09,-24.34,-443.97999999999956
143,0.143000,2667,4281994,281.09000000000003,25.66,-1669.9799999999996
144,0.144000,2668,4282994,740.09,-632.34,-1478.9799999999996
145,0.145000,2669,4283994,1974.09,-776.34,-2250.9799999999996
146,0.146000,2670,4284994,302.09000000000003,-327.34,-2939.9799999999996
147,0.147000,2671,4285994,-1482.91,-254.34,-1996.9799999999996
148,0.147999,2672,4286993,-935.91,-507.34,-859.9799999999996
149,0.149000,2673,4287994,-1019.91,62.66,-273.97999999999956
150,0.150000,2674,4288994,-796.91,-26.34,1535.0200000000004
151,0.151000,2675,4289994,-735.91,359.66,2562.0200000000004
152,0.152000,2676,4290994,-1341.91,1362.66,2547.0200000000004
153,0.153000,2677,4291994,-421.90999999999997,1137.66,3100.0200000000004
154,0.154000,2678,4292994,-4213.91,805.66,3198.0200000000004
155,0.155000,2679,4293994,-7240.91,121.66,2965.0200000000004
156,0.155999,2680,4294993,-7831.91,187.66,917.0200000000004
157,0.157000,2681,4295994,-8534.91,518.66,-1253.9799999999996
158,0.158000,2682,4296994,-1066.91,155.66,-1459.9799999999996
159,0.159000,2683,4297994,8928.09,-270.34,-1655.9799999999996
160,0.160000,2684,4298994,11980.09,-313.34,-1408.9799999999996
161,0.161000,2685,4299994,6048.09,40.66,-739.9799999999996
162,0.161999,2686,4300993,-870.91,75.66,-563.9799999999996
163,0.163000,2687,4301994,-4773.91,-357.34,-167.97999999999956
164,0.164000,2688,4302994,-3881.91,-756.34,-713.9799999999996
165,0.165000,2689,4303994,1600.09,-675.34,-1460.9799999999996
166,0.166000,2690,4304994,3180.09,-444.34,-1353.9799999999996
167,0.166999,2691,4305993,2170.09,-507.34,-1782.9799999999996
168,0.168000,2692,4306994,-1717.91,-52.34,-2559.9799999999996
169,0.168999,2693,4307993,-4055.91,35.66,-1125.9799999999996
170,0.170000,2694,4308994,-2318.91,-435.34,1651.0200000000004
171,0.171000,2695,4309994,-350.90999999999997,-277.34,2442.0200000000004
172,0.172000,2696,4310994,2585.09,314.66,2236.0200000000004
173,0.173000,2697,4311994,4710.09,712.66,2369.0200000000004
174,0.174000,2698,4312994,6611.09,684.66,1814.0200000000004
175,0.175000,2699,4313994,5765.09,527.66,1368.0200000000004
176,0.176000,2700,4314994,1715.09,130.66,482.02000000000044
177,0.177000,2701,4315994,-175.91,1.66,-1095.9799999999996
178,0.178000,2702,4316994,-6.909999999999997,-223.34,-1612.9799999999996
179,0.179000,2703,4317994,1860.09,-784.34,-1675.9799999999996
180,0.180000,2704,4318994,1783.09,-363.34,-2678.9799999999996
181,0.181000,2705,4319994,-1333.91,-307.34,-2596.9799999999996
182,0.182000,2706,4320994,-777.91,-705.34,-1268.9799999999996
183,0.183000,2707,4321994,-1089.91,-71.34,-632.9799999999996
184,0.184000,2708,4322994,-813.91,172.66,397.02000000000044
185,0.185000,2709,4323994,-259.90999999999997,-133.34,1939.0200000000004
186,0.186000,2710,4324994,-1804.91,761.66,2460.0200000000004
187,0.187000,2711,4325994,-1462.91,1482.66,2728.0200000000004
188,0.188000,2712,4326994,-1407.91,911.66,3280.0200000000004
189,0.189000,2713,4327994,-2965.91,285.66,3141.0200000000004
190,0.190000,2714,4328994,-8544.91,429.66,2091.0200000000004
191,0.191000,2715,4329994,-11855.91,463.66,-259.97999999999956
192,0.192000,2716,4330994,-4240.91,-65.34,-1327.9799999999996
193,0.193000,2717,4331994,4890.09,294.66,-1320.9799999999996
194,0.194000,2718,4332994,10070.09,-164.34,-1586.9799999999996
195,0.195000,2719,4333994,10278.09,-535.34,-942.9799999999996
196,0.196000,2720,4334994,2622.09,123.66,-739.9799999999996
197,0.197000,2721,4335994,-3343.91,-65.34,-356.97999999999956
198,0.198000,2722,4336994,-5215.91,-430.34,-347.97999999999956
199,0.199000,2723,4337994,-953.91,-741.34,-1253.9799999999996
200,0.200000,2724,4338994,2974.09,-791.34,-1452.9799999999996
201,0.201000,2725,4339994,2568.09,-427.34,-1393.9799999999996
202,0.202000,2726,4340994,900.09,-282.34,-1961.9799999999996
203,0.202999,2727,4341993,-3411.91,-68.34,-2308.9799999999996
204,0.204000,2728,4342994,-3884.91,-66.34,27.020000000000437
205,0.205000,2729,4343994,-1463.91,-516.34,2411.0200000000004
206,0.206000,2730,4344994,786.09,-191.34,2427.0200000000004
207,0.207000,2731,4345994,4772.09,549.66,2290.0200000000004
208,0.208000,2732,4346994,6583.09,918.66,1877.0200000000004
209,0.209000,2733,4347994,5369.09,793.66,1432.0200000000004
210,0.210000,2734,4348994,3335.09,99.66,1251.0200000000004
211,0.211000,2735,4349994,1263.09,35.66,-290.97999999999956
212,0.212000,2736,4350994,-239.91,160.66,-1538.9799999999996
213,0.213000,2737,4351994,270.09000000000003,-580.34,-1483.9799999999996
214,0.214000,2738,4352994,1956.09,-709.34,-2118.9799999999996
215,0.215000,2739,4353994,806.09,-433.34,-2803.9799999999996
216,0.216000,2740,4354994,-1204.91,-377.34,-2009.9799999999996
217,0.217000,2741,4355994,-1143.91,-265.34,-1020.9799999999996
218,0.218000,2742,4356994,-921.91,-0.3400000000000001,-335.97999999999956
219,0.218999,2743,4357993,-774.91,-101.34,1416.0200000000004
220,0.220000,2744,4358994,-531.91,184.66,2362.0200000000004
221,0.221000,2745,4359994,-1139.91,1234.66,2540.0200000000004
222,0.222000,2746,4360994,-943.91,1355.66,3020.0200000000004
223,0.223000,2747,4361994,-3459.91,630.66,3293.0200000000004
224,0.224000,2748,4362994,-6893.91,254.66,3011.0200000000004
225,0.225000,2749,4363994,-8030.91,202.66,1102.0200000000004
226,0.226000,2750,4364994,-8947.91,375.66,-1135.9799999999996
227,0.226999,2751,4365993,-2049.91,531.66,-1523.9799999999996
228,0.228000,2752,4366994,8725.09,-229.34,-1452.9799999999996
229,0.229000,2753,4367994,11953.09,-555.34,-1443.9799999999996
230,0.230000,2754,4368994,6943.09,81.66,-648.9799999999996
231,0.231000,2755,4369994,-764.91,146.66,-511.97999999999956
232,0.232000,2756,4370994,-4556.91,-363.34,-171.97999999999956
233,0.233000,2757,4371994,-4312.91,-590.34,-672.9799999999996
234,0.234000,2758,4372994,1151.09,-832.34,-1447.9799999999996
235,0.235000,2759,4373994,3500.09,-559.34,-1385.9799999999996
236,0.236000,2760,4374994,2138.09,-445.34,-1800.9799999999996
237,0.237000,2761,4375994,-1490.91,-130.34,-2548.9799999999996
238,0.238000,2762,4376994,-4327.91,107.66,-1438.9799999999996
239,0.239000,2763,4377994,-2376.91,-402.34,1397.0200000000004
240,0.240000,2764,4378994,-276.90999999999997,-365.34,2455.0200000000004
241,0.241000,2765,4379994,2618.09,281.66,2411.0200000000004
242,0.242000,2766,4380994,5187.09,698.66,2488.0200000000004
243,0.243000,2767,4381994,6720.09,742.66,1800.0200000000004
244,0.244000,2768,4382994,5422.09,528.66,1407.0200000000004
245,0.244999,2769,4383993,1364.09,71.66,701.0200000000004
246,0.246000,2770,4384994,-370.90999999999997,135.66,-1074.9799999999996
247,0.247000,2771,4385994,143.09,-277.34,-1707.9799999999996
248,0.248000,2772,4386994,1663.09,-832.34,-1672.9799999999996
249,0.249000,2773,4387994,1832.09,-324.34,-2626.9799999999996
250,0.250000,2774,4388994,-752.91,-419.34,-2583.9799999999996
251,0.251000,2775,4389994,-777.91,-556.34,-1272.9799999999996
252,0.252000,2776,4390994,-1207.91,14.66,-624.9799999999996
253,0.253000,2777,4391994,-661.91,-51.34,344.02000000000044
254,0.254000,2778,4392994,-746.91,-57.34,1822.0200000000004
255,0.255000,2779,4393994,-1736.91,790.66,2438.0200000000004
256,0.256000,2780,4394994,-957.91,1429.66,2654.0200000000004
257,0.257000,2781,4395994,-1087.91,1013.66,3156.0200000000004
258,0.258000,2782,4396994,-3203.91,325.66,3253.0200000000004
259,0.259000,2783,4397994,-8540.91,275.66,2202.0200000000004
260,0.260000,2784,4398994,-11319.91,447.66,-44.97999999999956
261,0.261000,2785,4399994,-5508.91,126.66,-1399.9799999999996
262,0.262000,2786,4400994,3987.09,163.66,-1383.9799999999996
263,0.263000,2787,4401994,10283.09,-197.34,-1452.9799999999996
264,0.264000,2788,4402994,10774.09,-484.34,-995.9799999999996
265,0.265000,2789,4403994,3251.09,186.66,-727.9799999999996
266,0.265999,2790,4404993,-3231.91,-29.34,-363.97999999999956
267,0.267000,2791,4405994,-5191.91,-489.34,-89.97999999999956
268,0.268000,2792,4406994,-1673.91,-604.34,-1242.9799999999996
269,0.269000,2793,4407994,2756.09,-685.34,-1608.9799999999996
270,0.270000,2794,4408994,2960.09,-536.34,-1312.9799999999996
271,0.271000,2795,4409994,1564.09,-409.34,-2033.9799999999996
272,0.272000,2796,4410994,-3165.91,5.66,-2490.9799999999996
273,0.273000,2797,4411994,-4304.91,-35.34,-184.97999999999956
274,0.274000,2798,4412994,-1531.91,-580.34,2357.0200000000004
275,0.275000,2799,4413994,888.09,-202.34,2335.0200000000004
276,0.276000,2800,4414994,4794.09,618.66,2362.0200000000004
277,0.276999,2801,4415993,6410.09,766.66,2149.0200000000004
278,0.278000,2802,4416994,4962.09,750.66,1461.0200000000004
279,0.279000,2803,4417994,3195.09,258.66,1401.0200000000004
280,0.280000,2804,4418994,1162.09,-7.34,-91.97999999999956
281,0.281000,2805,4419994,-415.90999999999997,170.66,-1622.9799999999996
282,0.282000,2806,4420994,499.09000000000003,-615.34,-1401.9799999999996
283,0.283000,2807,4421994,2318.09,-839.34,-1887.9799999999996
284,0.284000,2808,4422994,1254.09,-231.34,-2823.9799999999996
285,0.285000,2809,4423994,-1453.91,-312.34,-2109.9799999999996
286,0.286000,2810,4424994,-1277.91,-448.34,-945.9799999999996
287,0.287000,2811,4425994,-1079.91,54.66,-320.97999999999956
288,0.288000,2812,4426994,-784.91,-33.34,1111.0200000000004
289,0.289000,2813,4427994,-211.91,193.66,2269.0200000000004
290,0.290000,2814,4428994,-1168.91,1085.66,2524.0200000000004
291,0.291000,2815,4429994,-1201.91,1491.66,2847.0200000000004
292,0.292000,2816,4430994,-2784.91,628.66,3319.0200000000004
293,0.293000,2817,4431994,-6266.91,136.66,3061.0200000000004
294,0.294000,2818,4432994,-8629.91,377.66,1056.0200000000004
295,0.295000,2819,4433994,-9437.91,166.66,-985.9799999999996
296,0.296000,2820,4434994,-2603.91,401.66,-1359.9799999999996
297,0.297000,2821,4435994,8221.09,-92.34,-1430.9799999999996
298,0.297999,2822,4436993,11975.09,-515.34,-1337.9799999999996
299,0.299000,2823,4437994,7740.09,14.66,-700.9799999999996
300,0.300000,2824,4438994,-110.91,161.66,-572.9799999999996
301,0.301000,2825,4439994,-4874.91,-324.34,-377.97999999999956
302,0.302000,2826,4440994,-4676.91,-531.34,-595.9799999999996
303,0.303000,2827,4441994,1035.09,-817.34,-1314.9799999999996
304,0.304000,2828,4442994,3664.09,-613.34,-1444.9799999999996
305,0.304999,2829,4443993,2318.09,-426.34,-1600.9799999999996
306,0.306000,2830,4444994,-1026.91,-218.34,-2420.9799999999996
307,0.307000,2831,4445994,-4327.91,190.66,-1630.9799999999996
308,0.307999,2832,4446993,-2714.91,-425.34,1202.0200000000004
309,0.309000,2833,4447994,-431.90999999999997,-532.34,2498.0200000000004
310,0.310000,2834,4448994,2214.09,320.66,2312.0200000000004
311,0.311000,2835,4449994,5143.09,692.66,2406.0200000000004
312,0.312000,2836,4450994,6831.09,791.66,1787.0200000000004
313,0.312999,2837,4451993,4894.09,649.66,1387.0200000000004
314,0.314000,2838,4452994,1296.09,155.66,886.0200000000004
315,0.315000,2839,4453994,241.09,31.66,-862.9799999999996
316,0.315999,2840,4454993,450.09000000000003,-201.34,-1659.9799999999996
317,0.317000,2841,4455994,2073.09,-705.34,-1428.9799999999996
318,0.318000,2842,4456994,1906.09,-321.34,-2518.9799999999996
319,0.319000,2843,4457994,-440.90999999999997,-340.34,-2785.9799999999996
320,0.320000,2844,4458994,-1140.91,-602.34,-1353.9799999999996
321,0.321000,2845,4459994,-1241.91,-151.34,-635.9799999999996
322,0.322000,2846,4460994,-862.91,109.66,42.02000000000044
323,0.323000,2847,4461994,-1172.91,-214.34,1784.0200000000004
324,0.324000,2848,4462994,-1625.91,608.66,2538.0200000000004
325,0.325000,2849,4463994,-1135.91,1545.66,2571.0200000000004
326,0.326000,2850,4464994,-603.91,871.66,3124.0200000000004
327,0.327000,2851,4465994,-3829.91,561.66,3193.0200000000004
328,0.328000,2852,4466994,-8333.91,197.66,2374.0200000000004
329,0.329000,2853,4467994,-10461.91,317.66,220.02000000000044
330,0.330000,2854,4468994,-6264.91,460.66,-1284.9799999999996
331,0.331000,2855,4469994,3780.09,70.66,-1281.9799999999996
332,0.332000,2856,4470994,10440.09,-82.34,-1380.9799999999996
333,0.333000,2857,4471994,11225.09,-339.34,-939.9799999999996
334,0.334000,2858,4472994,4127.09,-80.34,-733.9799999999996
335,0.335000,2859,4473994,-3169.91,137.66,-608.9799999999996
336,0.336000,2860,4474994,-5674.91,-465.34,-172.97999999999956
337,0.337000,2861,4475994,-2328.91,-749.34,-1340.9799999999996
338,0.337999,2862,4476993,2568.09,-687.34,-1653.9799999999996
339,0.338999,2863,4477993,3147.09,-707.34,-1197.9799999999996
340,0.340000,2864,4478994,1420.09,-435.34,-2056.9799999999996
341,0.341000,2865,4479994,-3254.91,144.66,-2513.9799999999996
342,0.342000,2866,4480994,-4116.91,-166.34,-254.97999999999956
343,0.342999,2867,4481993,-1430.91,-520.34,2314.0200000000004
344,0.344000,2868,4482994,1182.09,-144.34,2499.0200000000004
345,0.345000,2869,4483994,4238.09,569.66,2347.0200000000004
346,0.346000,2870,4484994,5479.09,952.66,2097.0200000000004
347,0.347000,2871,4485994,5457.09,802.66,1648.0200000000004
348,0.348000,2872,4486994,3861.09,242.66,1498.0200000000004
349,0.349000,2873,4487994,1617.09,-94.34,14.020000000000437
350,0.350000,2874,4488994,-239.91,168.66,-1615.9799999999996
351,0.351000,2875,4489994,364.09000000000003,-493.34,-1531.9799999999996
352,0.352000,2876,4490994,2058.09,-822.34,-2056.9799999999996
353,0.353000,2877,4491994,1427.09,-385.34,-3088.9799999999996
354,0.354000,2878,4492994,-1232.91,-390.34,-2230.9799999999996
355,0.355000,2879,4493994,-895.91,-425.34,-961.9799999999996
356,0.356000,2880,4494994,-1520.91,66.66,-495.97999999999956
357,0.357000,2881,4495994,-1511.91,-21.34,1002.0200000000004
358,0.358000,2882,4496994,-389.90999999999997,72.66,2414.0200000000004
359,0.358999,2883,4497993,-1283.91,1212.66,2529.0200000000004
360,0.359999,2884,4498993,-1022.91,1429.66,2905.0200000000004
361,0.361000,2885,4499994,-1878.91,551.66,3566.0200000000004
362,0.361999,2886,4500993,-5552.91,384.66,3132.0200000000004
363,0.363000,2887,4501994,-9277.91,352.66,1140.0200000000004
364,0.363999,2888,4502993,-10239.91,250.66,-908.9799999999996
365,0.365000,2889,4503994,-2867.91,397.66,-1289.9799999999996
366,0.366000,2890,4504994,8397.09,-99.34,-1589.9799999999996
367,0.367000,2891,4505994,12093.09,-430.34,-1563.9799999999996
368,0.368000,2892,4506994,8689.09,-141.34,-631.9799999999996
369,0.369000,2893,4507994,211.09,116.66,-697.9799999999996
370,0.370000,2894,4508994,-5125.91,-235.34,-342.97999999999956
371,0.371000,2895,4509994,-4941.91,-592.34,-616.9799999999996
372,0.372000,2896,4510994,532.09,-796.34,-1421.9799999999996
373,0.373000,2897,4511994,3575.09,-608.34,-1512.9799999999996
374,0.373999,2898,4512993,2500.09,-503.34,-1662.9799999999996
375,0.375000,2899,4513994,-1046.91,-173.34,-2315.9799999999996
376,0.376000,2900,4514994,-4180.91,63.66,-1687.9799999999996
377,0.377000,2901,4515994,-2918.91,-275.34,961.0200000000004
378,0.378000,2902,4516994,-683.91,-371.34,2554.0200000000004
379,0.379000,2903,4517994,2320.09,50.66,2577.0200000000004
380,0.380000,2904,4518994,5220.09,665.66,2550.0200000000004
381,0.381000,2905,4519994,6635.09,945.66,1836.0200000000004
382,0.382000,2906,4520994,5044.09,702.66,1352.0200000000004
383,0.382999,2907,4521993,1779.09,114.66,1006.0200000000004
384,0.384000,2908,4522994,456.09000000000003,0.6599999999999999,-867.9799999999996
385,0.385000,2909,4523994,521.09,-170.34,-1781.9799999999996
386,0.386000,2910,4524994,1512.09,-719.34,-1598.9799999999996
387,0.387000,2911,4525994,1973.09,-521.34,-2604.9799999999996
388,0.388000,2912,4526994,-270.90999999999997,-320.34,-2939.9799999999996
389,0.389000,2913,4527994,-1217.91,-520.34,-1546.9799999999996
390,0.390000,2914,4528994,-1223.91,-263.34,-586.9799999999996
391,0.390999,2915,4529993,-1182.91,133.66,91.02000000000044
392,0.392000,2916,4530994,-1448.91,-144.34,1697.0200000000004
393,0.393000,2917,4531994,-1584.91,623.66,2454.0200000000004
394,0.393999,2918,4532993,-863.91,1539.66,2686.0200000000004
395,0.395000,2919,4533994,-237.91,1022.66,3229.0200000000004
396,0.395999,2920,4534993,-3661.91,460.66,3351.0200000000004
397,0.397000,2921,4535994,-8537.91,232.66,2584.0200000000004
398,0.398000,2922,4536994,-10339.91,428.66,382.02000000000044
399,0.399000,2923,4537994,-6717.91,277.66,-1276.9799999999996
400,0.400000,2924,4538994,3022.09,191.66,-1561.9799999999996
401,0.401000,2925,4539994,10838.09,-201.34,-1531.9799999999996
402,0.402000,2926,4540994,11526.09,-426.34,-1065.9799999999996
403,0.403000,2927,4541994,4309.09,103.66,-862.9799999999996
404,0.404000,2928,4542994,-2996.91,72.66,-786.9799999999996
405,0.405000,2929,4543994,-5742.91,-532.34,-196.97999999999956
406,0.406000,2930,4544994,-2782.91,-712.34,-1046.9799999999996
407,0.407000,2931,4545994,2584.09,-692.34,-1590.9799999999996
408,0.407999,2932,4546993,3337.09,-599.34,-1241.9799999999996
409,0.409000,2933,4547994,1785.09,-476.34,-1887.9799999999996
410,0.409999,2934,4548993,-2884.91,42.66,-2476.9799999999996
411,0.411000,2935,4549994,-4438.91,16.66,-460.97999999999956
412,0.412000,2936,4550994,-1607.91,-521.34,2249.0200000000004
413,0.413000,2937,4551994,931.09,-223.34,2565.0200000000004
414,0.414000,2938,4552994,3931.09,554.66,2502.0200000000004
415,0.415000,2939,4553994,4955.09,896.66,2163.0200000000004
416,0.416000,2940,4554994,5283.09,812.66,1482.0200000000004
417,0.416999,2941,4555993,4276.09,312.66,1510.0200000000004
418,0.418000,2942,4556994,1979.09,-102.34,98.02000000000044
419,0.419000,2943,4557994,298.09000000000003,159.66,-1685.9799999999996
420,0.420000,2944,4558994,636.09,-472.34,-1562.9799999999996
421,0.421000,2945,4559994,2140.09,-807.34,-1957.9799999999996
422,0.422000,2946,4560994,1370.09,-290.34,-3028.9799999999996
423,0.423000,2947,4561994,-1546.91,-473.34,-2286.9799999999996
424,0.423999,2948,4562993,-785.91,-576.34,-884.9799999999996
425,0.425000,2949,4563994,-1431.91,192.66,-592.9799999999996
426,0.426000,2950,4564994,-1399.91,-111.34,886.0200000000004
427,0.426999,2951,4565993,-785.91,18.66,2308.0200000000004
428,0.428000,2952,4566994,-1731.91,1218.66,2437.0200000000004
429,0.429000,2953,4567994,-965.91,1398.66,2869.0200000000004
430,0.430000,2954,4568994,-1689.91,619.66,3534.0200000000004
431,0.431000,2955,4569994,-4900.91,427.66,3407.0200000000004
432,0.432000,2956,4570994,-9191.91,422.66,1467.0200000000004
433,0.433000,2957,4571994,-10497.91,141.66,-637.9799999999996
434,0.434000,2958,4572994,-3200.91,418.66,-1269.9799999999996
435,0.435000,2959,4573994,7899.09,-11.34,-1596.9799999999996
436,0.436000,2960,4574994,11886.09,-367.34,-1652.9799999999996
437,0.437000,2961,4575994,9302.09,-216.34,-893.9799999999996
438,0.438000,2962,4576994,749.09,126.66,-956.9799999999996
439,0.439000,2963,4577994,-4964.91,-231.34,-478.97999999999956
440,0.440000,2964,4578994,-5221.91,-590.34,-616.9799999999996
441,0.441000,2965,4579994,17.090000000000003,-635.34,-1440.9799999999996
442,0.442000,2966,4580994,3636.09,-774.34,-1267.9799999999996
443,0.443000,2967,4581994,2231.09,-566.34,-1494.9799999999996
444,0.444000,2968,4582994,-739.91,-167.34,-2247.9799999999996
445,0.445000,2969,4583994,-3826.91,88.66,-1712.9799999999996
446,0.446000,2970,4584994,-2882.91,-245.34,902.0200000000004
447,0.447000,2971,4585994,-517.91,-407.34,2507.0200000000004
448,0.448000,2972,4586994,1751.09,70.66,2538.0200000000004
449,0.449000,2973,4587994,5164.09,578.66,2693.0200000000004
450,0.449999,2974,4588993,6175.09,928.66,1782.0200000000004
451,0.451000,2975,4589994,4500.09,756.66,1256.0200000000004
452,0.452000,2976,4590994,2349.09,31.66,1164.0200000000004
453,0.453000,2977,4591994,1052.09,-48.34,-797.9799999999996
454,0.454000,2978,4592994,789.09,-64.34,-1986.9799999999996
455,0.455000,2979,4593994,1282.09,-654.34,-1672.9799999999996
456,0.456000,2980,4594994,1847.09,-613.34,-2471.9799999999996
457,0.457000,2981,4595994,-172.91,-368.34,-2917.9799999999996
458,0.458000,2982,4596994,-1019.91,-428.34,-1659.9799999999996
459,0.459000,2983,4597994,-966.91,-349.34,-620.9799999999996
460,0.460000,2984,4598994,-1179.91,63.66,29.020000000000437
461,0.461000,2985,4599994,-1674.91,-62.34,1726.0200000000004
462,0.462000,2986,4600994,-1666.91,579.66,2489.0200000000004
463,0.463000,2987,4601994,-1109.91,1354.66,2482.0200000000004
464,0.464000,2988,4602994,-42.91,941.66,3267.0200000000004
465,0.465000,2989,4603994,-3822.91,626.66,3389.0200000000004
466,0.466000,2990,4604994,-8024.91,163.66,2636.0200000000004
467,0.467000,2991,4605994,-9274.91,294.66,558.0200000000004
468,0.468000,2992,4606994,-7601.91,487.66,-1214.9799999999996
469,0.469000,2993,4607994,1615.09,247.66,-1482.9799999999996
470,0.470000,2994,4608994,10366.09,-205.34,-1586.9799999999996
471,0.470999,2995,4609993,12085.09,-373.34,-1095.9799999999996
472,0.471999,2996,4610993,5214.09,-44.34,-782.9799999999996
473,0.473000,2997,4611994,-2363.91,2.66,-857.9799999999996
474,0.474000,2998,4612994,-5626.91,-503.34,-366.97999999999956
475,0.475000,2999,4613994,-3492.91,-756.34,-1000.9799999999996
476,0.476000,3000,4614994,2036.09,-702.34,-1561.9799999999996
477,0.477000,3001,4615994,3328.09,-639.34,-1326.9799999999996
478,0.478000,3002,4616994,1731.09,-472.34,-1896.9799999999996
479,0.479000,3003,4617994,-2663.91,33.66,-2365.9799999999996
480,0.480000,3004,4618994,-4405.91,51.66,-469.97999999999956
481,0.481000,3005,4619994,-1855.91,-435.34,2109.0200000000004
482,0.482000,3006,4620994,738.09,-256.34,2632.0200000000004
483,0.482999,3007,4621993,3615.09,559.66,2441.0200000000004
484,0.484000,3008,4622994,5086.09,905.66,2215.0200000000004
485,0.485000,3009,4623994,5942.09,751.66,1708.0200000000004
486,0.486000,3010,4624994,4692.09,336.66,1456.0200000000004
487,0.487000,3011,4625994,1903.09,-34.34,72.02000000000044
488,0.487999,3012,4626993,50.09,123.66,-1579.9799999999996
489,0.489000,3013,4627994,408.09000000000003,-458.34,-1609.9799999999996
490,0.490000,3014,4628994,1882.09,-791.34,-1979.9799999999996
491,0.490999,3015,4629993,1341.09,-389.34,-3014.9799999999996
492,0.492000,3016,4630994,-1525.91,-423.34,-2420.9799999999996
493,0.492999,3017,4631993,-648.91,-469.34,-1122.9799999999996
494,0.494000,3018,4632994,-1293.91,-38.34,-520.9799999999996
495,0.495000,3019,4633994,-1501.91,63.66,804.0200000000004
496,0.496000,3020,4634994,-425.90999999999997,47.66,2259.0200000000004
497,0.497000,3021,4635994,-1846.91,1041.66,2512.0200000000004
498,0.498000,3022,4636994,-1540.91,1485.66,2877.0200000000004
499,0.499000,3023,4637994,-958.91,680.66,3638.0200000000004
500,0.500000,3024,4638994,-3770.91,435.66,3346.0200000000004
501,0.501000,3025,4639994,-9237.91,404.66,1622.0200000000004
502,0.502000,3026,4640994,-11250.91,179.66,-602.9799999999996
503,0.503000,3027,4641994,-3678.91,338.66,-1197.9799999999996
504,0.504000,3028,4642994,7102.09,21.66,-1561.9799999999996
505,0.505000,3029,4643994,11404.09,-340.34,-1798.9799999999996
506,0.506000,3030,4644994,9556.09,-219.34,-912.9799999999996
507,0.507000,3031,4645994,1566.09,-46.34,-791.9799999999996
508,0.508000,3032,4646994,-4526.91,-108.34,-502.97999999999956
509,0.509000,3033,4647994,-5468.91,-467.34,-748.9799999999996
510,0.510000,3034,4648994,-317.90999999999997,-771.34,-1331.9799999999996
511,0.511000,3035,4649994,3313.09,-742.34,-1182.9799999999996
512,0.512000,3036,4650994,2615.09,-475.34,-1401.9799999999996
513,0.512999,3037,4651993,-383.90999999999997,-201.34,-2193.9799999999996
514,0.514000,3038,4652994,-3843.91,23.66,-1836.9799999999996
515,0.514999,3039,4653993,-3181.91,-118.34,700.0200000000004
516,0.516000,3040,4654994,-1027.91,-419.34,2559.0200000000004
517,0.517000,3041,4655994,1533.09,-1.34,2596.0200000000004
518,0.517999,3042,4656993,5119.09,603.66,2410.0200000000004
519,0.518999,3043,4657993,6495.09,964.66,1855.0200000000004
520,0.520000,3044,4658994,4678.09,778.66,1372.0200000000004
521,0.521000,3045,4659994,2569.09,86.66,1066.0200000000004
522,0.522000,3046,4660994,1566.09,-66.34,-558.9799999999996
523,0.523000,3047,4661994,629.09,-114.34,-1797.9799999999996
524,0.524000,3048,4662994,930.09,-637.34,-1700.9799999999996
525,0.525000,3049,4663994,1603.09,-601.34,-2421.9799999999996
526,0.526000,3050,4664994,-80.91,-369.34,-2883.9799999999996
527,0.527000,3051,4665994,-1331.91,-438.34,-1836.9799999999996
528,0.528000,3052,4666994,-835.91,-335.34,-814.9799999999996
529,0.529000,3053,4667994,-552.91,22.66,52.02000000000044
530,0.530000,3054,4668994,-1217.91,-50.34,1720.0200000000004
531,0.531000,3055,4669994,-1555.91,476.66,2481.0200000000004
532,0.532000,3056,4670994,-1416.91,1537.66,2619.0200000000004
533,0.533000,3057,4671994,-324.90999999999997,1145.66,3225.0200000000004
534,0.534000,3058,4672994,-3799.91,476.66,3369.0200000000004
535,0.535000,3059,4673994,-7725.91,257.66,2808.0200000000004
536,0.536000,3060,4674994,-8624.91,180.66,819.0200000000004
537,0.537000,3061,4675994,-8070.91,378.66,-1254.9799999999996
538,0.538000,3062,4676994,335.09000000000003,320.66,-1562.9799999999996
539,0.539000,3063,4677994,9993.09,-299.34,-1634.9799999999996
540,0.540000,3064,4678994,11931.09,-417.34,-1380.9799999999996
541,0.541000,3065,4679994,5808.09,117.66,-769.9799999999996
542,0.541999,3066,4680993,-1686.91,118.66,-749.9799999999996
543,0.543000,3067,4681994,-5117.91,-482.34,-115.97999999999956
544,0.544000,3068,4682994,-3634.91,-699.34,-872.9799999999996
545,0.545000,3069,4683994,1699.09,-711.34,-1466.9799999999996
546,0.546000,3070,4684994,3055.09,-559.34,-1155.9799999999996
547,0.547000,3071,4685994,1950.09,-529.34,-1857.9799999999996
548,0.548000,3072,4686994,-2171.91,-1.34,-2555.9799999999996
549,0.549000,3073,4687994,-4425.91,64.66,-873.9799999999996
550,0.550000,3074,4688994,-2139.91,-589.34,1959.0200000000004
551,0.551000,3075,4689994,108.09,-292.34,2409.0200000000004
552,0.552000,3076,4690994,3090.09,460.66,2342.0200000000004
553,0.553000,3077,4691994,4651.09,966.66,2320.0200000000004
554,0.554000,3078,4692994,6543.09,778.66,1821.0200000000004
555,0.555000,3079,4693994,5429.09,421.66,1471.0200000000004
556,0.556000,3080,4694994,1961.09,142.66,279.02000000000044
557,0.557000,3081,4695994,251.09,38.66,-1286.9799999999996
558,0.557999,3082,4696993,247.09,-406.34,-1678.9799999999996
559,0.558999,3083,4697993,1598.09,-879.34,-1962.9799999999996
560,0.560000,3084,4698994,1401.09,-451.34,-2911.9799999999996
561,0.560999,3085,4699993,-1568.91,-237.34,-2557.9799999999996
562,0.562000,3086,4700994,-589.91,-676.34,-1234.9799999999996
563,0.562999,3087,4701993,-1016.91,-92.34,-739.9799999999996
564,0.564000,3088,4702994,-1042.91,72.66,711.0200000000004
565,0.565000,3089,4703994,-249.91,-24.34,2206.0200000000004
566,0.566000,3090,4704994,-2161.91,960.66,2396.0200000000004
567,0.567000,3091,4705994,-1653.91,1320.66,3037.0200000000004
568,0.568000,3092,4706994,-1471.91,901.66,3520.0200000000004
569,0.569000,3093,4707994,-3297.91,350.66,3285.0200000000004
570,0.570000,3094,4708994,-8818.91,352.66,1896.0200000000004
571,0.571000,3095,4709994,-11494.91,366.66,-467.97999999999956
572,0.572000,3096,4710994,-3809.91,108.66,-1355.9799999999996
573,0.573000,3097,4711994,5978.09,49.66,-1539.9799999999996
574,0.574000,3098,4712994,10590.09,-173.34,-1783.9799999999996
575,0.575000,3099,4713994,9922.09,-335.34,-969.9799999999996
576,0.575999,3100,4714993,2219.09,41.66,-736.9799999999996
577,0.577000,3101,4715994,-3791.91,29.66,-456.97999999999956
578,0.577999,3102,4716993,-5052.91,-538.34,-369.97999999999956
579,0.579000,3103,4717994,-674.91,-714.34,-1132.9799999999996
580,0.580000,3104,4718994,3010.09,-621.34,-1377.9799999999996
581,0.581000,3105,4719994,2490.09,-592.34,-1530.9799999999996
582,0.582000,3106,4720994,377.09000000000003,-248.34,-2157.9799999999996
583,0.582999,3107,4721993,-3579.91,-8.34,-2102.9799999999996
584,0.584000,3108,4722994,-3641.91,-155.34,368.02000000000044
585,0.585000,3109,4723994,-1457.91,-407.34,2519.0200000000004
586,0.586000,3110,4724994,838.09,-113.34,2460.0200000000004
587,0.587000,3111,4725994,4876.09,577.66,2344.0200000000004
588,0.588000,3112,4726994,6635.09,972.66,2017.0200000000004
589,0.589000,3113,4727994,5137.09,770.66,1502.0200000000004
590,0.590000,3114,4728994,3139.09,143.66,1139.0200000000004
591,0.591000,3115,4729994,1544.09,-7.34,-436.97999999999956
592,0.591999,3116,4730993,307.09000000000003,47.66,-1635.9799999999996
593,0.593000,3117,4731994,604.09,-547.34,-1599.9799999999996
594,0.594000,3118,4732994,1618.09,-790.34,-2373.9799999999996
595,0.595000,3119,4733994,434.09000000000003,-372.34,-2907.9799999999996
596,0.596000,3120,4734994,-1364.91,-263.34,-1977.9799999999996
597,0.597000,3121,4735994,-1056.91,-448.34,-929.9799999999996
598,0.598000,3122,4736994,-810.91,-29.34,-246.97999999999956
599,0.599000,3123,4737994,-760.91,-41.34,1665.0200000000004
600,0.600000,3124,4738994,-700.91,343.66,2570.0200000000004
601,0.600999,3125,4739993,-1555.91,1273.66,2493.0200000000004
602,0.602000,3126,4740994,-663.91,1206.66,3190.0200000000004
603,0.603000,3127,4741994,-4109.91,810.66,3348.0200000000004
604,0.603999,3128,4742993,-7139.91,59.66,2990.0200000000004
605,0.605000,3129,4743994,-7882.91,218.66,836.0200000000004
606,0.606000,3130,4744994,-8536.91,570.66,-1157.9799999999996
607,0.607000,3131,4745994,-1184.91,170.66,-1370.9799999999996
608,0.608000,3132,4746994,8965.09,-265.34,-1683.9799999999996
609,0.609000,3133,4747994,12015.09,-397.34,-1388.9799999999996
610,0.609999,3134,4748993,6315.09,-41.34,-641.9799999999996
611,0.611000,3135,4749994,-514.91,127.66,-527.9799999999996
612,0.612000,3136,4750994,-4780.91,-333.34,-301.97999999999956
613,0.613000,3137,4751994,-4185.91,-701.34,-716.9799999999996
614,0.614000,3138,4752994,1255.09,-704.34,-1464.9799999999996
615,0.615000,3139,4753994,3115.09,-465.34,-1453.9799999999996
616,0.616000,3140,4754994,2174.09,-597.34,-1727.9799999999996
617,0.617000,3141,4755994,-1568.91,-197.34,-2494.9799999999996
618,0.618000,3142,4756994,-4040.91,155.66,-1240.9799999999996
619,0.618999,3143,4757993,-2504.91,-399.34,1679.0200000000004
620,0.620000,3144,4758994,-452.90999999999997,-408.34,2553.0200000000004
621,0.621000,3145,4759994,2647.09,391.66,2285.0200000000004
622,0.622000,3146,4760994,4856.09,795.66,2447.0200000000004
623,0.623000,3147,4761994,6791.09,693.66,1842.0200000000004
624,0.623999,3148,4762993,5431.09,541.66,1319.0200000000004
625,0.625000,3149,4763994,1699.09,60.66,510.02000000000044
626,0.626000,3150,4764994,24.090000000000003,69.66,-1093.9799999999996
627,0.627000,3151,4765994,147.09,-240.34,-1750.9799999999996
628,0.628000,3152,4766994,1886.09,-820.34,-1755.9799999999996
629,0.629000,3153,4767994,1631.09,-329.34,-2664.9799999999996
630,0.629999,3154,4768993,-1200.91,-294.34,-2612.9799999999996
631,0.631000,3155,4769994,-800.91,-648.34,-1386.9799999999996
632,0.632000,3156,4770994,-973.91,-17.34,-627.9799999999996
633,0.633000,3157,4771994,-673.91,123.66,589.0200000000004
634,0.634000,3158,4772994,-456.90999999999997,-179.34,2039.0200000000004
635,0.635000,3159,4773994,-2184.91,852.66,2427.0200000000004
636,0.636000,3160,4774994,-1650.91,1517.66,2793.0200000000004
637,0.636999,3161,4775993,-1101.91,800.66,3379.0200000000004
638,0.638000,3162,4776994,-3221.91,359.66,3163.0200000000004
639,0.639000,3163,4777994,-8738.91,454.66,1993.0200000000004
640,0.640000,3164,4778994,-11383.91,275.66,-148.97999999999956
641,0.641000,3165,4779994,-4672.91,180.66,-1244.9799999999996
642,0.642000,3166,4780994,4854.09,189.66,-1450.9799999999996
643,0.643000,3167,4781994,10311.09,-125.34,-1686.9799999999996
644,0.644000,3168,4782994,10589.09,-324.34,-882.9799999999996
645,0.645000,3169,4783994,3198.09,-99.34,-658.9799999999996
646,0.646000,3170,4784994,-3369.91,131.66,-517.9799999999996
647,0.647000,3171,4785994,-5561.91,-485.34,-260.97999999999956
648,0.648000,3172,4786994,-1239.91,-867.34,-1175.9799999999996
649,0.649000,3173,4787994,2845.09,-670.34,-1515.9799999999996
650,0.650000,3174,4788994,2714.09,-566.34,-1342.9799999999996
651,0.651000,3175,4789994,1166.09,-444.34,-2152.9799999999996
652,0.652000,3176,4790994,-3480.91,94.66,-2400.9799999999996
653,0.653000,3177,4791994,-4165.91,-80.34,143.02000000000044
654,0.654000,3178,4792994,-1808.91,-477.34,2320.0200000000004
655,0.655000,3179,4793994,1149.09,-16.34,2361.0200000000004
656,0.656000,3180,4794994,5155.09,515.66,2428.0200000000004
657,0.657000,3181,4795994,6711.09,838.66,2169.0200000000004
658,0.658000,3182,4796994,5247.09,844.66,1520.0200000000004
659,0.659000,3183,4797994,2900.09,148.66,1355.0200000000004
660,0.660000,3184,4798994,1113.09,-18.34,-136.97999999999956
661,0.661000,3185,4799994,-127.91,122.66,-1686.9799999999996
662,0.661999,3186,4800993,769.09,-689.34,-1577.9799999999996
663,0.662999,3187,4801993,2016.09,-767.34,-2173.9799999999996
664,0.664000,3188,4802994,581.09,-317.34,-3028.9799999999996
665,0.665000,3189,4803994,-1448.91,-435.34,-2129.9799999999996
666,0.666000,3190,4804994,-1275.91,-267.34,-906.9799999999996
667,0.667000,3191,4805994,-992.91,68.66,-251.97999999999956
668,0.668000,3192,4806994,-561.91,-185.34,1348.0200000000004
669,0.669000,3193,4807994,-498.90999999999997,281.66,2393.0200000000004
670,0.670000,3194,4808994,-1265.91,1342.66,2581.0200000000004
671,0.671000,3195,4809994,-972.91,1370.66,2958.0200000000004
672,0.672000,3196,4810994,-3275.91,569.66,3413.0200000000004
673,0.673000,3197,4811994,-6461.91,257.66,3122.0200000000004
674,0.674000,3198,4812994,-8141.91,232.66,1119.0200000000004
675,0.674999,3199,4813993,-9265.91,297.66,-1036.9799999999996
676,0.676000,3200,4814994,-2236.91,398.66,-1499.9799999999996
677,0.677000,3201,4815994,8624.09,-202.34,-1560.9799999999996
678,0.678000,3202,4816994,11988.09,-557.34,-1426.9799999999996
679,0.679000,3203,4817994,7445.09,40.66,-675.9799999999996
680,0.680000,3204,4818994,-648.91,242.66,-676.9799999999996
681,0.681000,3205,4819994,-4750.91,-449.34,-209.97999999999956
682,0.682000,3206,4820994,-4334.91,-607.34,-723.9799999999996
683,0.683000,3207,4821994,1096.09,-683.34,-1519.9799999999996
684,0.684000,3208,4822994,3661.09,-559.34,-1327.9799999999996
685,0.685000,3209,4823994,2514.09,-530.34,-1654.9799999999996
686,0.686000,3210,4824994,-1355.91,-129.34,-2450.9799999999996
687,0.687000,3211,4825994,-4358.91,125.66,-1367.9799999999996
688,0.688000,3212,4826994,-2671.91,-419.34,1466.0200000000004
689,0.689000,3213,4827994,-735.91,-298.34,2397.0200000000004
690,0.690000,3214,4828994,2414.09,250.66,2384.0200000000004
691,0.690999,3215,4829993,5087.09,579.66,2511.0200000000004
692,0.692000,3216,4830994,6697.09,797.66,1691.0200000000004
693,0.692999,3217,4831993,5437.09,591.66,1334.0200000000004
694,0.694000,3218,4832994,1364.09,44.66,660.0200000000004
695,0.695000,3219,4833994,-48.91,70.66,-1069.9799999999996
696,0.696000,3220,4834994,570.09,-239.34,-1613.9799999999996
697,0.697000,3221,4835994,2053.09,-743.34,-1517.9799999999996
698,0.698000,3222,4836994,2023.09,-406.34,-2613.9799999999996
699,0.699000,3223,4837994,-985.91,-278.34,-2727.9799999999996
700,0.700000,3224,4838994,-994.91,-612.34,-1257.9799999999996
701,0.701000,3225,4839994,-1367.91,-68.34,-787.9799999999996
702,0.702000,3226,4840994,-860.91,52.66,197.02000000000044
703,0.703000,3227,4841994,-606.91,-184.34,1979.0200000000004
704,0.704000,3228,4842994,-1799.91,750.66,2468.0200000000004
705,0.704999,3229,4843993,-1355.91,1326.66,2646.0200000000004
706,0.706000,3230,4844994,-1156.91,893.66,3284.0200000000004
707,0.707000,3231,4845994,-3573.91,458.66,3246.0200000000004
708,0.708000,3232,4846994,-8521.91,256.66,2241.0200000000004
709,0.709000,3233,4847994,-11139.91,438.66,51.02000000000044
710,0.710000,3234,4848994,-5327.91,282.66,-1393.9799999999996
711,0.711000,3235,4849994,4301.09,85.66,-1424.9799999999996
712,0.712000,3236,4850994,10412.09,76.66,-1420.9799999999996
713,0.713000,3237,4851994,11225.09,-476.34,-790.9799999999996
714,0.713999,3238,4852993,3633.09,-33.34,-675.9799999999996
715,0.715000,3239,4853994,-3298.91,149.66,-561.9799999999996
716,0.716000,3240,4854994,-5446.91,-606.34,-251.97999999999956
717,0.717000,3241,4855994,-2037.91,-681.34,-1290.9799999999996
718,0.718000,3242,4856994,2531.09,-749.34,-1623.9799999999996
719,0.719000,3243,4857994,2976.09,-694.34,-1415.9799999999996
720,0.720000,3244,4858994,1389.09,-360.34,-2134.9799999999996
721,0.721000,3245,4859994,-3301.91,14.66,-2330.9799999999996
722,0.721999,3246,4860993,-4347.91,-27.34,-140.97999999999956
723,0.723000,3247,4861994,-1641.91,-397.34,2343.0200000000004
724,0.724000,3248,4862994,1241.09,-248.34,2592.0200000000004
725,0.725000,3249,4863994,4876.09,604.66,2462.0200000000004
726,0.726000,3250,4864994,6261.09,961.66,2160.0200000000004
727,0.727000,3251,4865994,5337.09,844.66,1541.0200000000004
728,0.728000,3252,4866994,3171.09,254.66,1384.0200000000004
729,0.729000,3253,4867994,1293.09,-134.34,-88.97999999999956
730,0.730000,3254,4868994,-327.90999999999997,197.66,-1659.9799999999996
731,0.731000,3255,4869994,519.09,-548.34,-1424.9799999999996
732,0.732000,3256,4870994,2242.09,-907.34,-2037.9799999999996
733,0.733000,3257,4871994,1057.09,-287.34,-3158.9799999999996
734,0.733999,3258,4872993,-1376.91,-424.34,-2143.9799999999996
735,0.735000,3259,4873994,-1157.91,-488.34,-882.9799999999996
736,0.736000,3260,4874994,-1321.91,206.66,-477.97999999999956
737,0.737000,3261,4875994,-803.91,-217.34,1210.0200000000004
738,0.738000,3262,4876994,-396.90999999999997,142.66,2361.0200000000004
739,0.739000,3263,4877994,-1332.91,1357.66,2552.0200000000004
740,0.739999,3264,4878993,-905.91,1359.66,2935.0200000000004
741,0.741000,3265,4879994,-2727.91,703.66,3342.0200000000004
742,0.742000,3266,4880994,-6157.91,290.66,3161.0200000000004
743,0.743000,3267,4881994,-8514.91,174.66,1192.0200000000004
744,0.744000,3268,4882994,-9710.91,312.66,-1026.9799999999996
745,0.745000,3269,4883994,-2712.91,523.66,-1341.9799999999996
746,0.746000,3270,4884994,8560.09,-233.34,-1437.9799999999996
747,0.747000,3271,4885994,12195.09,-433.34,-1489.9799999999996
748,0.747999,3272,4886993,8100.09,-148.34,-636.9799999999996
749,0.748999,3273,4887993,-457.90999999999997,82.66,-670.9799999999996
750,0.750000,3274,4888994,-5187.91,-224.34,-340.97999999999956
751,0.750999,3275,4889993,-5054.91,-654.34,-810.9799999999996
752,0.752000,3276,4890994,701.09,-740.34,-1570.9799999999996
753,0.753000,3277,4891994,3799.09,-659.34,-1384.9799999999996
754,0.754000,3278,4892994,2878.09,-545.34,-1617.9799999999996
755,0.755000,3279,4893994,-731.91,-59.34,-2393.9799999999996
756,0.756000,3280,4894994,-3990.91,89.66,-1536.9799999999996
757,0.757000,3281,4895994,-2475.91,-417.34,1248.0200000000004
758,0.758000,3282,4896994,-920.91,-350.34,2566.0200000000004
759,0.758999,3283,4897993,1914.09,263.66,2449.0200000000004
760,0.760000,3284,4898994,4874.09,753.66,2420.0200000000004
761,0.761000,3285,4899994,6566.09,776.66,1787.0200000000004
762,0.762000,3286,4900994,5156.09,547.66,1366.0200000000004
763,0.763000,3287,4901994,1559.09,120.66,873.0200000000004
764,0.764000,3288,4902994,381.09000000000003,14.66,-880.9799999999996
765,0.765000,3289,4903994,295.09000000000003,-188.34,-1815.9799999999996
766,0.766000,3290,4904994,1766.09,-671.34,-1629.9799999999996
767,0.767000,3291,4905994,2306.09,-460.34,-2472.9799999999996
768,0.768000,3292,4906994,-360.90999999999997,-260.34,-2797.9799999999996
769,0.768999,3293,4907993,-1074.91,-531.34,-1456.9799999999996
770,0.770000,3294,4908994,-1277.91,-252.34,-645.9799999999996
771,0.771000,3295,4909994,-1141.91,200.66,92.02000000000044
772,0.771999,3296,4910993,-1148.91,-185.34,1847.0200000000004
773,0.772999,3297,4911993,-1777.91,727.66,2470.0200000000004
774,0.774000,3298,4912994,-1138.91,1510.66,2572.0200000000004
775,0.775000,3299,4913994,-606.91,809.66,3227.0200000000004
776,0.776000,3300,4914994,-3707.91,466.66,3214.0200000000004
777,0.777000,3301,4915994,-8270.91,90.66,2283.0200000000004
778,0.778000,3302,4916994,-10906.91,464.66,45.02000000000044
779,0.779000,3303,4917994,-6205.91,330.66,-1193.9799999999996
780,0.780000,3304,4918994,4029.09,96.66,-1337.9799999999996
781,0.781000,3305,4919994,10827.09,-71.34,-1484.9799999999996
782,0.782000,3306,4920994,11450.09,-481.34,-809.9799999999996
783,0.783000,3307,4921994,3839.09,55.66,-811.9799999999996
784,0.783999,3308,4922993,-3459.91,127.66,-740.9799999999996
785,0.785000,3309,4923994,-5809.91,-612.34,-330.97999999999956
786,0.786000,3310,4924994,-2513.91,-631.34,-1300.9799999999996
787,0.787000,3311,4925994,2783.09,-668.34,-1498.9799999999996
788,0.788000,3312,4926994,3401.09,-809.34,-1267.9799999999996
789,0.789000,3313,4927994,1553.09,-403.34,-2042.9799999999996
790,0.789999,3314,4928993,-3158.91,51.66,-2301.9799999999996
791,0.791000,3315,4929994,-4610.91,-113.34,-204.97999999999956
792,0.792000,3316,4930994,-1879.91,-420.34,2161.0200000000004
793,0.793000,3317,4931994,1145.09,-208.34,2497.0200000000004
794,0.794000,3318,4932994,4826.09,461.66,2570.0200000000004
795,0.794999,3319,4933993,5844.09,1001.66,2086.0200000000004
796,0.796000,3320,4934994,5440.09,853.66,1542.0200000000004
797,0.797000,3321,4935994,3485.09,260.66,1543.0200000000004
798,0.798000,3322,4936994,1313.09,-44.34,-96.97999999999956
799,0.799000,3323,4937994,-81.91,149.66,-1684.9799999999996
800,0.800000,3324,4938994,655.09,-470.34,-1479.9799999999996
801,0.800999,3325,4939993,2596.09,-846.34,-2042.9799999999996
802,0.802000,3326,4940994,1342.09,-271.34,-3076.9799999999996
803,0.803000,3327,4941994,-1542.91,-504.34,-2101.9799999999996
804,0.804000,3328,4942994,-1101.91,-550.34,-899.9799999999996
805,0.805000,3329,4943994,-1710.91,322.66,-600.9799999999996
806,0.806000,3330,4944994,-1462.91,-191.34,1150.0200000000004
807,0.807000,3331,4945994,-544.91,55.66,2372.0200000000004
808,0.808000,3332,4946994,-1486.91,1220.66,2487.0200000000004
809,0.809000,3333,4947994,-1049.91,1375.66,2928.0200000000004
810,0.810000,3334,4948994,-2432.91,768.66,3405.0200000000004
811,0.811000,3335,4949994,-5610.91,311.66,3220.0200000000004
812,0.812000,3336,4950994,-8727.91,337.66,1200.0200000000004
813,0.813000,3337,4951994,-9487.91,236.66,-801.9799999999996
814,0.813999,3338,4952993,-2455.91,463.66,-1310.9799999999996
815,0.815000,3339,4953994,8385.09,-11.34,-1498.9799999999996
816,0.816000,3340,4954994,12179.09,-504.34,-1398.9799999999996
817,0.817000,3341,4955994,8427.09,-152.34,-820.9799999999996
818,0.818000,3342,4956994,-187.91,129.66,-903.9799999999996
819,0.819000,3343,4957994,-5438.91,-347.34,-489.97999999999956
820,0.820000,3344,4958994,-5033.91,-647.34,-814.9799999999996
821,0.821000,3345,4959994,527.09,-744.34,-1636.9799999999996
822,0.822000,3346,4960994,3643.09,-743.34,-1432.9799999999996
823,0.823000,3347,4961994,2460.09,-497.34,-1598.9799999999996
824,0.824000,3348,4962994,-1115.91,-92.34,-2273.9799999999996
825,0.825000,3349,4963994,-4170.91,125.66,-1433.9799999999996
826,0.826000,3350,4964994,-2691.91,-279.34,1312.0200000000004
827,0.827000,3351,4965994,-380.90999999999997,-362.34,2763.0200000000004
828,0.828000,3352,4966994,2249.09,256.66,2591.0200000000004
829,0.828999,3353,4967993,5196.09,746.66,2602.0200000000004
830,0.830000,3354,4968994,6469.09,931.66,1811.0200000000004
831,0.831000,3355,4969994,4606.09,632.66,1251.0200000000004
832,0.832000,3356,4970994,2045.09,-62.34,952.0200000000004
833,0.833000,3357,4971994,755.09,-40.34,-920.9799999999996
834,0.834000,3358,4972994,685.09,-216.34,-1926.9799999999996
835,0.835000,3359,4973994,1554.09,-785.34,-1900.9799999999996
836,0.836000,3360,4974994,1726.09,-481.34,-2736.9799999999996
837,0.837000,3361,4975994,-404.90999999999997,-413.34,-2720.9799999999996
838,0.838000,3362,4976994,-1247.91,-546.34,-1475.9799999999996
839,0.839000,3363,4977994,-1149.91,-109.34,-685.9799999999996
840,0.840000,3364,4978994,-1072.91,48.66,218.02000000000044
841,0.841000,3365,4979994,-1376.91,-68.34,1859.0200000000004
842,0.842000,3366,4980994,-1924.91,701.66,2548.0200000000004
843,0.843000,3367,4981994,-1234.91,1503.66,2702.0200000000004
844,0.844000,3368,4982994,-795.91,1026.66,3407.0200000000004
845,0.844999,3369,4983993,-3437.91,433.66,3408.0200000000004
846,0.846000,3370,4984994,-8054.91,276.66,2321.0200000000004
847,0.847000,3371,4985994,-10921.91,498.66,138.02000000000044
848,0.847999,3372,4986993,-6017.91,395.66,-1222.9799999999996
849,0.848999,3373,4987993,3994.09,106.66,-1283.9799999999996
850,0.849999,3374,4988993,10768.09,-187.34,-1590.9799999999996
851,0.851000,3375,4989994,11456.09,-437.34,-1111.9799999999996
852,0.851999,3376,4990993,4001.09,-56.34,-733.9799999999996
853,0.853000,3377,4991994,-3303.91,25.66,-738.9799999999996
854,0.854000,3378,4992994,-5956.91,-503.34,-505.97999999999956
855,0.855000,3379,4993994,-2504.91,-790.34,-1308.9799999999996
856,0.856000,3380,4994994,2621.09,-751.34,-1563.9799999999996
857,0.857000,3381,4995994,3304.09,-599.34,-1265.9799999999996
858,0.858000,3382,4996994,1720.09,-350.34,-1932.9799999999996
859,0.859000,3383,4997994,-3333.91,113.66,-2324.9799999999996
860,0.860000,3384,4998994,-4247.91,-145.34,5.020000000000437
861,0.861000,3385,4999994,-1798.91,-347.34,2432.0200000000004
862,0.862000,3386,5000994,1136.09,-72.34,2635.0200000000004
863,0.863000,3387,5001994,4492.09,552.66,2557.0200000000004
864,0.864000,3388,5002994,5105.09,1002.66,2072.0200000000004
865,0.864999,3389,5003993,5323.09,736.66,1549.0200000000004
866,0.865999,3390,5004993,3947.09,177.66,1382.0200000000004
867,0.866999,3391,5005993,1899.09,-19.34,-112.97999999999956
868,0.867999,3392,5006993,238.09,61.66,-1666.9799999999996
869,0.869000,3393,5007994,587.09,-517.34,-1776.9799999999996
870,0.870000,3394,5008994,2304.09,-802.34,-2214.9799999999996
871,0.871000,3395,5009994,1284.09,-362.34,-3031.9799999999996
872,0.872000,3396,5010994,-1446.91,-264.34,-2242.9799999999996
873,0.873000,3397,5011994,-1033.91,-600.34,-947.9799999999996
874,0.874000,3398,5012994,-1629.91,64.66,-476.97999999999956
875,0.875000,3399,5013994,-1558.91,99.66,1180.0200000000004
876,0.876000,3400,5014994,-540.91,56.66,2547.0200000000004
877,0.877000,3401,5015994,-1447.91,1106.66,2508.0200000000004
878,0.878000,3402,5016994,-1353.91,1628.66,2893.0200000000004
879,0.879000,3403,5017994,-2247.91,594.66,3656.0200000000004
880,0.880000,3404,5018994,-5709.91,199.66,3216.0200000000004
881,0.881000,3405,5019994,-8976.91,525.66,1100.0200000000004
882,0.882000,3406,5020994,-9614.91,91.66,-742.9799999999996
883,0.883000,3407,5021994,-2606.91,365.66,-1144.9799999999996
884,0.884000,3408,5022994,8296.09,74.66,-1638.9799999999996
885,0.885000,3409,5023994,12260.09,-615.34,-1672.9799999999996
886,0.886000,3410,5024994,8441.09,-68.34,-833.9799999999996
887,0.887000,3411,5025994,253.09,172.66,-728.9799999999996
888,0.888000,3412,5026994,-5188.91,-341.34,-601.9799999999996
889,0.889000,3413,5027994,-5059.91,-621.34,-874.9799999999996
890,0.889999,3414,5028993,595.09,-847.34,-1484.9799999999996
891,0.891000,3415,5029994,3589.09,-617.34,-1398.9799999999996
892,0.892000,3416,5030994,2365.09,-448.34,-1470.9799999999996
893,0.893000,3417,5031994,-1229.91,-238.34,-2269.9799999999996
894,0.894000,3418,5032994,-4306.91,173.66,-1533.9799999999996
895,0.895000,3419,5033994,-2615.91,-319.34,1462.0200000000004
896,0.896000,3420,5034994,-590.91,-343.34,2618.0200000000004
897,0.897000,3421,5035994,2300.09,283.66,2398.0200000000004
898,0.898000,3422,5036994,5374.09,583.66,2766.0200000000004
899,0.899000,3423,5037994,6171.09,895.66,1861.0200000000004
900,0.900000,3424,5038994,4668.09,692.66,1230.0200000000004
901,0.901000,3425,5039994,1504.09,39.66,833.0200000000004
902,0.902000,3426,5040994,1132.09,-26.34,-879.9799999999996
903,0.903000,3427,5041994,1075.09,-225.34,-1926.9799999999996
904,0.904000,3428,5042994,1732.09,-701.34,-1838.9799999999996
905,0.905000,3429,5043994,2084.09,-482.34,-2606.9799999999996
906,0.906000,3430,5044994,-733.91,-359.34,-2938.9799999999996
907,0.906999,3431,5045993,-1394.91,-500.34,-1496.9799999999996
908,0.907999,3432,5046993,-1319.91,-238.34,-530.9799999999996
909,0.909000,3433,5047994,-1004.91,74.66,206.02000000000044
910,0.910000,3434,5048994,-1090.91,-148.34,1909.0200000000004
911,0.911000,3435,5049994,-1736.91,676.66,2680.0200000000004
912,0.911999,3436,5050993,-1272.91,1406.66,2637.0200000000004
913,0.913000,3437,5051994,-886.91,1032.66,3106.0200000000004
914,0.914000,3438,5052994,-3800.91,548.66,3333.0200000000004
915,0.915000,3439,5053994,-8186.91,229.66,2515.0200000000004
916,0.915999,3440,5054993,-10415.91,452.66,270.02000000000044
917,0.917000,3441,5055994,-6016.91,365.66,-1235.9799999999996
918,0.918000,3442,5056994,3545.09,94.66,-1345.9799999999996
919,0.919000,3443,5057994,10672.09,-66.34,-1511.9799999999996
920,0.920000,3444,5058994,11512.09,-390.34,-1028.9799999999996
921,0.921000,3445,5059994,4103.09,-43.34,-901.9799999999996
922,0.922000,3446,5060994,-2831.91,42.66,-797.9799999999996
923,0.923000,3447,5061994,-5593.91,-620.34,-374.97999999999956
924,0.924000,3448,5062994,-2696.91,-758.34,-1385.9799999999996
925,0.925000,3449,5063994,2236.09,-737.34,-1612.9799999999996
926,0.926000,3450,5064994,2646.09,-715.34,-1253.9799999999996
927,0.927000,3451,5065994,1387.09,-427.34,-1997.9799999999996
928,0.928000,3452,5066994,-2851.91,25.66,-2416.9799999999996
929,0.929000,3453,5067994,-3706.91,-30.34,-90.97999999999956
930,0.930000,3454,5068994,-1513.91,-376.34,2457.0200000000004
931,0.931000,3455,5069994,932.09,-170.34,2592.0200000000004
932,0.932000,3456,5070994,3818.09,578.66,2500.0200000000004
933,0.933000,3457,5071994,4936.09,1019.66,2232.0200000000004
934,0.934000,3458,5072994,5681.09,781.66,1734.0200000000004
935,0.935000,3459,5073994,4466.09,219.66,1409.0200000000004
936,0.936000,3460,5074994,2297.09,-78.34,-42.97999999999956
937,0.937000,3461,5075994,-17.909999999999997,114.66,-1715.9799999999996
938,0.938000,3462,5076994,131.09,-487.34,-1771.9799999999996
939,0.939000,3463,5077994,1757.09,-860.34,-2222.9799999999996
940,0.940000,3464,5078994,985.09,-315.34,-3141.9799999999996
941,0.941000,3465,5079994,-1291.91,-383.34,-2182.9799999999996
942,0.942000,3466,5080994,-695.91,-595.34,-880.9799999999996
943,0.943000,3467,5081994,-1312.91,114.66,-520.9799999999996
944,0.944000,3468,5082994,-1424.91,-1.34,1063.0200000000004
945,0.945000,3469,5083994,-452.90999999999997,183.66,2415.0200000000004
946,0.946000,3470,5084994,-1418.91,1220.66,2572.0200000000004
947,0.946999,3471,5085993,-991.91,1342.66,2935.0200000000004
948,0.948000,3472,5086994,-2227.91,676.66,3648.0200000000004
949,0.949000,3473,5087994,-5971.91,399.66,3265.0200000000004
950,0.950000,3474,5088994,-8963.91,386.66,1183.0200000000004
951,0.951000,3475,5089994,-9984.91,156.66,-794.9799999999996
952,0.952000,3476,5090994,-2837.91,489.66,-1285.9799999999996
953,0.952999,3477,5091993,8324.09,-91.34,-1454.9799999999996
954,0.954000,3478,5092994,12216.09,-555.34,-1507.9799999999996
955,0.955000,3479,5093994,8292.09,22.66,-880.9799999999996
956,0.956000,3480,5094994,307.09000000000003,105.66,-746.9799999999996
957,0.957000,3481,5095994,-4611.91,-389.34,-354.97999999999956
958,0.958000,3482,5096994,-4990.91,-437.34,-910.9799999999996
959,0.959000,3483,5097994,685.09,-871.34,-1468.9799999999996
960,0.959999,3484,5098993,3522.09,-812.34,-1326.9799999999996
961,0.961000,3485,5099994,2048.09,-371.34,-1675.9799999999996
962,0.962000,3486,5100994,-1207.91,-195.34,-2354.9799999999996
963,0.963000,3487,5101994,-4442.91,171.66,-1704.9799999999996
964,0.964000,3488,5102994,-2574.91,-357.34,1291.0200000000004
965,0.965000,3489,5103994,-476.90999999999997,-474.34,2815.0200000000004
966,0.966000,3490,5104994,1820.09,180.66,2536.0200000000004
967,0.967000,3491,5105994,5067.09,685.66,2522.0200000000004
968,0.968000,3492,5106994,6411.09,1026.66,1846.0200000000004
969,0.969000,3493,5107994,5152.09,692.66,1401.0200000000004
970,0.970000,3494,5108994,2392.09,-3.34,880.0200000000004
971,0.970999,3495,5109993,1000.09,20.66,-830.9799999999996
972,0.972000,3496,5110994,780.09,-231.34,-1714.9799999999996
973,0.973000,3497,5111994,1006.09,-679.34,-1861.9799999999996
974,0.974000,3498,5112994,1326.09,-392.34,-2682.9799999999996
975,0.975000,3499,5113994,-598.91,-542.34,-2796.9799999999996
976,0.976000,3500,5114994,-1009.91,-532.34,-1692.9799999999996
977,0.977000,3501,5115994,-689.91,-157.34,-830.9799999999996
978,0.978000,3502,5116994,-305.90999999999997,-23.34,164.02000000000044
979,0.979000,3503,5117994,-1051.91,-107.34,1844.0200000000004
980,0.980000,3504,5118994,-2208.91,686.66,2532.0200000000004
981,0.981000,3505,5119994,-1490.91,1338.66,2745.0200000000004
982,0.982000,3506,5120994,-933.91,1078.66,3412.0200000000004
983,0.983000,3507,5121994,-3748.91,574.66,3448.0200000000004
984,0.983999,3508,5122993,-8096.91,150.66,2514.0200000000004
985,0.985000,3509,5123994,-10205.91,326.66,369.02000000000044
986,0.986000,3510,5124994,-6392.91,385.66,-1235.9799999999996
987,0.987000,3511,5125994,3150.09,196.66,-1329.9799999999996
988,0.988000,3512,5126994,10346.09,-253.34,-1634.9799999999996
989,0.988999,3513,5127993,11281.09,-341.34,-1277.9799999999996
990,0.990000,3514,5128994,4456.09,74.66,-744.9799999999996
991,0.991000,3515,5129994,-2535.91,73.66,-627.9799999999996
992,0.992000,3516,5130994,-5274.91,-547.34,-316.97999999999956
993,0.993000,3517,5131994,-2589.91,-869.34,-1198.9799999999996
994,0.994000,3518,5132994,1912.09,-696.34,-1646.9799999999996
995,0.994999,3519,5133993,2660.09,-512.34,-1360.9799999999996
996,0.995999,3520,5134993,1696.09,-467.34,-1961.9799999999996
997,0.997000,3521,5135994,-2578.91,85.66,-2515.9799999999996
998,0.998000,3522,5136994,-3974.91,9.66,-414.97999999999956
999,0.999000,3523,5137994,-1496.91,-504.34,2479.0200000000004
1000,1.000000,3524,5138994,474.09000000000003,-135.34,2704.0200000000004
1001,1.001000,3525,5139994,3268.09,587.66,2432.0200000000004
1002,1.002000,3526,5140994,4857.09,907.66,2308.0200000000004
1003,1.003000,3527,5141994,5953.09,699.66,1758.0200000000004
1004,1.004000,3528,5142994,5080.09,268.66,1391.0200000000004
1005,1.005000,3529,5143994,2136.09,-38.34,15.020000000000437
1006,1.006000,3530,5144994,-169.91,182.66,-1597.9799999999996
1007,1.007000,3531,5145994,61.09,-476.34,-1704.9799999999996
1008,1.008000,3532,5146994,1705.09,-958.34,-2091.9799999999996
1009,1.009000,3533,5147994,981.09,-319.34,-3093.9799999999996
1010,1.010000,3534,5148994,-1399.91,-374.34,-2290.9799999999996
1011,1.011000,3535,5149994,-480.90999999999997,-484.34,-1019.9799999999996
1012,1.012000,3536,5150994,-1168.91,127.66,-644.9799999999996
1013,1.013000,3537,5151994,-1034.91,-14.34,943.0200000000004
1014,1.014000,3538,5152994,-218.91,24.66,2399.0200000000004
1015,1.015000,3539,5153994,-1576.91,1166.66,2559.0200000000004
1016,1.015999,3540,5154993,-1591.91,1521.66,3026.0200000000004
1017,1.017000,3541,5155994,-1881.91,601.66,3719.0200000000004
1018,1.018000,3542,5156994,-4690.91,323.66,3345.0200000000004
1019,1.019000,3543,5157994,-9213.91,456.66,1333.0200000000004
1020,1.020000,3544,5158994,-10504.91,198.66,-763.9799999999996
1021,1.021000,3545,5159994,-3373.91,376.66,-1278.9799999999996
1022,1.022000,3546,5160994,7429.09,-64.34,-1562.9799999999996
1023,1.023000,3547,5161994,11449.09,-515.34,-1704.9799999999996
1024,1.024000,3548,5162994,8842.09,-155.34,-794.9799999999996
1025,1.025000,3549,5163994,1133.09,132.66,-579.9799999999996
1026,1.026000,3550,5164994,-4398.91,-120.34,-409.97999999999956
1027,1.027000,3551,5165994,-5047.91,-503.34,-711.9799999999996
1028,1.028000,3552,5166994,317.09000000000003,-873.34,-1317.9799999999996
1029,1.028999,3553,5167993,3599.09,-734.34,-1238.9799999999996
1030,1.030000,3554,5168994,2234.09,-409.34,-1586.9799999999996
1031,1.031000,3555,5169994,-633.91,-209.34,-2441.9799999999996
1032,1.032000,3556,5170994,-3986.91,50.66,-1829.9799999999996
1033,1.033000,3557,5171994,-2892.91,-338.34,1018.0200000000004
1034,1.034000,3558,5172994,-934.91,-375.34,2582.0200000000004
1035,1.035000,3559,5173994,1365.09,246.66,2336.0200000000004
1036,1.036000,3560,5174994,5277.09,561.66,2481.0200000000004
1037,1.036999,3561,5175993,6860.09,850.66,1943.0200000000004
1038,1.038000,3562,5176994,5147.09,726.66,1419.0200000000004
1039,1.039000,3563,5177994,2133.09,45.66,1054.0200000000004
1040,1.040000,3564,5178994,706.09,41.66,-684.9799999999996
1041,1.041000,3565,5179994,313.09000000000003,-97.34,-1787.9799999999996
1042,1.042000,3566,5180994,1160.09,-708.34,-1650.9799999999996
1043,1.042999,3567,5181993,1815.09,-578.34,-2410.9799999999996
1044,1.044000,3568,5182994,-321.90999999999997,-326.34,-2954.9799999999996
1045,1.045000,3569,5183994,-1052.91,-489.34,-1757.9799999999996
1046,1.046000,3570,5184994,-1109.91,-198.34,-869.9799999999996
1047,1.047000,3571,5185994,-776.91,139.66,-8.979999999999563
1048,1.048000,3572,5186994,-873.91,-231.34,1753.0200000000004
1049,1.048999,3573,5187993,-1298.91,650.66,2484.0200000000004
1050,1.050000,3574,5188994,-1051.91,1404.66,2824.0200000000004
1051,1.051000,3575,5189994,-257.90999999999997,1005.66,3301.0200000000004
1052,1.052000,3576,5190994,-4345.91,713.66,3116.0200000000004
1053,1.053000,3577,5191994,-8189.91,79.66,2661.0200000000004
1054,1.054000,3578,5192994,-9063.91,282.66,697.0200000000004
1055,1.054999,3579,5193993,-7577.91,560.66,-1468.9799999999996
1056,1.056000,3580,5194994,1407.09,155.66,-1567.9799999999996
1057,1.056999,3581,5195993,9937.09,-209.34,-1521.9799999999996
1058,1.058000,3582,5196994,12007.09,-421.34,-1098.9799999999996
1059,1.059000,3583,5197994,5060.09,47.66,-704.9799999999996
1060,1.060000,3584,5198994,-2198.91,141.66,-671.9799999999996
1061,1.061000,3585,5199994,-5113.91,-548.34,-46.97999999999956
1062,1.062000,3586,5200994,-3273.91,-732.34,-963.9799999999996
1063,1.063000,3587,5201994,1877.09,-726.34,-1554.9799999999996
1064,1.064000,3588,5202994,2712.09,-565.34,-1454.9799999999996
1065,1.065000,3589,5203994,1939.09,-459.34,-2060.9799999999996
1066,1.066000,3590,5204994,-2189.91,-71.34,-2520.9799999999996
1067,1.067000,3591,5205994,-4103.91,11.66,-704.9799999999996
1068,1.068000,3592,5206994,-1604.91,-426.34,2106.0200000000004
1069,1.069000,3593,5207994,567.09,-215.34,2545.0200000000004
1070,1.069999,3594,5208993,3460.09,481.66,2406.0200000000004
1071,1.071000,3595,5209994,5075.09,832.66,2397.0200000000004
1072,1.072000,3596,5210994,5951.09,743.66,1756.0200000000004
1073,1.072999,3597,5211993,4702.09,309.66,1441.0200000000004
1074,1.074000,3598,5212994,1188.09,15.66,92.02000000000044
1075,1.075000,3599,5213994,-341.90999999999997,111.66,-1542.9799999999996
1076,1.076000,3600,5214994,478.09000000000003,-417.34,-1644.9799999999996
1077,1.077000,3601,5215994,2063.09,-796.34,-1953.9799999999996
1078,1.078000,3602,5216994,1633.09,-334.34,-2901.9799999999996
1079,1.078999,3603,5217993,-1633.91,-403.34,-2303.9799999999996
1080,1.080000,3604,5218994,-544.91,-647.34,-808.9799999999996
1081,1.081000,3605,5219994,-1324.91,158.66,-529.9799999999996
1082,1.082000,3606,5220994,-1201.91,92.66,761.0200000000004
1083,1.083000,3607,5221994,-381.90999999999997,-141.34,2267.0200000000004
1084,1.084000,3608,5222994,-1616.91,1073.66,2473.0200000000004
1085,1.085000,3609,5223994,-1217.91,1524.66,2723.0200000000004
1086,1.086000,3610,5224994,-1280.91,661.66,3326.0200000000004
1087,1.087000,3611,5225994,-3336.91,170.66,3386.0200000000004
1088,1.088000,3612,5226994,-9308.91,540.66,1534.0200000000004
1089,1.089000,3613,5227994,-11862.91,326.66,-761.9799999999996
1090,1.090000,3614,5228994,-3610.91,98.66,-1334.9799999999996
1091,1.090999,3615,5229993,6773.09,192.66,-1448.9799999999996
1092,1.092000,3616,5230994,11015.09,-323.34,-1515.9799999999996
1093,1.093000,3617,5231994,9699.09,-346.34,-759.9799999999996
1094,1.094000,3618,5232994,1708.09,84.66,-719.9799999999996
1095,1.095000,3619,5233994,-4324.91,-82.34,-358.97999999999956
1096,1.096000,3620,5234994,-5357.91,-507.34,-314.97999999999956
1097,1.097000,3621,5235994,-180.91,-754.34,-1385.9799999999996
1098,1.098000,3622,5236994,3168.09,-657.34,-1453.9799999999996
1099,1.099000,3623,5237994,2387.09,-492.34,-1413.9799999999996
1100,1.100000,3624,5238994,93.09,-232.34,-2303.9799999999996
1101,1.101000,3625,5239994,-3819.91,77.66,-1989.9799999999996
1102,1.102000,3626,5240994,-3145.91,-273.34,734.0200000000004
1103,1.102999,3627,5241993,-1120.91,-357.34,2313.0200000000004
1104,1.103999,3628,5242993,1433.09,133.66,2229.0200000000004
1105,1.105000,3629,5243994,5520.09,544.66,2575.0200000000004
1106,1.106000,3630,5244994,6692.09,892.66,1989.0200000000004
1107,1.106999,3631,5245993,4733.09,620.66,1346.0200000000004
1108,1.108000,3632,5246994,2244.09,71.66,1188.0200000000004
1109,1.109000,3633,5247994,898.09,-24.34,-497.97999999999956
1110,1.109999,3634,5248993,300.09000000000003,-119.34,-1864.9799999999996
1111,1.111000,3635,5249994,953.09,-586.34,-1620.9799999999996
1112,1.112000,3636,5250994,1928.09,-603.34,-2224.9799999999996
1113,1.113000,3637,5251994,174.09,-351.34,-2897.9799999999996
1114,1.114000,3638,5252994,-1431.91,-444.34,-1730.9799999999996
1115,1.115000,3639,5253994,-1358.91,-235.34,-675.9799999999996
1116,1.115999,3640,5254993,-804.91,110.66,-128.97999999999956
1117,1.116999,3641,5255993,-834.91,-99.34,1620.0200000000004
1118,1.118000,3642,5256994,-924.91,489.66,2623.0200000000004
1119,1.119000,3643,5257994,-842.91,1270.66,2544.0200000000004
1120,1.120000,3644,5258994,-100.91,1129.66,2961.0200000000004
1121,1.120999,3645,5259993,-4363.91,684.66,3239.0200000000004
1122,1.122000,3646,5260994,-8162.91,85.66,2746.0200000000004
1123,1.123000,3647,5261994,-8731.91,173.66,604.0200000000004
1124,1.124000,3648,5262994,-8337.91,566.66,-1377.9799999999996
1125,1.125000,3649,5263994,704.09,367.66,-1270.9799999999996
1126,1.126000,3650,5264994,10011.09,-420.34,-1468.9799999999996
1127,1.127000,3651,5265994,12282.09,-383.34,-1218.9799999999996
1128,1.128000,3652,5266994,5651.09,108.66,-652.9799999999996
1129,1.129000,3653,5267994,-2011.91,50.66,-558.9799999999996
1130,1.129999,3654,5268993,-5321.91,-434.34,-141.97999999999956
1131,1.131000,3655,5269994,-3861.91,-650.34,-1106.9799999999996
1132,1.132000,3656,5270994,1708.09,-652.34,-1605.9799999999996
1133,1.132999,3657,5271993,3167.09,-665.34,-1256.9799999999996
1134,1.134000,3658,5272994,2264.09,-570.34,-1779.9799999999996
1135,1.135000,3659,5273994,-2175.91,103.66,-2630.9799999999996
1136,1.136000,3660,5274994,-4237.91,107.66,-902.9799999999996
1137,1.137000,3661,5275994,-1732.91,-554.34,1974.0200000000004
1138,1.138000,3662,5276994,377.09000000000003,-261.34,2487.0200000000004
1139,1.139000,3663,5277994,3179.09,391.66,2381.0200000000004
1140,1.139999,3664,5278993,4933.09,841.66,2360.0200000000004
1141,1.141000,3665,5279994,6030.09,718.66,1654.0200000000004
1142,1.142000,3666,5280994,5030.09,366.66,1334.0200000000004
1143,1.143000,3667,5281994,1323.09,82.66,293.02000000000044
1144,1.144000,3668,5282994,-119.91,79.66,-1386.9799999999996
1145,1.145000,3669,5283994,395.09000000000003,-394.34,-1672.9799999999996
1146,1.145999,3670,5284993,1859.09,-814.34,-1808.9799999999996
1147,1.147000,3671,5285994,1740.09,-280.34,-2794.9799999999996
1148,1.148000,3672,5286994,-1364.91,-368.34,-2486.9799999999996
1149,1.149000,3673,5287994,-478.90999999999997,-630.34,-1001.9799999999996
1150,1.150000,3674,5288994,-1333.91,144.66,-506.97999999999956
1151,1.151000,3675,5289994,-1024.91,-52.34,671.0200000000004
1152,1.152000,3676,5290994,-640.91,-27.34,2058.0200000000004
1153,1.153000,3677,5291994,-1944.91,1041.66,2501.0200000000004
1154,1.154000,3678,5292994,-1400.91,1427.66,2683.0200000000004
1155,1.155000,3679,5293994,-1485.91,776.66,3164.0200000000004
1156,1.156000,3680,5294994,-3170.91,120.66,3397.0200000000004
1157,1.157000,3681,5295994,-9074.91,470.66,1645.0200000000004
1158,1.158000,3682,5296994,-11876.91,420.66,-599.9799999999996
1159,1.159000,3683,5297994,-3879.91,152.66,-1225.9799999999996
1160,1.160000,3684,5298994,6367.09,197.66,-1455.9799999999996
1161,1.161000,3685,5299994,11136.09,-162.34,-1432.9799999999996
1162,1.162000,3686,5300994,10331.09,-508.34,-689.9799999999996
1163,1.163000,3687,5301994,2141.09,165.66,-789.9799999999996
1164,1.164000,3688,5302994,-4463.91,-11.34,-431.97999999999956
1165,1.164999,3689,5303993,-5720.91,-691.34,-362.97999999999956
1166,1.165999,3690,5304993,-696.91,-725.34,-1479.9799999999996
1167,1.167000,3691,5305994,3046.09,-674.34,-1558.9799999999996
1168,1.168000,3692,5306994,2545.09,-599.34,-1423.9799999999996
1169,1.169000,3693,5307994,350.09000000000003,-212.34,-2311.9799999999996
1170,1.170000,3694,5308994,-3716.91,123.66,-2019.9799999999996
1171,1.171000,3695,5309994,-3349.91,-305.34,677.0200000000004
1172,1.172000,3696,5310994,-1230.91,-368.34,2385.0200000000004
1173,1.173000,3697,5311994,1311.09,69.66,2381.0200000000004
1174,1.174000,3698,5312994,5388.09,567.66,2658.0200000000004
1175,1.175000,3699,5313994,6448.09,959.66,1904.0200000000004
1176,1.176000,3700,5314994,4924.09,719.66,1318.0200000000004
1177,1.177000,3701,5315994,2612.09,106.66,1254.0200000000004
1178,1.178000,3702,5316994,1244.09,20.66,-573.9799999999996
1179,1.179000,3703,5317994,467.09000000000003,-108.34,-1849.9799999999996
1180,1.180000,3704,5318994,535.09,-575.34,-1575.9799999999996
1181,1.181000,3705,5319994,1903.09,-673.34,-2244.9799999999996
1182,1.182000,3706,5320994,346.09000000000003,-441.34,-2991.9799999999996
1183,1.183000,3707,5321994,-1328.91,-359.34,-1721.9799999999996
1184,1.184000,3708,5322994,-1140.91,-335.34,-681.9799999999996
1185,1.185000,3709,5323994,-1193.91,186.66,-369.97999999999956
1186,1.186000,3710,5324994,-1157.91,-162.34,1491.0200000000004
1187,1.187000,3711,5325994,-860.91,358.66,2538.0200000000004
1188,1.188000,3712,5326994,-944.91,1366.66,2608.0200000000004
1189,1.189000,3713,5327994,74.09,1127.66,3151.0200000000004
1190,1.190000,3714,5328994,-4011.91,760.66,3389.0200000000004
1191,1.191000,3715,5329994,-7778.91,108.66,2911.0200000000004
1192,1.192000,3716,5330994,-8601.91,213.66,820.0200000000004
1193,1.193000,3717,5331994,-8645.91,536.66,-1266.9799999999996
1194,1.194000,3718,5332994,-247.91,246.66,-1510.9799999999996
1195,1.195000,3719,5333994,9616.09,-255.34,-1599.9799999999996
1196,1.195999,3720,5334993,12697.09,-409.34,-1204.9799999999996
1197,1.196999,3721,5335993,6204.09,56.66,-712.9799999999996
1198,1.198000,3722,5336994,-1563.91,136.66,-667.9799999999996
1199,1.199000,3723,5337994,-5214.91,-556.34,-64.97999999999956
1200,1.200000,3724,5338994,-4252.91,-637.34,-989.9799999999996
1201,1.201000,3725,5339994,1488.09,-666.34,-1589.9799999999996
1202,1.202000,3726,5340994,3260.09,-675.34,-1251.9799999999996
1203,1.203000,3727,5341994,2024.09,-477.34,-1830.9799999999996
1204,1.204000,3728,5342994,-1998.91,-3.34,-2554.9799999999996
1205,1.205000,3729,5343994,-4448.91,66.66,-1030.9799999999996
1206,1.206000,3730,5344994,-1739.91,-487.34,1897.0200000000004
1207,1.207000,3731,5345994,533.09,-271.34,2564.0200000000004
1208,1.208000,3732,5346994,2956.09,445.66,2419.0200000000004
1209,1.208999,3733,5347993,4539.09,851.66,2430.0200000000004
1210,1.210000,3734,5348994,5977.09,827.66,1687.0200000000004
1211,1.211000,3735,5349994,5303.09,426.66,1339.0200000000004
1212,1.212000,3736,5350994,1793.09,-1.34,432.02000000000044
1213,1.213000,3737,5351994,434.09000000000003,49.66,-1204.9799999999996
1214,1.214000,3738,5352994,392.09000000000003,-368.34,-1693.9799999999996
1215,1.214999,3739,5353993,1437.09,-765.34,-1877.9799999999996
1216,1.216000,3740,5354994,1291.09,-294.34,-2860.9799999999996
1217,1.217000,3741,5355994,-1497.91,-384.34,-2587.9799999999996
1218,1.218000,3742,5356994,-445.90999999999997,-637.34,-1236.9799999999996
1219,1.219000,3743,5357994,-916.91,35.66,-692.9799999999996
1220,1.220000,3744,5358994,-714.91,19.66,639.0200000000004
1221,1.220999,3745,5359993,-618.91,-107.34,2151.0200000000004
1222,1.222000,3746,5360994,-2339.91,978.66,2523.0200000000004
1223,1.223000,3747,5361994,-1689.91,1518.66,2826.0200000000004
1224,1.224000,3748,5362994,-1360.91,844.66,3308.0200000000004
1225,1.225000,3749,5363994,-2831.91,218.66,3449.0200000000004
1226,1.226000,3750,5364994,-8717.91,464.66,1951.0200000000004
1227,1.227000,3751,5365994,-11939.91,410.66,-555.9799999999996
1228,1.228000,3752,5366994,-4388.91,81.66,-1343.9799999999996
1229,1.229000,3753,5367994,5845.09,291.66,-1506.9799999999996
1230,1.230000,3754,5368994,10969.09,-159.34,-1603.9799999999996
1231,1.231000,3755,5369994,10558.09,-462.34,-797.9799999999996
1232,1.232000,3756,5370994,2730.09,92.66,-743.9799999999996
1233,1.233000,3757,5371994,-4014.91,-9.34,-411.97999999999956
1234,1.234000,3758,5372994,-5804.91,-596.34,-373.97999999999956
1235,1.235000,3759,5373994,-1200.91,-761.34,-1461.9799999999996
1236,1.236000,3760,5374994,2825.09,-693.34,-1555.9799999999996
1237,1.237000,3761,5375994,2545.09,-589.34,-1384.9799999999996
1238,1.237999,3762,5376993,625.09,-356.34,-2181.9799999999996
1239,1.239000,3763,5377994,-3465.91,74.66,-2213.9799999999996
1240,1.240000,3764,5378994,-3276.91,-199.34,509.02000000000044
1241,1.241000,3765,5379994,-1104.91,-447.34,2516.0200000000004
1242,1.242000,3766,5380994,889.09,35.66,2385.0200000000004
1243,1.243000,3767,5381994,4860.09,502.66,2642.0200000000004
1244,1.244000,3768,5382994,6221.09,960.66,2035.0200000000004
1245,1.245000,3769,5383994,4967.09,835.66,1296.0200000000004
1246,1.246000,3770,5384994,3211.09,127.66,1193.0200000000004
1247,1.247000,3771,5385994,1894.09,-71.34,-358.97999999999956
1248,1.248000,3772,5386994,419.09000000000003,5.66,-1812.9799999999996
1249,1.249000,3773,5387994,249.09,-556.34,-1704.9799999999996
1250,1.250000,3774,5388994,1532.09,-737.34,-2197.9799999999996
1251,1.251000,3775,5389994,98.09,-359.34,-2991.9799999999996
1252,1.252000,3776,5390994,-1358.91,-395.34,-1899.9799999999996
1253,1.253000,3777,5391994,-1013.91,-417.34,-737.9799999999996
1254,1.254000,3778,5392994,-887.91,83.66,-385.97999999999956
1255,1.255000,3779,5393994,-746.91,-48.34,1369.0200000000004
1256,1.256000,3780,5394994,-639.91,368.66,2528.0200000000004
1257,1.257000,3781,5395994,-903.91,1237.66,2659.0200000000004
1258,1.258000,3782,5396994,-499.90999999999997,1382.66,3053.0200000000004
1259,1.259000,3783,5397994,-4127.91,744.66,3424.0200000000004
1260,1.260000,3784,5398994,-7770.91,131.66,3005.0200000000004
1261,1.260999,3785,5399993,-8555.91,339.66,902.0200000000004
1262,1.262000,3786,5400994,-8549.91,300.66,-1106.9799999999996
1263,1.262999,3787,5401993,-730.91,450.66,-1427.9799999999996
1264,1.264000,3788,5402994,9488.09,-240.34,-1582.9799999999996
1265,1.265000,3789,5403994,12386.09,-629.34,-1450.9799999999996
1266,1.266000,3790,5404994,6399.09,191.66,-824.9799999999996
1267,1.267000,3791,5405994,-1203.91,105.66,-672.9799999999996
1268,1.268000,3792,5406994,-4976.91,-478.34,-228.97999999999956
1269,1.269000,3793,5407994,-4510.91,-591.34,-835.9799999999996
1270,1.270000,3794,5408994,1601.09,-836.34,-1428.9799999999996
1271,1.270999,3795,5409993,3386.09,-529.34,-1306.9799999999996
1272,1.272000,3796,5410994,2076.09,-417.34,-1637.9799999999996
1273,1.273000,3797,5411994,-1695.91,-223.34,-2502.9799999999996
1274,1.274000,3798,5412994,-4564.91,228.66,-1213.9799999999996
1275,1.275000,3799,5413994,-1775.91,-414.34,1843.0200000000004
1276,1.276000,3800,5414994,354.09000000000003,-422.34,2455.0200000000004
1277,1.277000,3801,5415994,2658.09,386.66,2256.0200000000004
1278,1.278000,3802,5416994,4638.09,764.66,2436.0200000000004
1279,1.279000,3803,5417994,6141.09,767.66,1774.0200000000004
1280,1.280000,3804,5418994,5235.09,468.66,1296.0200000000004
1281,1.281000,3805,5419994,1559.09,74.66,459.02000000000044
1282,1.281999,3806,5420993,345.09000000000003,67.66,-1032.9799999999996
1283,1.283000,3807,5421994,585.09,-311.34,-1630.9799999999996
1284,1.284000,3808,5422994,1494.09,-783.34,-1832.9799999999996
1285,1.284999,3809,5423993,1383.09,-312.34,-2733.9799999999996
1286,1.286000,3810,5424994,-917.91,-415.34,-2483.9799999999996
1287,1.287000,3811,5425994,-681.91,-459.34,-1238.9799999999996
1288,1.288000,3812,5426994,-1186.91,2.66,-600.9799999999996
1289,1.289000,3813,5427994,-596.91,-59.34,484.02000000000044
1290,1.290000,3814,5428994,-660.91,26.66,2008.0200000000004
1291,1.291000,3815,5429994,-1834.91,764.66,2611.0200000000004
1292,1.292000,3816,5430994,-1407.91,1362.66,2748.0200000000004
1293,1.293000,3817,5431994,-1433.91,949.66,3234.0200000000004
1294,1.294000,3818,5432994,-3237.91,319.66,3333.0200000000004
1295,1.295000,3819,5433994,-8635.91,235.66,2189.0200000000004
1296,1.296000,3820,5434994,-11819.91,538.66,-430.97999999999956
1297,1.297000,3821,5435994,-4688.91,223.66,-1406.9799999999996
1298,1.298000,3822,5436994,5375.09,-33.34,-1290.9799999999996
1299,1.299000,3823,5437994,10678.09,-22.34,-1669.9799999999996
1300,1.300000,3824,5438994,10419.09,-394.34,-1013.9799999999996
1301,1.300999,3825,5439993,2976.09,-41.34,-563.9799999999996
1302,1.302000,3826,5440994,-3445.91,117.66,-340.97999999999956
1303,1.303000,3827,5441994,-5452.91,-551.34,-318.97999999999956
1304,1.304000,3828,5442994,-1515.91,-764.34,-1209.9799999999996
1305,1.305000,3829,5443994,2596.09,-717.34,-1504.9799999999996
1306,1.306000,3830,5444994,2745.09,-462.34,-1352.9799999999996
1307,1.307000,3831,5445994,1012.09,-294.34,-2067.9799999999996
1308,1.308000,3832,5446994,-3323.91,-72.34,-2290.9799999999996
1309,1.309000,3833,5447994,-3883.91,-27.34,53.02000000000044
1310,1.310000,3834,5448994,-1466.91,-429.34,2426.0200000000004
1311,1.311000,3835,5449994,1016.09,-154.34,2458.0200000000004
1312,1.312000,3836,5450994,5179.09,581.66,2405.0200000000004
1313,1.313000,3837,5451994,6458.09,863.66,2060.0200000000004
1314,1.314000,3838,5452994,5134.09,721.66,1444.0200000000004
1315,1.315000,3839,5453994,2808.09,266.66,1241.0200000000004
1316,1.316000,3840,5454994,1239.09,-74.34,-225.97999999999956
1317,1.317000,3841,5455994,-129.91,40.66,-1745.9799999999996
1318,1.318000,3842,5456994,563.09,-408.34,-1657.9799999999996
1319,1.318999,3843,5457993,2450.09,-727.34,-1985.9799999999996
1320,1.320000,3844,5458994,880.09,-424.34,-2872.9799999999996
1321,1.321000,3845,5459994,-1204.91,-420.34,-1966.9799999999996
1322,1.322000,3846,5460994,-1450.91,-312.34,-699.9799999999996
1323,1.323000,3847,5461994,-1442.91,17.66,-274.97999999999956
1324,1.324000,3848,5462994,-1040.91,-93.34,1079.0200000000004
1325,1.325000,3849,5463994,-286.90999999999997,355.66,2408.0200000000004
1326,1.326000,3850,5464994,-821.91,1273.66,2690.0200000000004
1327,1.327000,3851,5465994,-574.91,1263.66,2762.0200000000004
1328,1.328000,3852,5466994,-3550.91,727.66,3305.0200000000004
1329,1.329000,3853,5467994,-7045.91,142.66,3345.0200000000004
1330,1.330000,3854,5468994,-8637.91,253.66,948.0200000000004
1331,1.330999,3855,5469993,-9431.91,462.66,-1293.9799999999996
1332,1.331999,3856,5470993,-1674.91,213.66,-1221.9799999999996
1333,1.333000,3857,5471994,8996.09,-170.34,-1532.9799999999996
1334,1.334000,3858,5472994,12553.09,-470.34,-1531.9799999999996
1335,1.334999,3859,5473993,7083.09,61.66,-773.9799999999996
1336,1.336000,3860,5474994,-554.91,144.66,-559.9799999999996
1337,1.337000,3861,5475994,-4984.91,-348.34,-153.97999999999956
1338,1.338000,3862,5476994,-4589.91,-612.34,-707.9799999999996
1339,1.339000,3863,5477994,1134.09,-771.34,-1455.9799999999996
1340,1.340000,3864,5478994,3253.09,-614.34,-1346.9799999999996
1341,1.341000,3865,5479994,2297.09,-584.34,-1690.9799999999996
1342,1.342000,3866,5480994,-1735.91,-35.34,-2618.9799999999996
1343,1.343000,3867,5481994,-4344.91,68.66,-1394.9799999999996
1344,1.344000,3868,5482994,-2601.91,-366.34,1406.0200000000004
1345,1.345000,3869,5483994,165.09,-290.34,2449.0200000000004
1346,1.346000,3870,5484994,3532.09,232.66,2464.0200000000004
1347,1.347000,3871,5485994,5253.09,866.66,2532.0200000000004
1348,1.347999,3872,5486993,6404.09,841.66,1759.0200000000004
1349,1.349000,3873,5487994,4668.09,362.66,1333.0200000000004
1350,1.350000,3874,5488994,722.09,35.66,687.0200000000004
1351,1.351000,3875,5489994,-0.9099999999999966,13.66,-1081.9799999999996
1352,1.351999,3876,5490993,608.09,-202.34,-1787.9799999999996
1353,1.353000,3877,5491994,2323.09,-789.34,-1581.9799999999996
1354,1.354000,3878,5492994,2060.09,-403.34,-2669.9799999999996
1355,1.355000,3879,5493994,-1137.91,-305.34,-2757.9799999999996
1356,1.356000,3880,5494994,-1045.91,-578.34,-1182.9799999999996
1357,1.357000,3881,5495994,-1360.91,33.66,-576.9799999999996
1358,1.358000,3882,5496994,-337.90999999999997,-96.34,541.0200000000004
1359,1.359000,3883,5497994,-895.91,-136.34,1900.0200000000004
1360,1.359999,3884,5498993,-1909.91,975.66,2531.0200000000004
1361,1.361000,3885,5499994,-1192.91,1381.66,2766.0200000000004
1362,1.362000,3886,5500994,-1942.91,909.66,3052.0200000000004
1363,1.363000,3887,5501994,-3412.91,296.66,3352.0200000000004
1364,1.364000,3888,5502994,-8542.91,194.66,2175.0200000000004
1365,1.365000,3889,5503994,-11682.91,531.66,-272.97999999999956
1366,1.366000,3890,5504994,-4825.91,86.66,-1328.9799999999996
1367,1.367000,3891,5505994,5433.09,112.66,-1439.9799999999996
1368,1.368000,3892,5506994,10805.09,65.66,-1622.9799999999996
1369,1.369000,3893,5507994,10913.09,-474.34,-773.9799999999996
1370,1.370000,3894,5508994,3070.09,109.66,-761.9799999999996
1371,1.370999,3895,5509993,-3780.91,90.66,-539.9799999999996
1372,1.372000,3896,5510994,-5659.91,-651.34,-28.979999999999563
1373,1.373000,3897,5511994,-1768.91,-792.34,-1260.9799999999996
1374,1.374000,3898,5512994,2748.09,-749.34,-1694.9799999999996
1375,1.375000,3899,5513994,2931.09,-671.34,-1506.9799999999996
1376,1.376000,3900,5514994,1320.09,-347.34,-2220.9799999999996
1377,1.377000,3901,5515994,-3439.91,25.66,-2405.9799999999996
1378,1.378000,3902,5516994,-4314.91,-184.34,6.020000000000437
1379,1.379000,3903,5517994,-1665.91,-424.34,2303.0200000000004
1380,1.380000,3904,5518994,1426.09,-162.34,2399.0200000000004
1381,1.381000,3905,5519994,5570.09,494.66,2532.0200000000004
1382,1.382000,3906,5520994,6551.09,895.66,1984.0200000000004
1383,1.382999,3907,5521993,4741.09,867.66,1363.0200000000004
1384,1.384000,3908,5522994,2817.09,133.66,1464.0200000000004
1385,1.385000,3909,5523994,1061.09,-26.34,-159.97999999999956
1386,1.385999,3910,5524993,211.09,125.66,-1651.9799999999996
1387,1.386999,3911,5525993,1135.09,-551.34,-1401.9799999999996
1388,1.388000,3912,5526994,2331.09,-586.34,-1983.9799999999996
1389,1.389000,3913,5527994,980.09,-318.34,-2786.9799999999996
1390,1.390000,3914,5528994,-1589.91,-394.34,-1761.9799999999996
1391,1.391000,3915,5529994,-1596.91,-246.34,-540.9799999999996
1392,1.392000,3916,5530994,-1554.91,-15.34,-198.97999999999956
1393,1.393000,3917,5531994,-1627.91,-75.34,1155.0200000000004
1394,1.394000,3918,5532994,-844.91,372.66,2384.0200000000004
1395,1.395000,3919,5533994,-761.91,1194.66,2366.0200000000004
1396,1.396000,3920,5534994,-202.91,1242.66,2449.0200000000004
1397,1.397000,3921,5535994,-3229.91,645.66,3162.0200000000004
1398,1.397999,3922,5536993,-6847.91,45.66,2989.0200000000004
1399,1.399000,3923,5537994,-8570.91,151.66,568.0200000000004
1400,1.400000,3924,5538994,-9514.91,448.66,-1376.9799999999996
1401,1.401000,3925,5539994,-1480.91,283.66,-1355.9799999999996
1402,1.402000,3926,5540994,9727.09,-165.34,-1624.9799999999996
1403,1.403000,3927,5541994,12985.09,-562.34,-1378.9799999999996
1404,1.404000,3928,5542994,7419.09,83.66,-614.9799999999996
1405,1.405000,3929,5543994,-1281.91,436.66,-571.9799999999996
1406,1.405999,3930,5544993,-5606.91,-383.34,2.0200000000004366
1407,1.407000,3931,5545994,-4764.91,-627.34,-560.9799999999996
1408,1.408000,3932,5546994,1028.09,-660.34,-1365.9799999999996
1409,1.409000,3933,5547994,3508.09,-723.34,-1002.9799999999996
1410,1.410000,3934,5548994,2032.09,-500.34,-1543.9799999999996
1411,1.411000,3935,5549994,-2142.91,-15.34,-2520.9799999999996
1412,1.412000,3936,5550994,-4642.91,47.66,-1122.9799999999996
1413,1.412999,3937,5551993,-2175.91,-365.34,1678.0200000000004
1414,1.414000,3938,5552994,181.09,-277.34,2355.0200000000004
1415,1.415000,3939,5553994,3550.09,214.66,2332.0200000000004
1416,1.415999,3940,5554993,5721.09,679.66,2425.0200000000004
1417,1.417000,3941,5555994,6435.09,741.66,1424.0200000000004
1418,1.417999,3942,5556993,4620.09,431.66,1103.0200000000004
1419,1.419000,3943,5557994,998.09,-41.34,442.02000000000044
1420,1.420000,3944,5558994,333.09000000000003,-33.34,-1471.9799999999996
1421,1.421000,3945,5559994,1032.09,-407.34,-2017.9799999999996
1422,1.422000,3946,5560994,2317.09,-872.34,-1820.9799999999996
1423,1.423000,3947,5561994,1852.09,-288.34,-2847.9799999999996
1424,1.424000,3948,5562994,-1444.91,-309.34,-2696.9799999999996
1425,1.424999,3949,5563993,-995.91,-675.34,-924.9799999999996
1426,1.426000,3950,5564994,-1148.91,11.66,-288.97999999999956
1427,1.427000,3951,5565994,-855.91,79.66,656.0200000000004
1428,1.428000,3952,5566994,-1109.91,-230.34,2230.0200000000004
1429,1.429000,3953,5567994,-2416.91,997.66,2673.0200000000004
1430,1.430000,3954,5568994,-1533.91,1584.66,2738.0200000000004
1431,1.431000,3955,5569994,-1462.91,836.66,3158.0200000000004
1432,1.431999,3956,5570993,-3087.91,295.66,3495.0200000000004
1433,1.433000,3957,5571994,-8966.91,363.66,2166.0200000000004
1434,1.433999,3958,5572993,-12039.91,389.66,-359.97999999999956
1435,1.435000,3959,5573994,-4469.91,242.66,-1353.9799999999996
1436,1.435999,3960,5574993,6225.09,158.66,-1475.9799999999996
1437,1.437000,3961,5575994,11409.09,-136.34,-1714.9799999999996
1438,1.438000,3962,5576994,10889.09,-297.34,-973.9799999999996
1439,1.439000,3963,5577994,3097.09,-20.34,-868.9799999999996
1440,1.440000,3964,5578994,-4109.91,-0.3400000000000001,-622.9799999999996
1441,1.441000,3965,5579994,-6103.91,-583.34,-307.97999999999956
1442,1.442000,3966,5580994,-1851.91,-755.34,-1520.9799999999996
1443,1.443000,3967,5581994,2686.09,-724.34,-1627.9799999999996
1444,1.444000,3968,5582994,2787.09,-712.34,-1342.9799999999996
1445,1.445000,3969,5583994,948.09,-235.34,-2242.9799999999996
1446,1.446000,3970,5584994,-3390.91,269.66,-2225.9799999999996
1447,1.447000,3971,5585994,-3776.91,-130.34,473.02000000000044
1448,1.448000,3972,5586994,-1170.91,-433.34,2685.0200000000004
1449,1.449000,3973,5587994,1538.09,9.66,2739.0200000000004
1450,1.450000,3974,5588994,5531.09,583.66,2828.0200000000004
1451,1.450999,3975,5589993,6386.09,976.66,2105.0200000000004
1452,1.452000,3976,5590994,4468.09,783.66,1366.0200000000004
1453,1.453000,3977,5591994,2619.09,90.66,1356.0200000000004
1454,1.454000,3978,5592994,993.09,-38.34,-511.97999999999956
1455,1.455000,3979,5593994,131.09,22.66,-2098.9799999999996
1456,1.456000,3980,5594994,1022.09,-758.34,-1675.9799999999996
1457,1.456999,3981,5595993,2250.09,-708.34,-2464.9799999999996
1458,1.457999,3982,5596993,885.09,-256.34,-3062.9799999999996
1459,1.459000,3983,5597994,-777.91,-632.34,-1658.9799999999996
1460,1.460000,3984,5598994,-1360.91,-278.34,-680.9799999999996
1461,1.461000,3985,5599994,-1627.91,150.66,-229.97999999999956
1462,1.462000,3986,5600994,-1764.91,-347.34,1398.0200000000004
1463,1.463000,3987,5601994,-1362.91,528.66,2483.0200000000004
1464,1.464000,3988,5602994,-624.91,1306.66,2589.0200000000004
1465,1.465000,3989,5603994,357.09000000000003,1141.66,2983.0200000000004
1466,1.466000,3990,5604994,-3800.91,780.66,3428.0200000000004
1467,1.467000,3991,5605994,-7759.91,69.66,3074.0200000000004
1468,1.468000,3992,5606994,-9136.91,311.66,776.0200000000004
1469,1.469000,3993,5607994,-9074.91,563.66,-1061.9799999999996
1470,1.470000,3994,5608994,-137.91,237.66,-1081.9799999999996
1471,1.471000,3995,5609994,10088.09,-207.34,-1657.9799999999996
1472,1.472000,3996,5610994,12934.09,-479.34,-1307.9799999999996
1473,1.472999,3997,5611993,6479.09,16.66,-534.9799999999996
1474,1.474000,3998,5612994,-2031.91,203.66,-790.9799999999996
1475,1.475000,3999,5613994,-5837.91,-524.34,-481.97999999999956
1476,1.476000,4000,5614994,-4122.91,-745.34,-1078.9799999999996
1477,1.477000,4001,5615994,1835.09,-731.34,-1663.9799999999996
1478,1.478000,4002,5616994,3819.09,-739.34,-1358.9799999999996
1479,1.478999,4003,5617993,2209.09,-510.34,-1846.9799999999996
1480,1.480000,4004,5618994,-2274.91,10.66,-2550.9799999999996
1481,1.480999,4005,5619993,-5155.91,50.66,-892.9799999999996
1482,1.482000,4006,5620994,-2650.91,-410.34,1881.0200000000004
1483,1.483000,4007,5621994,629.09,-306.34,2575.0200000000004
1484,1.484000,4008,5622994,3753.09,475.66,2445.0200000000004
1485,1.485000,4009,5623994,5695.09,829.66,2596.0200000000004
1486,1.486000,4010,5624994,6343.09,773.66,1678.0200000000004
1487,1.487000,4011,5625994,4702.09,547.66,1277.0200000000004
1488,1.488000,4012,5626994,1209.09,44.66,569.0200000000004
1489,1.489000,4013,5627994,-141.91,47.66,-1324.9799999999996
1490,1.490000,4014,5628994,665.09,-317.34,-1795.9799999999996
1491,1.491000,4015,5629994,2284.09,-859.34,-1790.9799999999996
1492,1.492000,4016,5630994,1814.09,-315.34,-2893.9799999999996
1493,1.493000,4017,5631994,-1563.91,-326.34,-2631.9799999999996
1494,1.494000,4018,5632994,-736.91,-629.34,-1158.9799999999996
1495,1.495000,4019,5633994,-1383.91,59.66,-582.9799999999996
1496,1.496000,4020,5634994,-1123.91,58.66,547.0200000000004
1497,1.497000,4021,5635994,-312.90999999999997,-156.34,2108.0200000000004
1498,1.498000,4022,5636994,-1920.91,986.66,2651.0200000000004
1499,1.499000,4023,5637994,-1587.91,1579.66,2756.0200000000004
1500,1.500000,4024,5638994,-1825.91,714.66,3348.0200000000004
1501,1.501000,4025,5639994,-4355.91,229.66,3581.0200000000004
1502,1.502000,4026,5640994,-9517.91,553.66,1853.0200000000004
1503,1.503000,4027,5641994,-11302.91,372.66,-521.9799999999996
1504,1.504000,4028,5642994,-3326.91,-31.34,-1021.9799999999996
1505,1.505000,4029,5643994,7139.09,235.66,-1581.9799999999996
1506,1.506000,4030,5644994,11766.09,-228.34,-1838.9799999999996
1507,1.507000,4031,5645994,10126.09,-391.34,-754.9799999999996
1508,1.508000,4032,5646994,1895.09,174.66,-739.9799999999996
1509,1.509000,4033,5647994,-4701.91,-94.34,-639.9799999999996
1510,1.510000,4034,5648994,-5722.91,-669.34,-361.97999999999956
1511,1.511000,4035,5649994,-582.91,-869.34,-1299.9799999999996
1512,1.512000,4036,5650994,3146.09,-688.34,-1621.9799999999996
1513,1.513000,4037,5651994,2567.09,-586.34,-1577.9799999999996
1514,1.514000,4038,5652994,48.09,-361.34,-2456.9799999999996
1515,1.515000,4039,5653994,-3709.91,61.66,-2195.9799999999996
1516,1.516000,4040,5654994,-3193.91,-209.34,625.0200000000004
1517,1.517000,4041,5655994,-824.91,-469.34,2644.0200000000004
1518,1.518000,4042,5656994,1404.09,76.66,2603.0200000000004
1519,1.519000,4043,5657994,5225.09,529.66,2818.0200000000004
1520,1.519999,4044,5658993,6233.09,949.66,2101.0200000000004
1521,1.521000,4045,5659994,4261.09,920.66,1349.0200000000004
1522,1.522000,4046,5660994,2514.09,129.66,1262.0200000000004
1523,1.523000,4047,5661994,1529.09,-83.34,-476.97999999999956
1524,1.524000,4048,5662994,729.09,-66.34,-1885.9799999999996
1525,1.525000,4049,5663994,1271.09,-607.34,-1664.9799999999996
1526,1.526000,4050,5664994,2059.09,-549.34,-2459.9799999999996
1527,1.527000,4051,5665994,215.09,-342.34,-3073.9799999999996
1528,1.528000,4052,5666994,-1364.91,-503.34,-1703.9799999999996
1529,1.529000,4053,5667994,-1501.91,-348.34,-619.9799999999996
1530,1.530000,4054,5668994,-1041.91,-45.34,-147.97999999999956
1531,1.531000,4055,5669994,-1410.91,-55.34,1357.0200000000004
1532,1.532000,4056,5670994,-1097.91,381.66,2628.0200000000004
1533,1.533000,4057,5671994,-1019.91,1309.66,2462.0200000000004
1534,1.534000,4058,5672994,-392.90999999999997,1342.66,2767.0200000000004
1535,1.534999,4059,5673993,-4081.91,626.66,3452.0200000000004
1536,1.536000,4060,5674994,-7856.91,114.66,3051.0200000000004
1537,1.537000,4061,5675994,-8936.91,456.66,759.0200000000004
1538,1.538000,4062,5676994,-8341.91,482.66,-1113.9799999999996
1539,1.538999,4063,5677993,551.09,305.66,-1113.9799999999996
1540,1.539999,4064,5678993,10255.09,-66.34,-1415.9799999999996
1541,1.541000,4065,5679994,12821.09,-596.34,-1194.9799999999996
1542,1.542000,4066,5680994,5899.09,74.66,-823.9799999999996
1543,1.543000,4067,5681994,-1893.91,102.66,-803.9799999999996
1544,1.544000,4068,5682994,-5680.91,-621.34,-326.97999999999956
1545,1.545000,4069,5683994,-4154.91,-731.34,-1138.9799999999996
1546,1.546000,4070,5684994,1804.09,-757.34,-1839.9799999999996
1547,1.547000,4071,5685994,3273.09,-601.34,-1353.9799999999996
1548,1.548000,4072,5686994,1707.09,-523.34,-1727.9799999999996
1549,1.549000,4073,5687994,-2335.91,-67.34,-2644.9799999999996
1550,1.550000,4074,5688994,-4434.91,191.66,-944.9799999999996
1551,1.551000,4075,5689994,-1590.91,-502.34,2250.0200000000004
1552,1.552000,4076,5690994,882.09,-317.34,2629.0200000000004
1553,1.553000,4077,5691994,3394.09,594.66,2300.0200000000004
1554,1.554000,4078,5692994,4751.09,813.66,2596.0200000000004
1555,1.555000,4079,5693994,5924.09,780.66,1820.0200000000004
1556,1.556000,4080,5694994,5034.09,485.66,1261.0200000000004
1557,1.557000,4081,5695994,1552.09,-45.34,298.02000000000044
1558,1.558000,4082,5696994,251.09,-36.34,-1298.9799999999996
1559,1.559000,4083,5697994,562.09,-300.34,-1853.9799999999996
1560,1.560000,4084,5698994,1790.09,-801.34,-2029.9799999999996
1561,1.561000,4085,5699994,1325.09,-352.34,-2976.9799999999996
1562,1.562000,4086,5700994,-1631.91,-396.34,-2575.9799999999996
1563,1.563000,4087,5701994,-874.91,-679.34,-957.9799999999996
1564,1.564000,4088,5702994,-795.91,-68.34,-530.9799999999996
1565,1.565000,4089,5703994,-884.91,46.66,594.0200000000004
1566,1.565999,4090,5704993,-197.91,15.66,2215.0200000000004
1567,1.567000,4091,5705994,-1832.91,812.66,2566.0200000000004
1568,1.568000,4092,5706994,-1694.91,1685.66,2716.0200000000004
1569,1.569000,4093,5707994,-1872.91,693.66,3558.0200000000004
1570,1.570000,4094,5708994,-5225.91,313.66,3463.0200000000004
1571,1.571000,4095,5709994,-9140.91,457.66,1690.0200000000004
1572,1.572000,4096,5710994,-10895.91,115.66,-542.9799999999996
1573,1.573000,4097,5711994,-3446.91,500.66,-1041.9799999999996
1574,1.573999,4098,5712993,7571.09,35.66,-1418.9799999999996
1575,1.575000,4099,5713994,11852.09,-321.34,-1729.9799999999996
1576,1.576000,4100,5714994,1330.09,147.66,-863.9799999999996
1577,1.577000,4101,5715994,-4628.91,-97.34,-485.97999999999956
1578,1.578000,4102,5716994,-5612.91,-652.34,-610.9799999999996
1579,1.579000,4103,5717994,-89.91,-846.34,-1516.9799999999996
1580,1.580000,4104,5718994,3476.09,-622.34,-1467.9799999999996
1581,1.581000,4105,5719994,2432.09,-552.34,-1433.9799999999996
1582,1.581999,4106,5720993,-307.90999999999997,-209.34,-2468.9799999999996
1583,1.583000,4107,5721994,-4076.91,142.66,-2170.9799999999996
1584,1.584000,4108,5722994,-3137.91,-325.34,915.0200000000004
1585,1.585000,4109,5723994,-753.91,-443.34,2654.0200000000004
1586,1.586000,4110,5724994,1324.09,46.66,2440.0200000000004
1587,1.587000,4111,5725994,5266.09,575.66,2715.0200000000004
1588,1.588000,4112,5726994,6475.09,952.66,2058.0200000000004
1589,1.589000,4113,5727994,4597.09,879.66,1198.0200000000004
1590,1.590000,4114,5728994,2524.09,136.66,1052.0200000000004
1591,1.591000,4115,5729994,1623.09,-84.34,-367.97999999999956
1592,1.592000,4116,5730994,825.09,-44.34,-1754.9799999999996
1593,1.593000,4117,5731994,793.09,-606.34,-1734.9799999999996
1594,1.594000,4118,5732994,1697.09,-681.34,-2383.9799999999996
1595,1.595000,4119,5733994,-88.91,-308.34,-2957.9799999999996
1596,1.596000,4120,5734994,-1250.91,-359.34,-1748.9799999999996
1597,1.597000,4121,5735994,-1007.91,-448.34,-760.9799999999996
1598,1.598000,4122,5736994,-590.91,109.66,-275.97999999999956
1599,1.599000,4123,5737994,-891.91,-193.34,1520.0200000000004
1600,1.600000,4124,5738994,-1242.91,371.66,2599.0200000000004
1601,1.601000,4125,5739994,-1326.91,1411.66,2532.0200000000004
1602,1.602000,4126,5740994,-920.91,1053.66,3074.0200000000004
1603,1.603000,4127,5741994,-4585.91,733.66,3416.0200000000004
1604,1.604000,4128,5742994,-7905.91,49.66,2993.0200000000004
1605,1.605000,4129,5743994,-9519.91,404.66,503.02000000000044
1606,1.606000,4130,5744994,-7679.91,428.66,-1253.9799999999996
1607,1.606999,4131,5745993,1914.09,41.66,-1214.9799999999996
1608,1.608000,4132,5746994,10390.09,-18.34,-1712.9799999999996
1609,1.609000,4133,5747994,12015.09,-378.34,-1210.9799999999996
1610,1.610000,4134,5748994,5098.09,67.66,-694.9799999999996
1611,1.611000,4135,5749994,-2027.91,215.66,-616.9799999999996
1612,1.612000,4136,5750994,-5149.91,-567.34,-58.97999999999956
1613,1.613000,4137,5751994,-3220.91,-814.34,-959.9799999999996
1614,1.614000,4138,5752994,1875.09,-686.34,-1626.9799999999996
1615,1.615000,4139,5753994,2940.09,-612.34,-1378.9799999999996
1616,1.616000,4140,5754994,1592.09,-482.34,-2157.9799999999996
1617,1.616999,4141,5755993,-2569.91,-84.34,-2780.9799999999996
1618,1.618000,4142,5756994,-4432.91,-22.34,-703.9799999999996
1619,1.619000,4143,5757994,-1823.91,-418.34,2056.0200000000004
1620,1.620000,4144,5758994,700.09,-301.34,2469.0200000000004
1621,1.621000,4145,5759994,3407.09,466.66,2479.0200000000004
1622,1.622000,4146,5760994,4884.09,927.66,2534.0200000000004
1623,1.623000,4147,5761994,6157.09,842.66,1811.0200000000004
1624,1.624000,4148,5762994,5191.09,496.66,1396.0200000000004
1625,1.625000,4149,5763994,1846.09,34.66,347.02000000000044
1626,1.626000,4150,5764994,262.09000000000003,-35.34,-1247.9799999999996
1627,1.627000,4151,5765994,361.09000000000003,-266.34,-1680.9799999999996
1628,1.627999,4152,5766993,1813.09,-803.34,-1958.9799999999996
1629,1.629000,4153,5767994,1318.09,-481.34,-3001.9799999999996
1630,1.630000,4154,5768994,-1829.91,-400.34,-2455.9799999999996
1631,1.631000,4155,5769994,-789.91,-616.34,-1116.9799999999996
1632,1.632000,4156,5770994,-1035.91,29.66,-812.9799999999996
1633,1.633000,4157,5771994,-994.91,36.66,527.0200000000004
1634,1.634000,4158,5772994,122.09,-13.34,2194.0200000000004
1635,1.635000,4159,5773994,-1627.91,988.66,2580.0200000000004
1636,1.636000,4160,5774994,-1779.91,1567.66,2785.0200000000004
1637,1.637000,4161,5775994,-2191.91,829.66,3579.0200000000004
1638,1.638000,4162,5776994,-4860.91,395.66,3657.0200000000004
1639,1.639000,4163,5777994,-8907.91,443.66,1755.0200000000004
1640,1.640000,4164,5778994,-10584.91,258.66,-725.9799999999996
1641,1.641000,4165,5779994,-3242.91,169.66,-1113.9799999999996
1642,1.642000,4166,5780994,6848.09,190.66,-1537.9799999999996
1643,1.642999,4167,5781993,11433.09,-250.34,-1856.9799999999996
1644,1.644000,4168,5782994,9253.09,-261.34,-914.9799999999996
1645,1.644999,4169,5783993,1400.09,104.66,-642.9799999999996
1646,1.646000,4170,5784994,-4260.91,-158.34,-281.97999999999956
1647,1.647000,4171,5785994,-5263.91,-627.34,-407.97999999999956
1648,1.648000,4172,5786994,-25.909999999999997,-903.34,-1347.9799999999996
1649,1.649000,4173,5787994,3146.09,-696.34,-1665.9799999999996
1650,1.650000,4174,5788994,2359.09,-521.34,-1641.9799999999996
1651,1.651000,4175,5789994,-187.91,-272.34,-2451.9799999999996
1652,1.652000,4176,5790994,-4012.91,37.66,-2273.9799999999996
1653,1.653000,4177,5791994,-3080.91,-195.34,525.0200000000004
1654,1.654000,4178,5792994,-668.91,-492.34,2687.0200000000004
1655,1.655000,4179,5793994,1630.09,-15.34,2670.0200000000004
1656,1.656000,4180,5794994,5470.09,507.66,2788.0200000000004
1657,1.657000,4181,5795994,6208.09,1055.66,2052.0200000000004
1658,1.658000,4182,5796994,4419.09,866.66,1272.0200000000004
1659,1.659000,4183,5797994,2501.09,30.66,1196.0200000000004
1660,1.660000,4184,5798994,1289.09,-59.34,-510.97999999999956
1661,1.661000,4185,5799994,619.09,-80.34,-1866.9799999999996
1662,1.662000,4186,5800994,1025.09,-683.34,-1673.9799999999996
1663,1.663000,4187,5801994,1505.09,-641.34,-2434.9799999999996
1664,1.664000,4188,5802994,-462.90999999999997,-340.34,-2940.9799999999996
1665,1.665000,4189,5803994,-1149.91,-481.34,-1728.9799999999996
1666,1.666000,4190,5804994,-1000.91,-198.34,-855.9799999999996
1667,1.667000,4191,5805994,-323.90999999999997,118.66,-177.97999999999956
1668,1.668000,4192,5806994,-399.90999999999997,-271.34,1565.0200000000004
1669,1.669000,4193,5807994,-1176.91,563.66,2515.0200000000004
1670,1.670000,4194,5808994,-1370.91,1410.66,2622.0200000000004
1671,1.671000,4195,5809994,-774.91,1036.66,3102.0200000000004
1672,1.672000,4196,5810994,-4515.91,806.66,3393.0200000000004
1673,1.673000,4197,5811994,-7810.91,-35.34,2928.0200000000004
1674,1.674000,4198,5812994,-9164.91,288.66,536.0200000000004
1675,1.675000,4199,5813994,-7874.91,589.66,-1394.9799999999996
1676,1.676000,4200,5814994,1444.09,99.66,-1403.9799999999996
1677,1.677000,4201,5815994,9640.09,-44.34,-1621.9799999999996
1678,1.678000,4202,5816994,11703.09,-402.34,-1140.9799999999996
1679,1.679000,4203,5817994,5321.09,-30.34,-620.9799999999996
1680,1.680000,4204,5818994,-1853.91,234.66,-523.9799999999996
1681,1.680999,4205,5819993,-4899.91,-568.34,65.02000000000044
1682,1.682000,4206,5820994,-3491.91,-782.34,-1036.9799999999996
1683,1.683000,4207,5821994,1726.09,-646.34,-1824.9799999999996
1684,1.684000,4208,5822994,3336.09,-669.34,-1470.9799999999996
1685,1.685000,4209,5823994,2111.09,-382.34,-2022.9799999999996
1686,1.686000,4210,5824994,-2270.91,27.66,-2659.9799999999996
1687,1.687000,4211,5825994,-4432.91,-75.34,-909.9799999999996
1688,1.688000,4212,5826994,-2318.91,-374.34,2008.0200000000004
1689,1.689000,4213,5827994,427.09000000000003,-335.34,2662.0200000000004
1690,1.690000,4214,5828994,3787.09,367.66,2462.0200000000004
1691,1.691000,4215,5829994,5407.09,929.66,2313.0200000000004
1692,1.692000,4216,5830994,6290.09,730.66,1789.0200000000004
1693,1.693000,4217,5831994,4496.09,385.66,1422.0200000000004
1694,1.694000,4218,5832994,1138.09,-9.34,121.02000000000044
1695,1.695000,4219,5833994,-424.90999999999997,146.66,-1367.9799999999996
1696,1.696000,4220,5834994,516.09,-350.34,-1399.9799999999996
1697,1.697000,4221,5835994,2311.09,-860.34,-1807.9799999999996
1698,1.698000,4222,5836994,1612.09,-377.34,-2930.9799999999996
1699,1.699000,4223,5837994,-1647.91,-314.34,-2341.9799999999996
1700,1.699999,4224,5838993,-963.91,-475.34,-1075.9799999999996
1701,1.701000,4225,5839994,-1220.91,-53.34,-720.9799999999996
1702,1.702000,4226,5840994,-940.91,-4.34,632.0200000000004
1703,1.703000,4227,5841994,425.09000000000003,-56.34,2292.0200000000004
1704,1.703999,4228,5842993,-1299.91,971.66,2578.0200000000004
1705,1.705000,4229,5843994,-1781.91,1473.66,2764.0200000000004
1706,1.706000,4230,5844994,-2385.91,665.66,3448.0200000000004
1707,1.707000,4231,5845994,-5279.91,385.66,3364.0200000000004
1708,1.708000,4232,5846994,-9178.91,364.66,1456.0200000000004
1709,1.709000,4233,5847994,-10532.91,282.66,-879.9799999999996
1710,1.710000,4234,5848994,-3382.91,406.66,-1102.9799999999996
1711,1.711000,4235,5849994,7596.09,32.66,-1384.9799999999996
1712,1.712000,4236,5850994,11553.09,-262.34,-1664.9799999999996
1713,1.713000,4237,5851994,9118.09,-197.34,-490.97999999999956
1714,1.714000,4238,5852994,1404.09,40.66,-403.97999999999956
1715,1.715000,4239,5853994,-4553.91,-42.34,-366.97999999999956
1716,1.716000,4240,5854994,-5186.91,-520.34,-488.97999999999956
1717,1.717000,4241,5855994,-167.91,-918.34,-1499.9799999999996
1718,1.717999,4242,5856993,3274.09,-800.34,-1648.9799999999996
1719,1.719000,4243,5857994,2416.09,-572.34,-1752.9799999999996
1720,1.720000,4244,5858994,-431.90999999999997,-190.34,-2652.9799999999996
1721,1.721000,4245,5859994,-3930.91,55.66,-2117.9799999999996
1722,1.722000,4246,5860994,-2906.91,-349.34,753.0200000000004
1723,1.723000,4247,5861994,-660.91,-334.34,2618.0200000000004
1724,1.724000,4248,5862994,1709.09,77.66,2494.0200000000004
1725,1.725000,4249,5863994,5600.09,569.66,2709.0200000000004
1726,1.726000,4250,5864994,6494.09,1074.66,2101.0200000000004
1727,1.727000,4251,5865994,4775.09,718.66,1427.0200000000004
1728,1.728000,4252,5866994,2154.09,72.66,1127.0200000000004
1729,1.729000,4253,5867994,850.09,45.66,-553.9799999999996
1730,1.730000,4254,5868994,542.09,-71.34,-1725.9799999999996
1731,1.731000,4255,5869994,1068.09,-640.34,-1681.9799999999996
1732,1.732000,4256,5870994,1696.09,-571.34,-2481.9799999999996
1733,1.733000,4257,5871994,-539.91,-345.34,-2893.9799999999996
1734,1.734000,4258,5872994,-1365.91,-480.34,-1721.9799999999996
1735,1.735000,4259,5873994,-1130.91,-272.34,-919.9799999999996
1736,1.736000,4260,5874994,-199.91,-7.34,-92.97999999999956
1737,1.737000,4261,5875994,-405.90999999999997,-164.34,1684.0200000000004
1738,1.738000,4262,5876994,-1387.91,604.66,2469.0200000000004
1739,1.739000,4263,5877994,-1286.91,1326.66,2608.0200000000004
1740,1.740000,4264,5878994,-849.91,1081.66,3252.0200000000004
1741,1.741000,4265,5879994,-4373.91,640.66,3338.0200000000004
1742,1.742000,4266,5880994,-8042.91,18.66,2719.0200000000004
1743,1.743000,4267,5881994,-9889.91,345.66,514.0200000000004
1744,1.744000,4268,5882994,-7210.91,569.66,-1321.9799999999996
1745,1.745000,4269,5883994,2792.09,96.66,-1201.9799999999996
1746,1.746000,4270,5884994,10093.09,-103.34,-1438.9799999999996
1747,1.747000,4271,5885994,11019.09,-331.34,-1116.9799999999996
1748,1.747999,4272,5886993,4800.09,-83.34,-546.9799999999996
1749,1.749000,4273,5887994,-2306.91,192.66,-488.97999999999956
1750,1.750000,4274,5888994,-5190.91,-458.34,-93.97999999999956
1751,1.751000,4275,5889994,-2834.91,-864.34,-1169.9799999999996
1752,1.752000,4276,5890994,1934.09,-663.34,-1857.9799999999996
1753,1.752999,4277,5891993,3028.09,-575.34,-1397.9799999999996
1754,1.754000,4278,5892994,1752.09,-548.34,-2038.9799999999996
1755,1.754999,4279,5893993,-2393.91,81.66,-2730.9799999999996
1756,1.756000,4280,5894994,-3955.91,-36.34,-708.9799999999996
1757,1.757000,4281,5895994,-1709.91,-454.34,2301.0200000000004
1758,1.758000,4282,5896994,433.09000000000003,-232.34,2680.0200000000004
1759,1.758999,4283,5897993,3690.09,536.66,2376.0200000000004
1760,1.760000,4284,5898994,5220.09,932.66,2287.0200000000004
1761,1.761000,4285,5899994,5891.09,606.66,1764.0200000000004
1762,1.762000,4286,5900994,5006.09,299.66,1434.0200000000004
1763,1.763000,4287,5901994,1564.09,96.66,70.02000000000044
1764,1.764000,4288,5902994,-433.90999999999997,135.66,-1446.9799999999996
1765,1.765000,4289,5903994,102.09,-412.34,-1626.9799999999996
1766,1.766000,4290,5904994,1709.09,-803.34,-1931.9799999999996
1767,1.767000,4291,5905994,1718.09,-475.34,-2770.9799999999996
1768,1.768000,4292,5906994,-1502.91,-167.34,-2331.9799999999996
1769,1.769000,4293,5907994,-853.91,-505.34,-999.9799999999996
1770,1.770000,4294,5908994,-1331.91,-20.34,-772.9799999999996
1771,1.771000,4295,5909994,-1039.91,221.66,709.0200000000004
1772,1.772000,4296,5910994,600.09,-31.34,2378.0200000000004
1773,1.773000,4297,5911994,-1112.91,919.66,2464.0200000000004
1774,1.774000,4298,5912994,-1369.91,1475.66,2884.0200000000004
1775,1.775000,4299,5913994,-2811.91,713.66,3535.0200000000004
1776,1.776000,4300,5914994,-5921.91,249.66,3328.0200000000004
1777,1.777000,4301,5915994,-9275.91,426.66,1274.0200000000004
1778,1.778000,4302,5916994,-9918.91,287.66,-837.9799999999996
1779,1.779000,4303,5917994,-2906.91,265.66,-1176.9799999999996
1780,1.780000,4304,5918994,7602.09,49.66,-1455.9799999999996
1781,1.781000,4305,5919994,11637.09,-296.34,-1610.9799999999996
1782,1.782000,4306,5920994,8463.09,-255.34,-506.97999999999956
1783,1.783000,4307,5921994,829.09,218.66,-356.97999999999956
1784,1.784000,4308,5922994,-4307.91,-128.34,-289.97999999999956
1785,1.785000,4309,5923994,-4710.91,-649.34,-378.97999999999956
1786,1.786000,4310,5924994,369.09000000000003,-811.34,-1444.9799999999996
1787,1.787000,4311,5925994,3436.09,-624.34,-1635.9799999999996
1788,1.788000,4312,5926994,2101.09,-452.34,-1720.9799999999996
1789,1.788999,4313,5927993,-755.91,-324.34,-2495.9799999999996
1790,1.790000,4314,5928994,-4092.91,-23.34,-2020.9799999999996
1791,1.791000,4315,5929994,-2980.91,-356.34,852.0200000000004
1792,1.791999,4316,5930993,-779.91,-486.34,2582.0200000000004
1793,1.793000,4317,5931994,1997.09,163.66,2288.0200000000004
1794,1.794000,4318,5932994,5293.09,758.66,2514.0200000000004
1795,1.795000,4319,5933994,6911.09,899.66,2072.0200000000004
1796,1.796000,4320,5934994,5105.09,654.66,1380.0200000000004
1797,1.797000,4321,5935994,1766.09,97.66,1052.0200000000004
1798,1.798000,4322,5936994,620.09,50.66,-491.97999999999956
1799,1.799000,4323,5937994,391.09000000000003,-81.34,-1708.9799999999996
1800,1.800000,4324,5938994,1472.09,-592.34,-1592.9799999999996
1801,1.801000,4325,5939994,1898.09,-524.34,-2344.9799999999996
1802,1.802000,4326,5940994,-517.91,-461.34,-2846.9799999999996
1803,1.803000,4327,5941994,-1417.91,-360.34,-1791.9799999999996
1804,1.804000,4328,5942994,-1170.91,-329.34,-800.9799999999996
1805,1.805000,4329,5943994,-543.91,-17.34,-153.97999999999956
1806,1.806000,4330,5944994,-573.91,-53.34,1541.0200000000004
1807,1.806999,4331,5945993,-1140.91,441.66,2622.0200000000004
1808,1.808000,4332,5946994,-1358.91,1421.66,2564.0200000000004
1809,1.809000,4333,5947994,-1139.91,1020.66,3191.0200000000004
1810,1.810000,4334,5948994,-4448.91,591.66,3305.0200000000004
1811,1.811000,4335,5949994,-8467.91,242.66,2610.0200000000004
1812,1.812000,4336,5950994,-9502.91,170.66,434.02000000000044
1813,1.813000,4337,5951994,-6621.91,468.66,-1507.9799999999996
1814,1.814000,4338,5952994,2882.09,329.66,-1301.9799999999996
1815,1.814999,4339,5953993,10469.09,-238.34,-1460.9799999999996
1816,1.815999,4340,5954993,10945.09,-166.34,-1132.9799999999996
1817,1.817000,4341,5955994,4243.09,-30.34,-494.97999999999956
1818,1.817999,4342,5956993,-2473.91,-60.34,-495.97999999999956
1819,1.819000,4343,5957994,-5228.91,-335.34,-50.97999999999956
1820,1.820000,4344,5958994,-2852.91,-929.34,-950.9799999999996
1821,1.821000,4345,5959994,1874.09,-681.34,-1846.9799999999996
1822,1.821999,4346,5960993,2972.09,-484.34,-1578.9799999999996
1823,1.822999,4347,5961993,2099.09,-600.34,-1960.9799999999996
1824,1.824000,4348,5962994,-2498.91,104.66,-2673.9799999999996
1825,1.825000,4349,5963994,-3757.91,8.66,-663.9799999999996
1826,1.826000,4350,5964994,-1341.91,-507.34,2219.0200000000004
1827,1.827000,4351,5965994,668.09,-149.34,2569.0200000000004
1828,1.828000,4352,5966994,4034.09,501.66,2473.0200000000004
1829,1.829000,4353,5967994,5213.09,872.66,2249.0200000000004
1830,1.830000,4354,5968994,5441.09,701.66,1677.0200000000004
1831,1.830999,4355,5969993,4148.09,166.66,1374.0200000000004
1832,1.832000,4356,5970994,1054.09,120.66,-53.97999999999956
1833,1.833000,4357,5971994,-388.90999999999997,173.66,-1503.9799999999996
1834,1.834000,4358,5972994,606.09,-491.34,-1597.9799999999996
1835,1.835000,4359,5973994,2241.09,-751.34,-2001.9799999999996
1836,1.836000,4360,5974994,1575.09,-299.34,-2740.9799999999996
1837,1.837000,4361,5975994,-1466.91,-342.34,-2059.9799999999996
1838,1.838000,4362,5976994,-909.91,-562.34,-860.9799999999996
1839,1.839000,4363,5977994,-1491.91,276.66,-637.9799999999996
1840,1.839999,4364,5978993,-1021.91,-34.34,893.0200000000004
1841,1.840999,4365,5979993,298.09000000000003,-44.34,2334.0200000000004
1842,1.842000,4366,5980994,-1323.91,1204.66,2398.0200000000004
1843,1.843000,4367,5981994,-1233.91,1291.66,2698.0200000000004
1844,1.844000,4368,5982994,-2324.91,527.66,3313.0200000000004
1845,1.845000,4369,5983994,-5715.91,302.66,3257.0200000000004
1846,1.846000,4370,5984994,-9298.91,285.66,1210.0200000000004
1847,1.847000,4371,5985994,-10430.91,282.66,-1027.9799999999996
1848,1.848000,4372,5986994,-2906.91,362.66,-1177.9799999999996
1849,1.849000,4373,5987994,8065.09,-50.34,-1311.9799999999996
1850,1.850000,4374,5988994,11788.09,-239.34,-1513.9799999999996
1851,1.851000,4375,5989994,8658.09,-179.34,-500.97999999999956
1852,1.852000,4376,5990994,711.09,143.66,-409.97999999999956
1853,1.853000,4377,5991994,-4792.91,-93.34,-356.97999999999956
1854,1.854000,4378,5992994,-5010.91,-543.34,-570.9799999999996
1855,1.855000,4379,5993994,520.09,-791.34,-1435.9799999999996
1856,1.856000,4380,5994994,3586.09,-703.34,-1469.9799999999996
1857,1.857000,4381,5995994,2354.09,-570.34,-1641.9799999999996
1858,1.858000,4382,5996994,-894.91,-218.34,-2486.9799999999996
1859,1.859000,4383,5997994,-4325.91,51.66,-1841.9799999999996
1860,1.860000,4384,5998994,-2987.91,-380.34,1013.0200000000004
1861,1.861000,4385,5999994,-570.91,-411.34,2420.0200000000004
1862,1.862000,4386,6000994,2675.09,155.66,2278.0200000000004
1863,1.863000,4387,6001994,5752.09,568.66,2623.0200000000004
1864,1.864000,4388,6002994,6547.09,884.66,1811.0200000000004
1865,1.865000,4389,6003994,4518.09,747.66,1275.0200000000004
1866,1.866000,4390,6004994,1126.09,52.66,1074.0200000000004
1867,1.867000,4391,6005994,478.09000000000003,12.66,-605.9799999999996
1868,1.868000,4392,6006994,799.09,-157.34,-1592.9799999999996
1869,1.869000,4393,6007994,1993.09,-647.34,-1479.9799999999996
1870,1.870000,4394,6008994,1923.09,-431.34,-2448.9799999999996
1871,1.871000,4395,6009994,-406.90999999999997,-383.34,-2799.9799999999996
1872,1.872000,4396,6010994,-1362.91,-388.34,-1549.9799999999996
1873,1.873000,4397,6011994,-1576.91,-160.34,-725.9799999999996
1874,1.874000,4398,6012994,-501.90999999999997,-51.34,-47.97999999999956
1875,1.875000,4399,6013994,-663.91,-139.34,1747.0200000000004
1876,1.876000,4400,6014994,-1497.91,607.66,2649.0200000000004
1877,1.877000,4401,6015994,-1348.91,1376.66,2472.0200000000004
1878,1.878000,4402,6016994,-1428.91,1017.66,3016.0200000000004
1879,1.878999,4403,6017993,-4305.91,495.66,3318.0200000000004
1880,1.880000,4404,6018994,-8105.91,112.66,2572.0200000000004
1881,1.881000,4405,6019994,-10214.91,407.66,235.02000000000044
1882,1.881999,4406,6020993,-6151.91,312.66,-1324.9799999999996
1883,1.883000,4407,6021994,3531.09,190.66,-1338.9799999999996
1884,1.884000,4408,6022994,10715.09,-54.34,-1464.9799999999996
1885,1.885000,4409,6023994,11331.09,-349.34,-974.9799999999996
1886,1.886000,4410,6024994,4230.09,153.66,-540.9799999999996
1887,1.886999,4411,6025993,-2793.91,162.66,-440.97999999999956
1888,1.888000,4412,6026994,-5551.91,-618.34,-178.97999999999956
1889,1.888999,4413,6027993,-2921.91,-720.34,-1179.9799999999996
1890,1.890000,4414,6028994,2178.09,-720.34,-1671.9799999999996
1891,1.891000,4415,6029994,3161.09,-637.34,-1475.9799999999996
1892,1.892000,4416,6030994,1378.09,-403.34,-2204.9799999999996
1893,1.893000,4417,6031994,-2899.91,-90.34,-2577.9799999999996
1894,1.894000,4418,6032994,-3959.91,-9.34,-423.97999999999956
1895,1.895000,4419,6033994,-1512.91,-491.34,2279.0200000000004
