row,seconds,esp32_index,micros,ax,ay,az
1,0.000000,63,1773508,-49,39,4424
2,0.000388,64,1773896,-49,39,4424
3,0.000789,65,1774297,-49,39,4424
4,0.001184,66,1774692,-68,44,4423
5,0.001585,67,1775093,-68,44,4423
6,0.001986,68,1775494,-59,46,4412
7,0.002381,69,1775889,-59,46,4412
8,0.002787,70,1776295,-59,46,4412
9,0.003187,71,1776695,-50,49,4383
10,0.003588,72,1777096,-50,49,4383
11,0.003990,73,1777498,-50,45,4357
12,0.004385,74,1777893,-50,45,4357
13,0.004791,75,1778299,-50,45,4357
14,0.005191,76,1778699,-45,24,4365
15,0.005590,77,1779098,-45,24,4365
16,0.005992,78,1779500,-67,3,4348
17,0.006387,79,1779895,-67,3,4348
18,0.006793,80,1780301,-67,3,4348
19,0.007193,81,1780701,-90,40,4355
20,0.007594,82,1781102,-90,40,4355
21,0.007996,83,1781504,-68,71,4380
22,0.008390,84,1781898,-68,71,4380
23,0.008796,85,1782304,-68,71,4380
24,0.009196,86,1782704,-50,67,4382
25,0.009596,87,1783104,-50,67,4382
26,0.009997,88,1783505,-69,54,4378
27,0.010393,89,1783901,-69,54,4378
28,0.010796,90,1784304,-69,54,4378
29,0.011197,91,1784705,-76,40,4360
30,0.011597,92,1785105,-76,40,4360
31,0.011993,93,1785501,-28,37,4368
32,0.012389,94,1785897,-28,37,4368
33,0.012795,95,1786303,-28,37,4368
34,0.013190,96,1786698,-24,30,4397
35,0.013590,97,1787098,-24,30,4397
36,0.013993,98,1787501,-54,39,4389
37,0.014387,99,1787895,-54,39,4389
38,0.014792,100,1788300,-54,39,4389
39,0.015188,101,1788696,-67,32,4365
40,0.015588,102,1789096,-67,32,4365
41,0.015990,103,1789498,-70,42,4373
42,0.016384,104,1789892,-70,42,4373
43,0.016783,105,1790291,-70,42,4373
44,0.017184,106,1790692,-69,65,4392
45,0.017585,107,1791093,-69,65,4392
46,0.017982,108,1791490,-44,48,4375
47,0.018378,109,1791886,-44,48,4375
48,0.018784,110,1792292,-44,48,4375
49,0.019185,111,1792693,-36,33,4351
50,0.019585,112,1793093,-36,33,4351
51,0.019989,113,1793497,-58,43,4370
52,0.020385,114,1793893,-58,43,4370
53,0.020790,115,1794298,-58,43,4370
54,0.021191,116,1794699,-73,44,4389
55,0.021592,117,1795100,-73,44,4389
56,0.021993,118,1795501,-62,46,4374
57,0.022396,119,1795904,-62,46,4374
58,0.022794,120,1796302,-62,46,4374
59,0.023186,121,1796694,-65,62,4374
60,0.023584,122,1797092,-65,62,4374
61,0.023992,123,1797500,-43,45,4390
62,0.024380,124,1797888,-43,45,4390
63,0.024794,125,1798302,-43,45,4390
64,0.025194,126,1798702,-6,4,4400
65,0.025587,127,1799095,-6,4,4400
66,0.025989,128,1799497,-58,26,4414
67,0.026372,129,1799880,-58,26,4414
68,0.026763,130,1800271,-58,26,4414
69,0.027159,131,1800667,-93,53,4389
70,0.027561,132,1801069,-93,53,4389
71,0.027947,133,1801455,-64,24,4380
72,0.028341,134,1801849,-64,24,4380
73,0.028736,135,1802244,-64,24,4380
74,0.029131,136,1802639,-48,30,4382
75,0.029537,137,1803045,-48,30,4382
76,0.029938,138,1803446,-59,61,4351
77,0.030338,139,1803846,-59,61,4351
78,0.030739,140,1804247,-59,61,4351
79,0.031127,141,1804635,-67,59,4390
80,0.031535,142,1805043,-67,59,4390
81,0.031937,143,1805445,-81,30,4401
82,0.032338,144,1805846,-81,30,4401
83,0.032731,145,1806239,-81,30,4401
84,0.033127,146,1806635,-76,30,4365
85,0.033519,147,1807027,-76,30,4365
86,0.033888,148,1807396,-41,40,4388
87,0.034281,149,1807789,-41,40,4388
88,0.034682,150,1808190,-41,40,4388
89,0.035068,151,1808576,-55,30,4384
90,0.035471,152,1808979,-55,30,4384
91,0.035873,153,1809381,-85,26,4381
92,0.036267,154,1809775,-85,26,4381
93,0.036669,155,1810177,-85,26,4381
94,0.037055,156,1810563,-41,30,4410
95,0.037464,157,1810972,-41,30,4410
96,0.037857,158,1811365,-4,26,4388
97,0.038265,159,1811773,-4,26,4388
98,0.038666,160,1812174,-4,26,4388
99,0.039052,161,1812560,-60,24,4342
100,0.039454,162,1812962,-60,24,4342
101,0.039862,163,1813370,-93,22,4344
102,0.040256,164,1813764,-93,22,4344
103,0.040657,165,1814165,-93,22,4344
104,0.041050,166,1814558,-63,29,4370
105,0.041458,167,1814966,-63,29,4370
106,0.041853,168,1815361,-63,29,4370
107,0.042254,169,1815762,-48,45,4355
108,0.042654,170,1816162,-48,45,4355
109,0.043042,171,1816550,-78,39,4326
110,0.043435,172,1816943,-78,39,4326
111,0.043836,173,1817344,-78,39,4326
112,0.044237,174,1817745,-60,39,4355
113,0.044629,175,1818137,-60,39,4355
114,0.045019,176,1818527,-31,44,4386
115,0.045420,177,1818928,-31,44,4386
116,0.045805,178,1819313,-31,44,4386
117,0.046188,179,1819696,-56,32,4369
118,0.046589,180,1820097,-56,32,4369
119,0.046985,181,1820493,-62,50,4365
120,0.047380,182,1820888,-62,50,4365
121,0.047786,183,1821294,-62,50,4365
122,0.048186,184,1821694,-76,54,4388
123,0.048588,185,1822096,-76,54,4388
124,0.048985,186,1822493,-102,46,4390
125,0.049380,187,1822888,-102,46,4390
126,0.049784,188,1823292,-102,46,4390
127,0.050185,189,1823693,-55,62,4356
128,0.050586,190,1824094,-55,62,4356
129,0.050986,191,1824494,-15,52,4381
130,0.051381,192,1824889,-15,52,4381
131,0.051786,193,1825294,-15,52,4381
132,0.052187,194,1825695,-58,37,4396
133,0.052588,195,1826096,-58,37,4396
134,0.052982,196,1826490,-66,44,4370
135,0.053351,197,1826859,-66,44,4370
136,0.053731,198,1827239,-66,44,4370
137,0.054129,199,1827637,-21,60,4394
138,0.054529,200,1828037,-21,60,4394
139,0.054938,201,1828446,-3,66,4406
140,0.055338,202,1828846,-3,66,4406
141,0.055733,203,1829241,-3,66,4406
142,0.056128,204,1829636,-31,61,4387
143,0.056538,205,1830046,-31,61,4387
144,0.056942,206,1830450,-57,41,4381
145,0.057337,207,1830845,-57,41,4381
146,0.057737,208,1831245,-57,41,4381
147,0.058133,209,1831641,-42,43,4365
148,0.058532,210,1832040,-42,43,4365
149,0.058926,211,1832434,-30,36,4360
150,0.059323,212,1832831,-30,36,4360
151,0.059722,213,1833230,-30,36,4360
152,0.060118,214,1833626,-47,37,4349
153,0.060518,215,1834026,-47,37,4349
154,0.060921,216,1834429,-64,42,4335
155,0.061315,217,1834823,-64,42,4335
156,0.061713,218,1835221,-64,42,4335
157,0.062104,219,1835612,-74,27,4373
158,0.062495,220,1836003,-74,27,4373
159,0.062896,221,1836404,-57,49,4391
160,0.063467,222,1836975,-57,49,4391
161,0.064467,223,1837975,-54,22,4366
162,0.065467,224,1838975,-81,5,4361
163,0.066466,225,1839974,-55,46,4374
164,0.067467,226,1840975,-43,50,4394
165,0.068467,227,1841975,-69,44,4384
166,0.069467,228,1842975,-51,46,4370
167,0.070467,229,1843975,-33,42,4405
168,0.071467,230,1844975,-36,29,4417
169,0.072466,231,1845974,-52,22,4405
170,0.073467,232,1846975,-47,33,4392
171,0.074466,233,1847974,-41,49,4377
172,0.075467,234,1848975,-60,36,4375
173,0.076467,235,1849975,-58,19,4388
174,0.077467,236,1850975,-50,17,4368
175,0.078467,237,1851975,-46,15,4361
176,0.079467,238,1852975,-54,39,4400
177,0.080467,239,1853975,-64,49,4405
178,0.081467,240,1854975,-52,30,4377
179,0.082467,241,1855975,-47,29,4377
180,0.083467,242,1856975,-32,39,4380
181,0.084466,243,1857974,-28,35,4369
182,0.085467,244,1858975,-59,40,4368
183,0.086466,245,1859974,-79,47,4376
184,0.087467,246,1860975,-66,28,4398
185,0.088467,247,1861975,-60,44,4404
186,0.089467,248,1862975,-76,39,4381
187,0.090467,249,1863975,-63,16,4369
188,0.091467,250,1864975,-38,33,4393
189,0.092467,251,1865975,-51,35,4416
190,0.093467,252,1866975,-67,45,4412
191,0.094467,253,1867975,-55,55,4396
192,0.095467,254,1868975,-61,42,4400
193,0.096467,255,1869975,-58,50,4382
194,0.097467,256,1870975,-35,55,4371
195,0.098467,257,1871975,-37,53,4370
196,0.099467,258,1872975,-61,57,4359
197,0.100467,259,1873975,-67,49,4382
198,0.101467,260,1874975,-49,51,4415
199,0.102467,261,1875975,-44,57,4415
200,0.103467,262,1876975,-64,60,4361
201,0.104467,263,1877975,-74,47,4351
202,0.105467,264,1878975,-61,37,4389
203,0.106467,265,1879975,-48,31,4391
204,0.107467,266,1880975,-45,30,4364
205,0.108467,267,1881975,-54,40,4373
206,0.109467,268,1882975,-56,47,4398
207,0.110467,269,1883975,-54,39,4413
208,0.111467,270,1884975,-66,29,4429
209,0.112467,271,1885975,-69,35,4411
210,0.113467,272,1886975,-62,47,4391
211,0.114467,273,1887975,-64,45,4394
212,0.115467,274,1888975,-56,34,4382
213,0.116467,275,1889975,-37,45,4360
214,0.117466,276,1890974,-37,58,4363
215,0.118467,277,1891975,-54,51,4378
216,0.119467,278,1892975,-56,40,4384
217,0.120467,279,1893975,-62,38,4380
218,0.121467,280,1894975,-69,41,4393
219,0.122467,281,1895975,-54,37,4398
220,0.123467,282,1896975,-52,19,4374
221,0.124467,283,1897975,-54,20,4353
222,0.125467,284,1898975,-40,38,4381
223,0.126467,285,1899975,-42,48,4399
224,0.127467,286,1900975,-65,49,4393
225,0.128467,287,1901975,-60,22,4401
226,0.129467,288,1902975,-44,22,4378
227,0.130467,289,1903975,-59,42,4355
228,0.131467,290,1904975,-54,35,4364
229,0.132467,291,1905975,-39,42,4361
230,0.133467,292,1906975,-55,41,4354
231,0.134467,293,1907975,-53,37,4353
232,0.135467,294,1908975,-39,42,4374
233,0.136467,295,1909975,-55,45,4394
234,0.137467,296,1910975,-69,42,4404
235,0.138467,297,1911975,-55,39,4398
236,0.139467,298,1912975,-41,59,4385
237,0.140467,299,1913975,-46,48,4413
238,0.141467,300,1914975,-54,18,4400
239,0.142467,301,1915975,-69,32,4398
240,0.143467,302,1916975,-69,50,4385
241,0.144467,303,1917975,-59,58,4347
242,0.145467,304,1918975,-45,51,4339
243,0.146467,305,1919975,-56,32,4344
244,0.147467,306,1920975,-64,36,4369
245,0.148466,307,1921974,-45,42,4373
246,0.149467,308,1922975,-59,44,4376
247,0.150467,309,1923975,-63,51,4388
248,0.151467,310,1924975,-54,40,4391
249,0.152467,311,1925975,-63,46,4387
250,0.153467,312,1926975,-89,70,4386
251,0.154467,313,1927975,-74,51,4402
252,0.155467,314,1928975,-50,47,4389
253,0.156467,315,1929975,-69,45,4379
254,0.157467,316,1930975,-53,25,4373
255,0.158467,317,1931975,-52,37,4376
256,0.159467,318,1932975,-75,26,4373
257,0.160467,319,1933975,-54,26,4350
258,0.161467,320,1934975,-31,39,4368
259,0.162467,321,1935975,-54,38,4390
260,0.163467,322,1936975,-77,35,4390
261,0.164467,323,1937975,-54,29,4394
262,0.165467,324,1938975,-43,41,4387
263,0.166467,325,1939975,-44,63,4376
264,0.167467,326,1940975,-43,68,4375
265,0.168467,327,1941975,-40,46,4387
266,0.169467,328,1942975,-45,39,4402
267,0.170467,329,1943975,-49,34,4391
268,0.171467,330,1944975,-35,28,4386
269,0.172466,331,1945974,-33,43,4390
270,0.173467,332,1946975,-54,52,4398
271,0.174467,333,1947975,-75,47,4398
272,0.175467,334,1948975,-71,57,4418
273,0.176467,335,1949975,-74,54,4425
274,0.177467,336,1950975,-73,49,4389
275,0.178467,337,1951975,-59,55,4370
276,0.179467,338,1952975,-50,32,4353
277,0.180467,339,1953975,-66,39,4348
278,0.181467,340,1954975,-71,44,4351
279,0.182467,341,1955975,-35,26,4373
280,0.183466,342,1956974,-36,45,4410
281,0.184467,343,1957975,-60,37,4431
282,0.185467,344,1958975,-58,15,4410
283,0.186467,345,1959975,-48,20,4389
284,0.187467,346,1960975,-52,36,4416
285,0.188467,347,1961975,-66,58,4410
286,0.189467,348,1962975,-65,62,4411
287,0.190467,349,1963975,-42,51,4418
288,0.191467,350,1964975,-39,53,4412
289,0.192467,351,1965975,-59,58,4402
290,0.193467,352,1966975,-62,55,4366
291,0.194467,353,1967975,-60,62,4354
292,0.195467,354,1968975,-65,52,4367
293,0.196467,355,1969975,-53,45,4385
294,0.197467,356,1970975,-43,42,4387
295,0.198467,357,1971975,-45,38,4371
296,0.199467,358,1972975,-51,48,4358
297,0.200467,359,1973975,-68,42,4363
298,0.201467,360,1974975,-53,34,4389
299,0.202467,361,1975975,-52,36,4392
300,0.203467,362,1976975,-73,43,4370
301,0.204467,363,1977975,-69,40,4375
302,0.205467,364,1978975,-49,23,4389
303,0.206467,365,1979975,-33,26,4367
304,0.207467,366,1980975,-59,40,4377
305,0.208467,367,1981975,-78,44,4399
306,0.209467,368,1982975,-73,41,4381
307,0.210467,369,1983975,-54,52,4380
308,0.211467,370,1984975,-33,67,4375
309,0.212467,371,1985975,-47,60,4372
310,0.213467,372,1986975,-37,49,4377
311,0.214467,373,1987975,-39,34,4387
312,0.215467,374,1988975,-41,16,4379
313,0.216467,375,1989975,-39,33,4378
314,0.217467,376,1990975,-51,48,4401
315,0.218467,377,1991975,-61,41,4405
316,0.219466,378,1992974,-75,48,4404
317,0.220467,379,1993975,-47,57,4380
318,0.221467,380,1994975,-35,55,4379
319,0.222467,381,1995975,-52,50,4388
320,0.223467,382,1996975,-53,36,4386
321,0.224467,383,1997975,-58,48,4378
322,0.225467,384,1998975,-59,63,4366
323,0.226467,385,1999975,-52,46,4381
324,0.227467,386,2000975,-54,42,4378
325,0.228467,387,2001975,-56,53,4365
326,0.229467,388,2002975,-58,51,4375
327,0.230467,389,2003975,-58,38,4385
328,0.231467,390,2004975,-51,57,4397
329,0.232466,391,2005974,-38,63,4405
330,0.233467,392,2006975,-41,53,4394
331,0.234467,393,2007975,-35,54,4391
332,0.235467,394,2008975,-22,43,4392
333,0.236467,395,2009975,-44,45,4394
334,0.237467,396,2010975,-60,49,4394
335,0.238467,397,2011975,-57,47,4382
336,0.239467,398,2012975,-54,49,4361
337,0.240467,399,2013975,-57,37,4352
338,0.241467,400,2014975,-66,39,4364
339,0.242467,401,2015975,-56,47,4370
340,0.243467,402,2016975,-41,42,4375
341,0.244467,403,2017975,-44,47,4374
342,0.245467,404,2018975,-50,28,4360
343,0.246467,405,2019975,-68,27,4375
344,0.247467,406,2020975,-84,46,4389
345,0.248467,407,2021975,-80,36,4384
346,0.249467,408,2022975,-52,39,4383
347,0.250466,409,2023974,-22,55,4379
348,0.251467,410,2024975,-39,55,4391
349,0.252466,411,2025974,-61,44,4387
350,0.253467,412,2026975,-63,42,4377
351,0.254467,413,2027975,-56,47,4381
352,0.255467,414,2028975,-31,38,4396
353,0.256467,415,2029975,-34,45,4389
354,0.257467,416,2030975,-58,48,4374
355,0.258466,417,2031974,-52,40,4376
356,0.259467,418,2032975,-44,44,4389
357,0.260467,419,2033975,-60,49,4383
358,0.261467,420,2034975,-65,48,4381
359,0.262467,421,2035975,-60,48,4418
360,0.263467,422,2036975,-54,52,4401
361,0.264467,423,2037975,-46,43,4344
362,0.265467,424,2038975,-62,46,4349
363,0.266467,425,2039975,-64,48,4390
364,0.267467,426,2040975,-48,49,4382
365,0.268467,427,2041975,-42,38,4375
366,0.269467,428,2042975,-48,18,4377
367,0.270466,429,2043974,-64,26,4385
368,0.271467,430,2044975,-63,45,4384
369,0.272466,431,2045974,-53,47,4374
370,0.273467,432,2046975,-47,48,4369
371,0.274467,433,2047975,-52,36,4350
372,0.275467,434,2048975,-56,24,4367
373,0.276467,435,2049975,-56,26,4397
374,0.277467,436,2050975,-64,55,4382
375,0.278467,437,2051975,-67,80,4366
376,0.279466,438,2052974,-77,65,4388
377,0.280467,439,2053975,-71,53,4385
378,0.281467,440,2054975,-50,47,4349
379,0.282467,441,2055975,-62,41,4353
380,0.283467,442,2056975,-54,43,4395
381,0.284467,443,2057975,-48,54,4374
382,0.285467,444,2058975,-81,51,4345
383,0.286467,445,2059975,-75,43,4373
384,0.287466,446,2060974,-68,43,4393
385,0.288467,447,2061975,-63,35,4407
386,0.289467,448,2062975,-57,26,4410
387,0.290467,449,2063975,-59,25,4399
388,0.291466,450,2064974,-51,17,4354
389,0.292466,451,2065974,-67,24,4339
390,0.293467,452,2066975,-71,38,4375
391,0.294467,453,2067975,-48,30,4382
392,0.295467,454,2068975,-27,1,4386
393,0.296467,455,2069975,-50,24,4410
394,0.297467,456,2070975,-75,51,4394
395,0.298467,457,2071975,-62,41,4367
396,0.299467,458,2072975,-62,64,4395
397,0.300467,459,2073975,-47,67,4419
398,0.301467,460,2074975,-41,33,4417
399,0.302467,461,2075975,-69,33,4424
400,0.303466,462,2076974,-78,58,4432
401,0.304467,463,2077975,-41,41,4405
402,0.305467,464,2078975,-30,37,4366
403,0.306467,465,2079975,-47,45,4364
404,0.307467,466,2080975,-39,28,4403
405,0.308467,467,2081975,-36,41,4416
406,0.309466,468,2082974,-41,56,4374
407,0.310466,469,2083974,-55,41,4353
408,0.311467,470,2084975,-59,41,4358
409,0.312467,471,2085975,-34,53,4353
410,0.313467,472,2086975,-37,45,4371
411,0.314467,473,2087975,-67,35,4393
412,0.315467,474,2088975,-79,41,4393
413,0.316467,475,2089975,-44,59,4389
414,0.317466,476,2090974,-38,70,4386
415,0.318467,477,2091975,-71,63,4397
416,0.319467,478,2092975,-61,56,4396
417,0.320467,479,2093975,-48,48,4379
418,0.321466,480,2094974,-56,43,4376
419,0.322467,481,2095975,-64,48,4385
420,0.323467,482,2096975,-79,43,4400
421,0.324467,483,2097975,-74,29,4389
422,0.325467,484,2098975,-48,40,4366
423,0.326467,485,2099975,-51,58,4368
424,0.327466,486,2100974,-57,54,4375
425,0.328467,487,2101975,-67,47,4383
426,0.329466,488,2102974,-70,39,4384
427,0.330467,489,2103975,-67,21,4355
428,0.331467,490,2104975,-53,19,4337
429,0.332467,491,2105975,-42,25,4359
430,0.333467,492,2106975,-50,44,4387
431,0.334467,493,2107975,-67,56,4385
432,0.335466,494,2108974,-79,32,4375
433,0.336467,495,2109975,-83,30,4385
434,0.337467,496,2110975,-77,50,4388
435,0.338467,497,2111975,-55,41,4397
436,0.339467,498,2112975,-63,36,4397
437,0.340467,499,2113975,-79,61,4407
438,0.341467,500,2114975,-62,57,4411
439,0.342467,501,2115975,-48,41,4388
440,0.343467,502,2116975,-58,45,4389
441,0.344467,503,2117975,-61,48,4380
442,0.345467,504,2118975,-70,57,4371
443,0.346466,505,2119974,-64,57,4387
444,0.347467,506,2120975,-58,39,4386
445,0.348466,507,2121974,-57,31,4371
446,0.349467,508,2122975,-32,37,4381
447,0.350467,509,2123975,-36,43,4384
448,0.351467,510,2124975,-26,40,4383
449,0.352467,511,2125975,-35,32,4402
450,0.353467,512,2126975,-58,31,4406
451,0.354467,513,2127975,-47,38,4404
452,0.355467,514,2128975,-58,31,4389
453,0.356467,515,2129975,-71,34,4391
454,0.357467,516,2130975,-63,45,4406
455,0.358467,517,2131975,-45,28,4378
456,0.359467,518,2132975,-42,34,4369
457,0.360467,519,2133975,-56,35,4382
458,0.361467,520,2134975,-35,18,4398
459,0.362467,521,2135975,-24,26,4416
460,0.363467,522,2136975,-37,31,4391
461,0.364467,523,2137975,-34,39,4385
462,0.365466,524,2138974,-57,56,4404
463,0.366467,525,2139975,-76,57,4372
464,0.367467,526,2140975,-68,33,4378
465,0.368467,527,2141975,-60,8,4418
466,0.369467,528,2142975,-71,11,4412
467,0.370467,529,2143975,-56,47,4398
468,0.371467,530,2144975,-32,71,4382
469,0.372467,531,2145975,-49,58,4385
470,0.373467,532,2146975,-73,61,4416
471,0.374467,533,2147975,-69,59,4396
472,0.375467,534,2148975,-56,37,4360
473,0.376467,535,2149975,-50,47,4389
474,0.377466,536,2150974,-46,41,4385
475,0.378466,537,2151974,-58,32,4359
476,0.379467,538,2152975,-58,52,4370
477,0.380467,539,2153975,-42,33,4359
478,0.381467,540,2154975,-37,32,4358
479,0.382467,541,2155975,-30,49,4377
480,0.383467,542,2156975,-37,34,4374
481,0.384467,543,2157975,-44,41,4369
482,0.385467,544,2158975,-40,54,4383
483,0.386467,545,2159975,-49,43,4401
484,0.387467,546,2160975,-61,36,4398
485,0.388467,547,2161975,-58,36,4392
486,0.389466,548,2162974,-44,60,4407
487,0.390467,549,2163975,-53,63,4394
488,0.391467,550,2164975,-72,43,4360
489,0.392467,551,2165975,-77,43,4369
490,0.393467,552,2166975,-77,50,4395
491,0.394467,553,2167975,-53,65,4401
492,0.395467,554,2168975,-34,52,4382
493,0.396467,555,2169975,-46,40,4355
494,0.397467,556,2170975,-61,54,4367
495,0.398467,557,2171975,-66,53,4388
496,0.399467,558,2172975,-48,36,4385
497,0.400467,559,2173975,-37,41,4399
498,0.401467,560,2174975,-54,44,4412
499,0.402467,561,2175975,-67,35,4399
500,0.403466,562,2176974,-53,32,4382
501,0.404466,563,2177974,-51,43,4376
502,0.405467,564,2178975,-54,38,4394
503,0.406467,565,2179975,-47,32,4416
504,0.407467,566,2180975,-38,43,4417
505,0.408467,567,2181975,-70,46,4400
506,0.409467,568,2182975,-77,33,4380
507,0.410467,569,2183975,-48,31,4403
508,0.411467,570,2184975,-45,40,4409
509,0.412467,571,2185975,-36,37,4393
510,0.413467,572,2186975,-52,46,4388
511,0.414467,573,2187975,-65,45,4388
512,0.415467,574,2188975,-43,35,4389
513,0.416467,575,2189975,-57,31,4372
514,0.417467,576,2190975,-68,32,4384
515,0.418466,577,2191974,-58,45,4399
516,0.419467,578,2192975,-66,47,4373
517,0.420466,579,2193974,-56,50,4378
518,0.421466,580,2194974,-37,44,4390
519,0.422467,581,2195975,-36,29,4395
520,0.423467,582,2196975,-39,27,4385
521,0.424467,583,2197975,-62,40,4370
522,0.425467,584,2198975,-58,52,4383
523,0.426467,585,2199975,-43,52,4368
524,0.427467,586,2200975,-71,46,4386
525,0.428467,587,2201975,-71,46,4407
526,0.429467,588,2202975,-58,34,4392
527,0.430467,589,2203975,-62,36,4388
528,0.431467,590,2204975,-62,41,4403
529,0.432467,591,2205975,-47,48,4385
530,0.433467,592,2206975,-62,57,4395
531,0.434467,593,2207975,-89,36,4411
532,0.435467,594,2208975,-70,41,4373
533,0.436467,595,2209975,-47,47,4371
534,0.437467,596,2210975,-50,50,4392
535,0.438467,597,2211975,-40,55,4384
536,0.439467,598,2212975,-19,44,4385
537,0.440466,599,2213974,-46,50,4398
538,0.441467,600,2214975,-75,52,4379
539,0.442467,601,2215975,-54,23,4384
540,0.443467,602,2216975,-49,23,4395
541,0.444467,603,2217975,-59,41,4386
542,0.445467,604,2218975,-45,37,4372
543,0.446467,605,2219975,-37,19,4376
544,0.447467,606,2220975,-56,28,4377
545,0.448467,607,2221975,-66,49,4372
546,0.449466,608,2222974,-64,39,4402
547,0.450467,609,2223975,-70,29,4394
548,0.451467,610,2224975,-56,33,4384
549,0.452467,611,2225975,-32,36,4400
550,0.453466,612,2226974,-39,38,4395
551,0.454466,613,2227974,-62,40,4402
552,0.455467,614,2228975,-54,57,4388
553,0.456467,615,2229975,-34,55,4375
554,0.457466,616,2230974,-62,46,4392
555,0.458467,617,2231975,-88,51,4395
556,0.459467,618,2232975,-59,47,4399
557,0.460467,619,2233975,-53,34,4391
558,0.461467,620,2234975,-84,36,4386
559,0.462467,621,2235975,-62,40,4370
560,0.463467,622,2236975,-23,24,4371
561,0.464467,623,2237975,-58,24,4376
562,0.465467,624,2238975,-67,31,4359
563,0.466467,625,2239975,-37,34,4371
564,0.467467,626,2240975,-69,43,4408
565,0.468467,627,2241975,-93,49,4409
566,0.469467,628,2242975,-65,45,4403
567,0.470467,629,2243975,-40,47,4415
568,0.471467,630,2244975,-64,47,4405
569,0.472467,631,2245975,-62,45,4400
570,0.473467,632,2246975,-43,43,4381
571,0.474467,633,2247975,-58,39,4375
572,0.475467,634,2248975,-69,41,4375
573,0.476467,635,2249975,-31,52,4379
574,0.477467,636,2250975,-17,54,4390
575,0.478467,637,2251975,-69,41,4401
576,0.479467,638,2252975,-69,27,4391
577,0.480467,639,2253975,-32,16,4371
578,0.481467,640,2254975,-42,36,4375
579,0.482467,641,2255975,-69,56,4378
580,0.483467,642,2256975,-49,39,4376
581,0.484467,643,2257975,-29,23,4385
582,0.485467,644,2258975,-43,21,4403
583,0.486467,645,2259975,-54,31,4400
584,0.487467,646,2260975,-54,37,4378
585,0.488467,647,2261975,-52,36,4364
586,0.489467,648,2262975,-53,47,4370
587,0.490467,649,2263975,-38,52,4377
588,0.491467,650,2264975,-50,41,4407
589,0.492466,651,2265974,-61,24,4396
590,0.493467,652,2266975,-29,16,4357
591,0.494467,653,2267975,-42,24,4368
592,0.495467,654,2268975,-48,36,4383
593,0.496467,655,2269975,-44,41,4374
594,0.497467,656,2270975,-71,37,4366
595,0.498467,657,2271975,-74,42,4372
596,0.499467,658,2272975,-76,48,4365
597,0.500466,659,2273974,-77,48,4365
598,0.501467,660,2274975,-52,53,4391
599,0.502467,661,2275975,-29,40,4384
600,0.503467,662,2276975,-48,32,4370
601,0.504467,663,2277975,-67,33,4382
602,0.505467,664,2278975,-56,33,4382
603,0.506467,665,2279975,-52,46,4378
604,0.507467,666,2280975,-52,47,4363
605,0.508467,667,2281975,-56,40,4359
606,0.509467,668,2282975,-46,51,4360
607,0.510467,669,2283975,-24,50,4367
608,0.511467,670,2284975,-38,36,4385
609,0.512467,671,2285975,-64,34,4384
610,0.513467,672,2286975,-47,36,4378
611,0.514467,673,2287975,-38,45,4390
612,0.515467,674,2288975,-57,53,4394
613,0.516467,675,2289975,-51,37,4396
614,0.517467,676,2290975,-22,27,4397
615,0.518466,677,2291974,-43,43,4388
616,0.519467,678,2292975,-76,48,4400
617,0.520467,679,2293975,-66,33,4405
618,0.521466,680,2294974,-35,33,4379
619,0.522467,681,2295975,-35,53,4367
620,0.523467,682,2296975,-53,47,4344
621,0.524467,683,2297975,-52,45,4323
622,0.525467,684,2298975,-57,46,4361
623,0.526467,685,2299975,-50,47,4375
624,0.527467,686,2300975,-38,47,4339
625,0.528472,687,2301980,-32,40,4328
626,0.529467,688,2302975,-43,45,4340
627,0.530467,689,2303975,-55,55,4349
628,0.531467,690,2304975,-67,59,4354
629,0.532467,691,2305975,-68,51,4359
630,0.533467,692,2306975,-54,50,4377
631,0.534467,693,2307975,-61,33,4396
632,0.535467,694,2308975,-59,19,4411
633,0.536467,695,2309975,-48,20,4412
634,0.537467,696,2310975,-57,32,4378
635,0.538467,697,2311975,-57,48,4357
636,0.539466,698,2312974,-56,31,4373
637,0.540467,699,2313975,-66,29,4383
638,0.541467,700,2314975,-53,44,4391
639,0.542467,701,2315975,-43,39,4379
640,0.543467,702,2316975,-50,27,4345
641,0.544467,703,2317975,-47,40,4353
642,0.545467,704,2318975,-44,49,4363
643,0.546466,705,2319974,-44,39,4362
644,0.547467,706,2320975,-39,29,4367
645,0.548467,707,2321975,-46,22,4359
646,0.549467,708,2322975,-45,26,4348
647,0.550467,709,2323975,-32,36,4364
648,0.551467,710,2324975,-36,39,4369
649,0.552467,711,2325975,-55,24,4361
650,0.553466,712,2326974,-51,35,4365
651,0.554466,713,2327974,-39,55,4393
652,0.555467,714,2328975,-59,40,4405
653,0.556467,715,2329975,-67,22,4372
654,0.557467,716,2330975,-38,33,4370
655,0.558467,717,2331975,-37,34,4387
656,0.559466,718,2332974,-72,47,4387
657,0.560467,719,2333975,-57,51,4360
658,0.561467,720,2334975,-42,42,4381
659,0.562467,721,2335975,-65,42,4396
660,0.563467,722,2336975,-68,47,4368
661,0.564467,723,2337975,-42,54,4361
662,0.565466,724,2338974,-53,24,4364
663,0.566467,725,2339975,-79,22,4383
664,0.567466,726,2340974,-40,49,4370
665,0.568467,727,2341975,-38,45,4364
666,0.569467,728,2342975,-59,48,4382
667,0.570467,729,2343975,-52,50,4384
668,0.571467,730,2344975,-42,37,4383
669,0.572467,731,2345975,-45,25,4386
670,0.573467,732,2346975,-80,23,4377
671,0.574466,733,2347974,-69,29,4388
672,0.575467,734,2348975,-45,34,4420
673,0.576467,735,2349975,-47,48,4404
674,0.577467,736,2350975,-61,63,4374
675,0.578466,737,2351974,-54,45,4345
676,0.579467,738,2352975,-37,33,4369
677,0.580467,739,2353975,-51,44,4418
678,0.581467,740,2354975,-47,36,4417
679,0.582467,741,2355975,-42,47,4380
680,0.583467,742,2356975,-71,58,4370
681,0.584467,743,2357975,-78,47,4391
682,0.585467,744,2358975,-56,40,4368
683,0.586467,745,2359975,-52,42,4366
684,0.587467,746,2360975,-52,50,4395
685,0.588467,747,2361975,-59,50,4402
686,0.589467,748,2362975,-79,47,4380
687,0.590467,749,2363975,-72,40,4385
688,0.591467,750,2364975,-66,16,4397
689,0.592467,751,2365975,-69,32,4392
690,0.593467,752,2366975,-57,40,4412
691,0.594467,753,2367975,-74,16,4418
692,0.595467,754,2368975,-54,21,4421
693,0.596467,755,2369975,-23,40,4380
694,0.597466,756,2370974,-48,37,4361
695,0.598467,757,2371975,-48,45,4395
696,0.599467,758,2372975,-40,54,4394
697,0.600467,759,2373975,-45,52,4389
698,0.601466,760,2374974,-45,57,4376
699,0.602467,761,2375975,-46,49,4376
700,0.603467,762,2376975,-57,26,4404
701,0.604467,763,2377975,-69,13,4389
702,0.605467,764,2378975,-51,30,4369
703,0.606467,765,2379975,-23,35,4395
704,0.607467,766,2380975,-36,37,4386
705,0.608467,767,2381975,-67,40,4381
706,0.609467,768,2382975,-53,35,4388
707,0.610467,769,2383975,-42,29,4369
708,0.611467,770,2384975,-63,47,4340
709,0.612467,771,2385975,-70,54,4321
710,0.613467,772,2386975,-50,45,4339
711,0.614467,773,2387975,-36,50,4351
712,0.615466,774,2388974,-42,44,4378
713,0.616466,775,2389974,-64,25,4378
714,0.617467,776,2390975,-70,29,4377
715,0.618467,777,2391975,-55,55,4404
716,0.619467,778,2392975,-73,45,4398
717,0.620467,779,2393975,-61,20,4379
718,0.621467,780,2394975,-51,18,4379
719,0.622467,781,2395975,-66,36,4372
720,0.623467,782,2396975,-38,40,4381
721,0.624467,783,2397975,-30,41,4390
722,0.625467,784,2398975,-51,29,4380
723,0.626467,785,2399975,-49,25,4385
724,0.627467,786,2400975,-34,36,4379
725,0.628466,787,2401974,-59,39,4379
726,0.629466,788,2402974,-84,36,4407
727,0.630466,789,2403974,-59,29,4398
728,0.631467,790,2404975,-41,34,4365
729,0.632467,791,2405975,-76,22,4366
730,0.633467,792,2406975,-99,24,4384
731,0.634467,793,2407975,-64,33,4360
732,0.635467,794,2408975,-37,29,4370
733,0.636467,795,2409975,-40,20,4414
734,0.637467,796,2410975,-32,32,4396
735,0.638467,797,2411975,-33,51,4396
736,0.639466,798,2412974,-56,60,4392
737,0.640467,799,2413975,-55,50,4395
738,0.641467,800,2414975,-21,34,4398
739,0.642467,801,2415975,-20,31,4384
740,0.643467,802,2416975,-54,26,4379
741,0.644467,803,2417975,-43,31,4387
742,0.645467,804,2418975,-35,38,4367
743,0.646466,805,2419974,-54,30,4363
744,0.647467,806,2420975,-48,19,4389
745,0.648466,807,2421974,-51,28,4390
746,0.649467,808,2422975,-76,38,4387
747,0.650467,809,2423975,-77,43,4375
748,0.651467,810,2424975,-60,45,4400
749,0.652467,811,2425975,-43,48,4396
750,0.653467,812,2426975,-42,45,4350
751,0.654467,813,2427975,-64,50,4349
752,0.655467,814,2428975,-74,43,4358
753,0.656467,815,2429975,-61,36,4359
754,0.657467,816,2430975,-55,45,4385
755,0.658467,817,2431975,-53,41,4405
756,0.659467,818,2432975,-53,50,4409
757,0.660467,819,2433975,-61,49,4424
758,0.661467,820,2434975,-72,42,4420
759,0.662467,821,2435975,-60,44,4397
760,0.663466,822,2436974,-47,34,4391
761,0.664467,823,2437975,-64,30,4378
762,0.665466,824,2438974,-57,16,4353
763,0.666467,825,2439975,-41,14,4339
764,0.667467,826,2440975,-44,46,4343
765,0.668467,827,2441975,-58,52,4350
766,0.669467,828,2442975,-53,37,4350
767,0.670467,829,2443975,-43,41,4358
768,0.671466,830,2444974,-51,49,4379
769,0.672467,831,2445975,-63,46,4407
770,0.673467,832,2446975,-60,30,4383
771,0.674467,833,2447975,-63,24,4376
772,0.675467,834,2448975,-70,40,4382
773,0.676467,835,2449975,-63,53,4350
774,0.677467,836,2450975,-74,54,4347
775,0.678467,837,2451975,-73,40,4369
776,0.679467,838,2452975,-63,42,4404
777,0.680467,839,2453975,-63,47,4388
778,0.681467,840,2454975,-66,32,4359
779,0.682467,841,2455975,-71,30,4377
780,0.683467,842,2456975,-58,31,4385
781,0.684467,843,2457975,-56,36,4378
782,0.685467,844,2458975,-62,57,4368
783,0.686467,845,2459975,-53,46,4368
784,0.687467,846,2460975,-44,27,4393
785,0.688467,847,2461975,-52,26,4379
786,0.689467,848,2462975,-67,25,4385
787,0.690466,849,2463974,-61,34,4420
788,0.691467,850,2464975,-65,37,4410
789,0.692467,851,2465975,-70,31,4401
790,0.693467,852,2466975,-40,48,4382
791,0.694467,853,2467975,-25,48,4375
792,0.695467,854,2468975,-46,36,4388
793,0.696467,855,2469975,-58,43,4412
794,0.697467,856,2470975,-48,47,4436
795,0.698467,857,2471975,-46,45,4414
796,0.699467,858,2472975,-37,38,4401
797,0.700466,859,2473974,-36,35,4406
798,0.701467,860,2474975,-47,36,4405
799,0.702467,861,2475975,-56,37,4399
800,0.703467,862,2476975,-58,39,4370
801,0.704467,863,2477975,-41,38,4363
802,0.705467,864,2478975,-64,35,4385
803,0.706467,865,2479975,-91,48,4381
804,0.707467,866,2480975,-57,48,4338
805,0.708467,867,2481975,-45,39,4329
806,0.709467,868,2482975,-78,43,4373
807,0.710467,869,2483975,-61,42,4384
808,0.711467,870,2484975,-46,50,4383
809,0.712467,871,2485975,-66,58,4378
810,0.713467,872,2486975,-71,49,4378
811,0.714467,873,2487975,-55,38,4383
812,0.715467,874,2488975,-53,26,4375
813,0.716467,875,2489975,-52,36,4375
814,0.717467,876,2490975,-57,53,4363
815,0.718466,877,2491974,-68,55,4366
816,0.719467,878,2492975,-48,43,4386
817,0.720467,879,2493975,-40,34,4395
818,0.721467,880,2494975,-40,37,4378
819,0.722467,881,2495975,-47,39,4379
820,0.723467,882,2496975,-48,41,4395
821,0.724467,883,2497975,-39,43,4410
822,0.725467,884,2498975,-35,41,4401
823,0.726467,885,2499975,-26,45,4361
824,0.727467,886,2500975,-33,53,4373
825,0.728467,887,2501975,-51,41,4371
826,0.729467,888,2502975,-61,36,4375
827,0.730467,889,2503975,-62,42,4386
828,0.731467,890,2504975,-65,28,4370
829,0.732466,891,2505974,-64,21,4403
830,0.733467,892,2506975,-60,39,4399
831,0.734467,893,2507975,-58,41,4370
832,0.735467,894,2508975,-44,46,4398
833,0.736467,895,2509975,-37,75,4415
834,0.737467,896,2510975,-55,67,4394
835,0.738467,897,2511975,-67,56,4364
836,0.739467,898,2512975,-63,35,4379
837,0.740467,899,2513975,-62,25,4400
838,0.741466,900,2514974,-56,62,4386
839,0.742467,901,2515975,-61,38,4365
840,0.743467,902,2516975,-63,17,4357
841,0.744466,903,2517974,-53,25,4394
842,0.745467,904,2518975,-83,37,4400
843,0.746467,905,2519975,-87,63,4382
844,0.747467,906,2520975,-49,54,4370
845,0.748467,907,2521975,-62,43,4372
846,0.749467,908,2522975,-68,45,4374
847,0.750466,909,2523974,-41,39,4366
848,0.751466,910,2524974,-37,24,4380
849,0.752466,911,2525974,-40,22,4381
850,0.753466,912,2526974,-41,28,4388
851,0.754467,913,2527975,-56,34,4370
852,0.755467,914,2528975,-56,45,4376
853,0.756467,915,2529975,-43,41,4413
854,0.757467,916,2530975,-47,45,4404
855,0.758467,917,2531975,-54,42,4396
856,0.759467,918,2532975,-58,41,4395
857,0.760467,919,2533975,-66,48,4385
858,0.761467,920,2534975,-66,60,4367
859,0.762467,921,2535975,-52,77,4349
860,0.763467,922,2536975,-32,62,4358
861,0.764467,923,2537975,-30,50,4384
862,0.765467,924,2538975,-35,53,4378
863,0.766467,925,2539975,-29,62,4385
864,0.767467,926,2540975,-30,49,4395
865,0.768467,927,2541975,-40,49,4387
866,0.769467,928,2542975,-51,69,4404
867,0.770467,929,2543975,-61,53,4397
868,0.771467,930,2544975,-47,31,4365
869,0.772467,931,2545975,-23,56,4360
870,0.773466,932,2546974,-29,56,4367
871,0.774467,933,2547975,-36,35,4362
872,0.775467,934,2548975,-47,58,4360
873,0.776467,935,2549975,-52,57,4368
874,0.777467,936,2550975,-43,42,4380
875,0.778467,937,2551975,-63,50,4377
876,0.779467,938,2552975,-69,39,4373
877,0.780467,939,2553975,-54,34,4395
878,0.781467,940,2554975,-55,52,4379
879,0.782467,941,2555975,-48,63,4349
880,0.783467,942,2556975,-26,57,4342
881,0.784467,943,2557975,-63,38,4363
882,0.785466,944,2558974,-104,36,4372
883,0.786467,945,2559975,-55,41,4364
884,0.787467,946,2560975,-22,39,4379
885,0.788467,947,2561975,-57,42,4366
886,0.789467,948,2562975,-68,39,4369
887,0.790467,949,2563975,-48,32,4384
888,0.791467,950,2564975,-74,43,4361
889,0.792467,951,2565975,-68,44,4373
890,0.793467,952,2566975,-31,37,4382
891,0.794467,953,2567975,-63,46,4367
892,0.795467,954,2568975,-75,58,4384
893,0.796467,955,2569975,-52,37,4407
894,0.797467,956,2570975,-70,24,4428
895,0.798467,957,2571975,-73,40,4420
896,0.799467,958,2572975,-45,44,4400
897,0.800467,959,2573975,-47,36,4370
898,0.801467,960,2574975,-58,29,4365
899,0.802467,961,2575975,-56,41,4399
900,0.803467,962,2576975,-64,45,4402
901,0.804467,963,2577975,-60,58,4378
902,0.805467,964,2578975,-45,72,4364
903,0.806467,965,2579975,-70,59,4379
904,0.807467,966,2580975,-76,28,4415
905,0.808467,967,2581975,-52,14,4430
906,0.809467,968,2582975,-69,28,4375
907,0.810466,969,2583974,-50,29,4352
908,0.811467,970,2584975,-48,25,4389
909,0.812467,971,2585975,-61,37,4360
910,0.813467,972,2586975,-44,42,4356
911,0.814467,973,2587975,-55,35,4398
912,0.815467,974,2588975,-73,34,4380
913,0.816467,975,2589975,-50,33,4395
914,0.817466,976,2590974,-43,35,4416
915,0.818467,977,2591975,-73,40,4373
916,0.819467,978,2592975,-55,28,4372
917,0.820467,979,2593975,-44,20,4422
918,0.821467,980,2594975,-63,44,4396
919,0.822467,981,2595975,-24,27,4387
920,0.823467,982,2596975,-28,2,4414
921,0.824467,983,2597975,-82,27,4388
922,0.825467,984,2598975,-66,27,4373
923,0.826467,985,2599975,-42,29,4367
924,0.827467,986,2600975,-53,62,4351
925,0.828467,987,2601975,-62,54,4354
926,0.829467,988,2602975,-58,40,4361
927,0.830467,989,2603975,-44,40,4337
928,0.831467,990,2604975,-24,29,4348
929,0.832467,991,2605975,-42,37,4388
930,0.833467,992,2606975,-64,50,4404
931,0.834467,993,2607975,-49,35,4385
932,0.835467,994,2608975,-38,38,4361
933,0.836467,995,2609975,-56,51,4352
934,0.837467,996,2610975,-57,49,4370
935,0.838467,997,2611975,-47,53,4396
936,0.839467,998,2612975,-62,58,4415
937,0.840467,999,2613975,-62,47,4426
938,0.841467,1000,2614975,-60,33,4394
939,0.842467,1001,2615975,-54,44,4347
940,0.843467,1002,2616975,-30,40,4345
941,0.844466,1003,2617974,-42,40,4378
942,0.845467,1004,2618975,-63,68,4383
943,0.846467,1005,2619975,-51,63,4386
944,0.847467,1006,2620975,-83,32,4379
945,0.848467,1007,2621975,-79,40,4357
946,0.849467,1008,2622975,-14,59,4372
947,0.850467,1009,2623975,-44,54,4362
948,0.851466,1010,2624974,-80,44,4362
949,0.852467,1011,2625975,-41,34,4379
950,0.853467,1012,2626975,-53,36,4389
951,0.854467,1013,2627975,-72,54,4417
952,0.855467,1014,2628975,-50,49,4430
953,0.856467,1015,2629975,-58,48,4385
954,0.857467,1016,2630975,-58,48,4362
955,0.858467,1017,2631975,-32,35,4378
956,0.859467,1018,2632975,-63,40,4367
957,0.860467,1019,2633975,-73,31,4383
958,0.861467,1020,2634975,-33,21,4407
959,0.862467,1021,2635975,-54,19,4400
960,0.863467,1022,2636975,-80,31,4376
961,0.864467,1023,2637975,-44,33,4380
962,0.865467,1024,2638975,-37,42,4395
963,0.866467,1025,2639975,-77,51,4378
964,0.867467,1026,2640975,-58,42,4366
965,0.868466,1027,2641974,-56,52,4381
966,0.869466,1028,2642974,-80,70,4403
967,0.870467,1029,2643975,-31,53,4395
968,0.871467,1030,2644975,-22,37,4387
969,0.872467,1031,2645975,-66,26,4384
970,0.873467,1032,2646975,-50,23,4366
971,0.874467,1033,2647975,-54,39,4353
972,0.875467,1034,2648975,-89,32,4351
973,0.876466,1035,2649974,-79,27,4386
974,0.877467,1036,2650975,-40,41,4398
975,0.878467,1037,2651975,-63,66,4375
976,0.879467,1038,2652975,-84,70,4365
977,0.880467,1039,2653975,-66,54,4390
978,0.881467,1040,2654975,-85,37,4395
979,0.882467,1041,2655975,-72,45,4365
980,0.883467,1042,2656975,-41,57,4371
981,0.884467,1043,2657975,-50,48,4382
982,0.885467,1044,2658975,-54,29,4386
983,0.886467,1045,2659975,-47,21,4391
984,0.887467,1046,2660975,-58,35,4380
985,0.888467,1047,2661975,-57,37,4397
986,0.889467,1048,2662975,-49,30,4393
987,0.890467,1049,2663975,-44,51,4380
988,0.891467,1050,2664975,-58,44,4395
989,0.892467,1051,2665975,-70,28,4380
990,0.893467,1052,2666975,-69,30,4377
991,0.894467,1053,2667975,-65,42,4376
992,0.895467,1054,2668975,-70,52,4355
993,0.896467,1055,2669975,-83,52,4375
994,0.897467,1056,2670975,-79,43,4381
995,0.898467,1057,2671975,-74,35,4376
996,0.899467,1058,2672975,-63,57,4402
997,0.900466,1059,2673974,-50,63,4424
998,0.901467,1060,2674975,-38,56,4425
999,0.902467,1061,2675975,-32,55,4390
1000,0.903467,1062,2676975,-51,51,4375
1001,0.904467,1063,2677975,-86,41,4380
1002,0.905467,1064,2678975,-88,31,4398
1003,0.906467,1065,2679975,-70,38,4420
1004,0.907466,1066,2680974,-72,48,4411
1005,0.908467,1067,2681975,-78,25,4395
1006,0.909467,1068,2682975,-53,13,4402
1007,0.910467,1069,2683975,-33,20,4386
1008,0.911467,1070,2684975,-59,4,4357
1009,0.912467,1071,2685975,-44,7,4356
1010,0.913467,1072,2686975,-36,6,4374
1011,0.914467,1073,2687975,-76,10,4380
1012,0.915467,1074,2688975,-73,33,4377
1013,0.916467,1075,2689975,-61,29,4386
1014,0.917467,1076,2690975,-59,29,4397
1015,0.918467,1077,2691975,-66,42,4423
1016,0.919466,1078,2692974,-44,51,4402
1017,0.920467,1079,2693975,-45,48,4384
1018,0.921467,1080,2694975,-66,44,4407
1019,0.922467,1081,2695975,-53,47,4397
1020,0.923467,1082,2696975,-46,55,4395
1021,0.924467,1083,2697975,-58,57,4393
1022,0.925466,1084,2698974,-69,37,4398
1023,0.926467,1085,2699975,-50,34,4397
1024,0.927467,1086,2700975,-60,48,4377
1025,0.928467,1087,2701975,-74,50,4391
1026,0.929467,1088,2702975,-85,54,4396
1027,0.930467,1089,2703975,-87,42,4369
1028,0.931467,1090,2704975,-61,44,4359
1029,0.932467,1091,2705975,-83,42,4389
1030,0.933467,1092,2706975,-95,40,4384
1031,0.934467,1093,2707975,-56,30,4372
1032,0.935466,1094,2708974,-41,16,4380
1033,0.936467,1095,2709975,-49,37,4369
1034,0.937467,1096,2710975,-35,54,4341
1035,0.938467,1097,2711975,-29,38,4323
1036,0.939467,1098,2712975,-56,31,4347
1037,0.940467,1099,2713975,-66,37,4379
1038,0.941467,1100,2714975,-48,32,4388
1039,0.942467,1101,2715975,-50,23,4354
1040,0.943467,1102,2716975,-67,36,4352
1041,0.944467,1103,2717975,-60,44,4373
1042,0.945467,1104,2718975,-50,37,4352
1043,0.946467,1105,2719975,-48,27,4359
1044,0.947466,1106,2720974,-52,27,4364
1045,0.948467,1107,2721975,-54,56,4355
1046,0.949467,1108,2722975,-57,37,4376
1047,0.950467,1109,2723975,-68,24,4383
1048,0.951467,1110,2724975,-59,39,4387
1049,0.952466,1111,2725974,-30,37,4374
1050,0.953466,1112,2726974,-32,21,4367
1051,0.954467,1113,2727975,-54,39,4387
1052,0.955467,1114,2728975,-53,60,4386
1053,0.956467,1115,2729975,-54,40,4376
1054,0.957467,1116,2730975,-75,23,4394
1055,0.958466,1117,2731974,-75,26,4406
1056,0.959467,1118,2732975,-69,37,4360
1057,0.960466,1119,2733974,-70,34,4359
1058,0.961467,1120,2734975,-38,23,4389
1059,0.962467,1121,2735975,-30,21,4351
1060,0.963466,1122,2736974,-49,25,4345
1061,0.964467,1123,2737975,-49,36,4358
1062,0.965467,1124,2738975,-45,30,4369
1063,0.966466,1125,2739974,-55,33,4363
1064,0.967466,1126,2740974,-59,39,4353
1065,0.968466,1127,2741974,-50,23,4376
1066,0.969467,1128,2742975,-64,33,4381
1067,0.970467,1129,2743975,-69,59,4377
1068,0.971466,1130,2744974,-42,60,4374
1069,0.972467,1131,2745975,-42,42,4379
1070,0.973467,1132,2746975,-58,37,4358
1071,0.974467,1133,2747975,-69,40,4375
1072,0.975467,1134,2748975,-77,29,4393
1073,0.976467,1135,2749975,-61,25,4372
1074,0.977467,1136,2750975,-47,36,4388
1075,0.978467,1137,2751975,-47,24,4407
1076,0.979467,1138,2752975,-42,20,4401
1077,0.980467,1139,2753975,-50,20,4397
1078,0.981467,1140,2754975,-49,21,4377
1079,0.982466,1141,2755974,-60,30,4375
1080,0.983467,1142,2756975,-62,23,4386
1081,0.984467,1143,2757975,-50,26,4373
1082,0.985467,1144,2758975,-58,38,4388
1083,0.986467,1145,2759975,-38,36,4386
1084,0.987467,1146,2760975,-43,28,4345
1085,0.988467,1147,2761975,-63,29,4352
1086,0.989467,1148,2762975,-61,35,4363
1087,0.990467,1149,2763975,-66,21,4360
1088,0.991467,1150,2764975,-55,30,4380
1089,0.992467,1151,2765975,-34,64,4392
1090,0.993467,1152,2766975,-35,57,4394
1091,0.994467,1153,2767975,-48,32,4373
1092,0.995467,1154,2768975,-40,27,4364
1093,0.996467,1155,2769975,-37,38,4384
1094,0.997467,1156,2770975,-45,35,4366
1095,0.998466,1157,2771974,-65,27,4372
1096,0.999467,1158,2772975,-63,35,4398
1097,1.000466,1159,2773974,-51,46,4377
1098,1.001467,1160,2774975,-69,45,4388
1099,1.002467,1161,2775975,-41,34,4411
1100,1.003467,1162,2776975,-30,20,4407
1101,1.004467,1163,2777975,-49,34,4396
1102,1.005467,1164,2778975,-51,59,4385
1103,1.006467,1165,2779975,-59,56,4397
1104,1.007467,1166,2780975,-63,44,4411
1105,1.008467,1167,2781975,-59,42,4396
1106,1.009467,1168,2782975,-47,45,4383
1107,1.010467,1169,2783975,-60,38,4385
1108,1.011467,1170,2784975,-75,39,4383
1109,1.012467,1171,2785975,-65,32,4371
1110,1.013466,1172,2786974,-56,40,4386
1111,1.014467,1173,2787975,-39,48,4379
1112,1.015467,1174,2788975,-49,35,4361
1113,1.016467,1175,2789975,-76,51,4373
1114,1.017467,1176,2790975,-63,53,4384
1115,1.018467,1177,2791975,-53,32,4399
1116,1.019467,1178,2792975,-55,17,4385
1117,1.020467,1179,2793975,-41,20,4372
1118,1.021467,1180,2794975,-39,32,4370
1119,1.022467,1181,2795975,-77,46,4375
1120,1.023467,1182,2796975,-89,53,4367
1121,1.024467,1183,2797975,-58,49,4355
1122,1.025467,1184,2798975,-59,32,4382
1123,1.026467,1185,2799975,-55,9,4398
1124,1.027467,1186,2800975,-36,36,4400
1125,1.028467,1187,2801975,-53,59,4380
1126,1.029467,1188,2802975,-38,49,4372
1127,1.030467,1189,2803975,-33,46,4375
1128,1.031467,1190,2804975,-59,43,4368
1129,1.032467,1191,2805975,-48,40,4379
1130,1.033467,1192,2806975,-38,46,4362
1131,1.034467,1193,2807975,-58,44,4343
1132,1.035467,1194,2808975,-77,31,4359
1133,1.036466,1195,2809974,-61,38,4395
1134,1.037467,1196,2810975,-49,40,4395
1135,1.038467,1197,2811975,-44,35,4387
1136,1.039467,1198,2812975,-48,42,4395
1137,1.040466,1199,2813974,-57,40,4386
1138,1.041467,1200,2814975,-76,42,4358
1139,1.042467,1201,2815975,-77,37,4343
1140,1.043467,1202,2816975,-48,33,4357
1141,1.044467,1203,2817975,-55,50,4398
1142,1.045467,1204,2818975,-49,53,4411
1143,1.046466,1205,2819974,-42,36,4387
1144,1.047467,1206,2820975,-65,34,4389
1145,1.048467,1207,2821975,-74,48,4374
1146,1.049467,1208,2822975,-61,45,4373
1147,1.050467,1209,2823975,-49,36,4389
1148,1.051467,1210,2824975,-35,43,4390
1149,1.052467,1211,2825975,-27,57,4401
1150,1.053466,1212,2826974,-46,64,4390
1151,1.054467,1213,2827975,-57,55,4371
1152,1.055467,1214,2828975,-36,44,4377
1153,1.056467,1215,2829975,-37,47,4386
1154,1.057467,1216,2830975,-62,47,4377
1155,1.058467,1217,2831975,-41,40,4345
1156,1.059467,1218,2832975,-52,46,4350
1157,1.060467,1219,2833975,-67,68,4380
1158,1.061467,1220,2834975,-80,79,4359
1159,1.062467,1221,2835975,-88,69,4349
1160,1.063467,1222,2836975,-63,42,4363
1161,1.064467,1223,2837975,-55,12,4391
1162,1.065467,1224,2838975,-55,21,4407
1163,1.066467,1225,2839975,-69,53,4375
1164,1.067467,1226,2840975,-83,41,4365
1165,1.068467,1227,2841975,-71,41,4378
1166,1.069467,1228,2842975,-56,51,4396
1167,1.070467,1229,2843975,-33,47,4404
1168,1.071467,1230,2844975,-35,39,4411
1169,1.072467,1231,2845975,-33,26,4389
1170,1.073467,1232,2846975,-30,35,4353
1171,1.074467,1233,2847975,-64,34,4378
1172,1.075467,1234,2848975,-54,30,4383
1173,1.076467,1235,2849975,-39,43,4370
1174,1.077467,1236,2850975,-75,54,4387
1175,1.078467,1237,2851975,-87,43,4403
1176,1.079467,1238,2852975,-46,36,4405
1177,1.080467,1239,2853975,-48,26,4380
1178,1.081467,1240,2854975,-47,27,4383
1179,1.082466,1241,2855974,-26,35,4408
1180,1.083467,1242,2856975,-49,20,4404
1181,1.084467,1243,2857975,-74,36,4381
1182,1.085466,1244,2858974,-71,49,4396
1183,1.086467,1245,2859975,-63,28,4389
1184,1.087467,1246,2860975,-75,30,4364
1185,1.088467,1247,2861975,-61,42,4385
1186,1.089467,1248,2862975,-53,57,4404
1187,1.090467,1249,2863975,-51,54,4411
1188,1.091467,1250,2864975,-17,40,4410
1189,1.092467,1251,2865975,-51,46,4365
1190,1.093467,1252,2866975,-78,44,4368
1191,1.094467,1253,2867975,-74,32,4410
1192,1.095467,1254,2868975,-85,27,4374
1193,1.096467,1255,2869975,-59,33,4378
1194,1.097466,1256,2870974,-24,45,4375
1195,1.098467,1257,2871975,-34,46,4348
1196,1.099466,1258,2872974,-59,45,4372
1197,1.100467,1259,2873975,-62,42,4382
1198,1.101467,1260,2874975,-41,33,4378
1199,1.102467,1261,2875975,-42,29,4371
1200,1.103467,1262,2876975,-51,32,4366
1201,1.104467,1263,2877975,-48,56,4376
1202,1.105467,1264,2878975,-69,51,4384
1203,1.106467,1265,2879975,-71,51,4382
1204,1.107467,1266,2880975,-58,57,4373
1205,1.108467,1267,2881975,-69,39,4354
1206,1.109467,1268,2882975,-69,58,4354
1207,1.110467,1269,2883975,-54,66,4359
1208,1.111467,1270,2884975,-68,45,4365
1209,1.112467,1271,2885975,-57,40,4376
1210,1.113467,1272,2886975,-39,30,4388
1211,1.114466,1273,2887974,-54,24,4391
1212,1.115467,1274,2888975,-68,40,4379
1213,1.116467,1275,2889975,-51,44,4386
1214,1.117467,1276,2890975,-49,38,4378
1215,1.118467,1277,2891975,-65,52,4385
1216,1.119467,1278,2892975,-44,43,4402
1217,1.120467,1279,2893975,-25,29,4396
1218,1.121467,1280,2894975,-47,38,4389
1219,1.122467,1281,2895975,-73,37,4363
1220,1.123466,1282,2896974,-66,34,4385
1221,1.124467,1283,2897975,-71,41,4414
1222,1.125467,1284,2898975,-70,51,4397
1223,1.126467,1285,2899975,-59,60,4398
1224,1.127467,1286,2900975,-82,44,4405
1225,1.128467,1287,2901975,-83,31,4392
1226,1.129467,1288,2902975,-52,41,4375
1227,1.130467,1289,2903975,-54,37,4372
1228,1.131467,1290,2904975,-66,33,4367
1229,1.132467,1291,2905975,-50,24,4361
1230,1.133467,1292,2906975,-66,35,4365
1231,1.134467,1293,2907975,-79,66,4374
1232,1.135467,1294,2908975,-54,62,4383
1233,1.136467,1295,2909975,-58,40,4374
1234,1.137467,1296,2910975,-66,41,4360
1235,1.138467,1297,2911975,-44,44,4364
1236,1.139467,1298,2912975,-50,54,4364
1237,1.140467,1299,2913975,-77,61,4353
1238,1.141467,1300,2914975,-75,42,4361
1239,1.142467,1301,2915975,-59,27,4384
1240,1.143466,1302,2916974,-52,37,4377
1241,1.144467,1303,2917975,-63,38,4375
1242,1.145467,1304,2918975,-58,37,4396
1243,1.146467,1305,2919975,-69,43,4391
1244,1.147467,1306,2920975,-74,47,4370
1245,1.148467,1307,2921975,-67,55,4381
1246,1.149467,1308,2922975,-81,61,4396
1247,1.150467,1309,2923975,-61,52,4395
1248,1.151467,1310,2924975,-55,32,4384
1249,1.152467,1311,2925975,-65,43,4381
1250,1.153467,1312,2926975,-51,45,4397
1251,1.154467,1313,2927975,-41,44,4389
1252,1.155467,1314,2928975,-64,63,4371
1253,1.156467,1315,2929975,-82,64,4369
1254,1.157467,1316,2930975,-63,43,4401
1255,1.158467,1317,2931975,-70,44,4412
1256,1.159467,1318,2932975,-70,45,4387
1257,1.160467,1319,2933975,-56,44,4390
1258,1.161467,1320,2934975,-63,45,4400
1259,1.162467,1321,2935975,-64,46,4394
1260,1.163466,1322,2936974,-49,53,4377
1261,1.164467,1323,2937975,-55,46,4353
1262,1.165467,1324,2938975,-80,44,4361
1263,1.166467,1325,2939975,-65,46,4381
1264,1.167467,1326,2940975,-30,33,4366
1265,1.168467,1327,2941975,-45,33,4369
1266,1.169467,1328,2942975,-66,57,4379
1267,1.170467,1329,2943975,-44,52,4382
1268,1.171467,1330,2944975,-56,49,4384
1269,1.172467,1331,2945975,-70,33,4375
1270,1.173467,1332,2946975,-52,35,4375
1271,1.174467,1333,2947975,-59,42,4403
1272,1.175467,1334,2948975,-63,28,4393
1273,1.176467,1335,2949975,-50,23,4366
1274,1.177467,1336,2950975,-64,30,4378
1275,1.178467,1337,2951975,-77,47,4390
1276,1.179467,1338,2952975,-57,48,4381
1277,1.180467,1339,2953975,-56,59,4372
1278,1.181467,1340,2954975,-66,58,4361
1279,1.182467,1341,2955975,-74,55,4362
1280,1.183466,1342,2956974,-53,43,4382
1281,1.184467,1343,2957975,-57,45,4400
1282,1.185467,1344,2958975,-78,58,4407
1283,1.186466,1345,2959974,-52,35,4380
1284,1.187466,1346,2960974,-53,21,4354
1285,1.188467,1347,2961975,-62,26,4382
1286,1.189467,1348,2962975,-67,31,4416
1287,1.190467,1349,2963975,-52,47,4383
1288,1.191467,1350,2964975,-48,59,4361
1289,1.192467,1351,2965975,-65,55,4358
1290,1.193467,1352,2966975,-58,37,4374
1291,1.194466,1353,2967974,-65,22,4389
1292,1.195467,1354,2968975,-61,26,4385
1293,1.196467,1355,2969975,-54,20,4397
1294,1.197466,1356,2970974,-78,22,4402
1295,1.198467,1357,2971975,-67,41,4395
1296,1.199467,1358,2972975,-33,21,4370
1297,1.200467,1359,2973975,-36,19,4368
1298,1.201466,1360,2974974,-62,41,4382
1299,1.202467,1361,2975975,-81,23,4392
1300,1.203466,1362,2976974,-74,22,4428
1301,1.204467,1363,2977975,-54,40,4417
1302,1.205467,1364,2978975,-44,43,4358
1303,1.206467,1365,2979975,-48,30,4340
1304,1.207467,1366,2980975,-61,32,4367
1305,1.208466,1367,2981974,-53,44,4383
1306,1.209467,1368,2982975,-42,54,4389
1307,1.210467,1369,2983975,-45,38,4382
1308,1.211467,1370,2984975,-45,17,4390
1309,1.212467,1371,2985975,-38,32,4418
1310,1.213467,1372,2986975,-30,53,4396
1311,1.214467,1373,2987975,-45,55,4387
1312,1.215467,1374,2988975,-70,38,4385
1313,1.216467,1375,2989975,-71,42,4377
1314,1.217466,1376,2990974,-46,51,4396
1315,1.218467,1377,2991975,-50,40,4416
1316,1.219467,1378,2992975,-53,49,4389
1317,1.220467,1379,2993975,-56,59,4370
1318,1.221467,1380,2994975,-73,62,4398
1319,1.222467,1381,2995975,-53,57,4395
1320,1.223467,1382,2996975,-42,25,4387
1321,1.224467,1383,2997975,-43,33,4372
1322,1.225467,1384,2998975,-26,68,4373
1323,1.226467,1385,2999975,-31,53,4388
1324,1.227467,1386,3000975,-52,37,4370
1325,1.228467,1387,3001975,-56,41,4359
1326,1.229467,1388,3002975,-61,44,4370
1327,1.230467,1389,3003975,-69,57,4385
1328,1.231467,1390,3004975,-69,51,4372
1329,1.232467,1391,3005975,-38,38,4370
1330,1.233467,1392,3006975,-41,41,4375
1331,1.234467,1393,3007975,-76,41,4377
1332,1.235467,1394,3008975,-74,44,4382
1333,1.236467,1395,3009975,-65,60,4381
1334,1.237467,1396,3010975,-52,54,4394
1335,1.238467,1397,3011975,-52,41,4374
1336,1.239467,1398,3012975,-54,42,4357
1337,1.240467,1399,3013975,-57,35,4375
1338,1.241467,1400,3014975,-62,21,4373
1339,1.242467,1401,3015975,-47,19,4375
1340,1.243467,1402,3016975,-55,36,4394
1341,1.244467,1403,3017975,-51,38,4391
1342,1.245467,1404,3018975,-49,29,4364
1343,1.246467,1405,3019975,-66,29,4358
1344,1.247467,1406,3020975,-58,19,4386
1345,1.248467,1407,3021975,-66,27,4400
1346,1.249466,1408,3022974,-66,43,4414
1347,1.250467,1409,3023975,-72,26,4412
1348,1.251467,1410,3024975,-94,19,4398
1349,1.252467,1411,3025975,-77,39,4408
1350,1.253467,1412,3026975,-60,55,4395
1351,1.254467,1413,3027975,-68,38,4374
1352,1.255466,1414,3028974,-57,25,4394
1353,1.256467,1415,3029975,-44,36,4418
1354,1.257467,1416,3030975,-78,37,4405
1355,1.258467,1417,3031975,-78,50,4368
1356,1.259466,1418,3032974,-51,55,4368
1357,1.260466,1419,3033974,-53,41,4381
1358,1.261466,1420,3034974,-49,27,4365
1359,1.262467,1421,3035975,-40,40,4373
1360,1.263467,1422,3036975,-42,57,4401
1361,1.264467,1423,3037975,-56,46,4398
1362,1.265467,1424,3038975,-61,36,4376
1363,1.266466,1425,3039974,-59,26,4395
1364,1.267467,1426,3040975,-54,48,4399
1365,1.268467,1427,3041975,-49,58,4385
1366,1.269467,1428,3042975,-53,41,4380
1367,1.270466,1429,3043974,-62,46,4361
1368,1.271467,1430,3044975,-74,45,4357
1369,1.272467,1431,3045975,-76,29,4371
1370,1.273466,1432,3046974,-67,37,4389
1371,1.274467,1433,3047975,-60,50,4372
1372,1.275467,1434,3048975,-50,48,4362
1373,1.276467,1435,3049975,-61,40,4384
1374,1.277466,1436,3050974,-71,30,4370
1375,1.278467,1437,3051975,-65,46,4381
1376,1.279467,1438,3052975,-64,49,4387
1377,1.280466,1439,3053974,-46,35,4370
1378,1.281467,1440,3054975,-57,21,4368
1379,1.282467,1441,3055975,-54,16,4363
1380,1.283467,1442,3056975,-41,30,4360
1381,1.284467,1443,3057975,-61,31,4356
1382,1.285467,1444,3058975,-63,47,4372
1383,1.286467,1445,3059975,-45,61,4397
1384,1.287467,1446,3060975,-37,51,4409
1385,1.288467,1447,3061975,-58,52,4398
1386,1.289467,1448,3062975,-64,59,4374
1387,1.290466,1449,3063974,-64,66,4368
1388,1.291467,1450,3064975,-66,46,4398
1389,1.292467,1451,3065975,-58,31,4412
1390,1.293467,1452,3066975,-54,25,4389
1391,1.294467,1453,3067975,-66,31,4373
1392,1.295466,1454,3068974,-54,55,4391
1393,1.296467,1455,3069975,-56,53,4385
1394,1.297467,1456,3070975,-70,36,4394
1395,1.298467,1457,3071975,-55,40,4376
1396,1.299467,1458,3072975,-52,41,4336
1397,1.300467,1459,3073975,-56,37,4342
1398,1.301467,1460,3074975,-65,57,4359
1399,1.302467,1461,3075975,-57,51,4379
1400,1.303466,1462,3076974,-60,36,4377
1401,1.304467,1463,3077975,-64,50,4367
1402,1.305467,1464,3078975,-66,36,4366
1403,1.306467,1465,3079975,-63,18,4369
1404,1.307467,1466,3080975,-61,32,4365
1405,1.308467,1467,3081975,-76,48,4369
1406,1.309467,1468,3082975,-58,40,4383
1407,1.310467,1469,3083975,-38,36,4413
1408,1.311467,1470,3084975,-41,56,4418
1409,1.312467,1471,3085975,-46,48,4386
1410,1.313467,1472,3086975,-41,47,4385
1411,1.314467,1473,3087975,-51,42,4401
1412,1.315467,1474,3088975,-66,33,4384
1413,1.316467,1475,3089975,-65,30,4381
1414,1.317467,1476,3090975,-65,23,4383
1415,1.318467,1477,3091975,-63,29,4359
1416,1.319467,1478,3092975,-49,31,4373
1417,1.320467,1479,3093975,-51,38,4369
1418,1.321467,1480,3094975,-50,39,4352
1419,1.322466,1481,3095974,-47,38,4365
1420,1.323467,1482,3096975,-72,38,4395
1421,1.324467,1483,3097975,-71,45,4386
1422,1.325467,1484,3098975,-62,50,4365
1423,1.326467,1485,3099975,-56,43,4370
1424,1.327467,1486,3100975,-56,58,4368
1425,1.328467,1487,3101975,-63,52,4396
1426,1.329467,1488,3102975,-69,47,4364
1427,1.330467,1489,3103975,-72,46,4323
1428,1.331467,1490,3104975,-56,50,4363
1429,1.332467,1491,3105975,-44,37,4373
1430,1.333466,1492,3106974,-50,29,4382
1431,1.334467,1493,3107975,-59,52,4386
1432,1.335467,1494,3108975,-66,50,4359
1433,1.336467,1495,3109975,-59,44,4372
1434,1.337466,1496,3110974,-53,27,4378
1435,1.338467,1497,3111975,-48,39,4375
1436,1.339467,1498,3112975,-61,48,4376
1437,1.340467,1499,3113975,-64,41,4378
1438,1.341467,1500,3114975,-47,51,4366
1439,1.342467,1501,3115975,-60,32,4387
1440,1.343467,1502,3116975,-66,26,4416
1441,1.344467,1503,3117975,-63,39,4392
1442,1.345466,1504,3118974,-56,33,4388
1443,1.346467,1505,3119975,-48,33,4409
1444,1.347467,1506,3120975,-38,24,4417
1445,1.348467,1507,3121975,-39,14,4406
1446,1.349467,1508,3122975,-50,34,4387
1447,1.350467,1509,3123975,-44,52,4382
1448,1.351467,1510,3124975,-41,28,4400
1449,1.352467,1511,3125975,-49,35,4402
1450,1.353467,1512,3126975,-65,62,4385
1451,1.354467,1513,3127975,-88,46,4383
1452,1.355467,1514,3128975,-77,39,4396
1453,1.356467,1515,3129975,-55,39,4389
1454,1.357467,1516,3130975,-55,46,4397
1455,1.358466,1517,3131974,-54,48,4428
1456,1.359467,1518,3132975,-50,20,4418
1457,1.360467,1519,3133975,-51,14,4362
1458,1.361467,1520,3134975,-48,26,4349
1459,1.362467,1521,3135975,-40,47,4355
1460,1.363466,1522,3136974,-48,44,4386
1461,1.364467,1523,3137975,-66,13,4403
1462,1.365466,1524,3138974,-75,24,4367
1463,1.366467,1525,3139975,-50,45,4363
1464,1.367467,1526,3140975,-24,43,4374
1465,1.368467,1527,3141975,-52,48,4360
1466,1.369467,1528,3142975,-68,64,4355
1467,1.370467,1529,3143975,-59,62,4378
1468,1.371467,1530,3144975,-56,50,4379
1469,1.372466,1531,3145974,-46,53,4363
1470,1.373466,1532,3146974,-43,31,4346
1471,1.374467,1533,3147975,-32,19,4361
1472,1.375467,1534,3148975,-39,49,4398
1473,1.376467,1535,3149975,-68,45,4411
1474,1.377467,1536,3150975,-60,21,4405
1475,1.378467,1537,3151975,-54,29,4399
1476,1.379467,1538,3152975,-49,36,4410
1477,1.380467,1539,3153975,-52,14,4398
1478,1.381467,1540,3154975,-54,37,4373
1479,1.382467,1541,3155975,-40,52,4375
1480,1.383467,1542,3156975,-51,33,4371
1481,1.384467,1543,3157975,-47,45,4366
1482,1.385467,1544,3158975,-37,45,4381
1483,1.386466,1545,3159974,-41,51,4398
1484,1.387467,1546,3160975,-50,55,4393
1485,1.388467,1547,3161975,-43,40,4387
1486,1.389466,1548,3162974,-32,27,4404
1487,1.390467,1549,3163975,-30,36,4394
1488,1.391467,1550,3164975,-31,57,4372
1489,1.392467,1551,3165975,-45,60,4391
1490,1.393467,1552,3166975,-61,56,4402
1491,1.394467,1553,3167975,-53,52,4389
1492,1.395467,1554,3168975,-59,43,4380
1493,1.396466,1555,3169974,-59,57,4377
1494,1.397467,1556,3170975,-46,70,4398
1495,1.398467,1557,3171975,-63,43,4402
1496,1.399467,1558,3172975,-66,32,4399
1497,1.400467,1559,3173975,-56,49,4395
1498,1.401467,1560,3174975,-41,31,4374
1499,1.402467,1561,3175975,-45,18,4371
1500,1.403467,1562,3176975,-57,26,4388
1501,1.404466,1563,3177974,-53,30,4401
1502,1.405467,1564,3178975,-51,31,4358
1503,1.406467,1565,3179975,-49,39,4351
1504,1.407466,1566,3180974,-61,29,4373
1505,1.408467,1567,3181975,-59,22,4367
1506,1.409467,1568,3182975,-54,29,4369
1507,1.410467,1569,3183975,-72,14,4401
1508,1.411467,1570,3184975,-79,19,4405
1509,1.412467,1571,3185975,-65,38,4382
1510,1.413467,1572,3186975,-53,51,4375
1511,1.414467,1573,3187975,-36,40,4388
1512,1.415467,1574,3188975,-9,30,4424
1513,1.416467,1575,3189975,-40,24,4406
1514,1.417467,1576,3190975,-55,23,4361
1515,1.418467,1577,3191975,-50,25,4364
1516,1.419467,1578,3192975,-52,32,4382
1517,1.420467,1579,3193975,-45,54,4386
1518,1.421467,1580,3194975,-62,64,4379
1519,1.422467,1581,3195975,-69,49,4379
1520,1.423467,1582,3196975,-73,25,4363
1521,1.424467,1583,3197975,-83,28,4361
1522,1.425467,1584,3198975,-75,40,4370
1523,1.426466,1585,3199974,-41,42,4367
1524,1.427466,1586,3200974,-38,44,4368
1525,1.428467,1587,3201975,-70,52,4352
1526,1.429467,1588,3202975,-63,46,4378
1527,1.430467,1589,3203975,-56,33,4394
1528,1.431466,1590,3204974,-77,35,4370
1529,1.432467,1591,3205975,-78,28,4352
1530,1.433467,1592,3206975,-53,13,4341
1531,1.434467,1593,3207975,-67,17,4356
1532,1.435467,1594,3208975,-81,35,4382
1533,1.436467,1595,3209975,-52,39,4382
1534,1.437467,1596,3210975,-35,25,4368
1535,1.438467,1597,3211975,-41,14,4363
1536,1.439466,1598,3212974,-56,26,4368
1537,1.440466,1599,3213974,-36,32,4370
1538,1.441467,1600,3214975,-34,52,4367
1539,1.442466,1601,3215974,-67,63,4357
1540,1.443467,1602,3216975,-81,52,4340
1541,1.444467,1603,3217975,-89,51,4355
1542,1.445466,1604,3218974,-79,39,4401
1543,1.446467,1605,3219975,-77,49,4398
1544,1.447467,1606,3220975,-88,67,4372
1545,1.448467,1607,3221975,-72,55,4377
1546,1.449467,1608,3222975,-61,39,4392
1547,1.450467,1609,3223975,-42,21,4390
1548,1.451467,1610,3224975,-22,26,4374
1549,1.452467,1611,3225975,-35,24,4378
1550,1.453467,1612,3226975,-56,8,4384
1551,1.454467,1613,3227975,-66,33,4379
1552,1.455467,1614,3228975,-62,57,4388
1553,1.456467,1615,3229975,-61,56,4394
1554,1.457467,1616,3230975,-70,40,4399
1555,1.458467,1617,3231975,-77,38,4406
1556,1.459467,1618,3232975,-68,51,4408
1557,1.460467,1619,3233975,-57,53,4424
1558,1.461467,1620,3234975,-49,61,4422
1559,1.462467,1621,3235975,-50,52,4398
1560,1.463467,1622,3236975,-48,45,4395
1561,1.464467,1623,3237975,-57,48,4398
1562,1.465467,1624,3238975,-42,37,4372
1563,1.466467,1625,3239975,-22,32,4370
1564,1.467467,1626,3240975,-46,35,4373
1565,1.468467,1627,3241975,-41,51,4363
1566,1.469467,1628,3242975,-37,40,4369
1567,1.470467,1629,3243975,-37,15,4363
1568,1.471467,1630,3244975,-34,29,4370
1569,1.472467,1631,3245975,-53,42,4382
1570,1.473467,1632,3246975,-49,39,4366
1571,1.474467,1633,3247975,-54,54,4352
1572,1.475467,1634,3248975,-61,48,4366
1573,1.476467,1635,3249975,-52,36,4378
1574,1.477467,1636,3250975,-56,48,4378
1575,1.478467,1637,3251975,-71,41,4352
1576,1.479467,1638,3252975,-80,46,4358
1577,1.480467,1639,3253975,-69,54,4381
1578,1.481467,1640,3254975,-59,39,4375
1579,1.482467,1641,3255975,-70,38,4379
1580,1.483467,1642,3256975,-87,47,4385
1581,1.484467,1643,3257975,-77,68,4390
1582,1.485467,1644,3258975,-66,75,4363
1583,1.486467,1645,3259975,-53,66,4363
1584,1.487467,1646,3260975,-55,40,4365
1585,1.488467,1647,3261975,-45,20,4375
1586,1.489467,1648,3262975,-38,36,4384
1587,1.490467,1649,3263975,-42,26,4337
1588,1.491467,1650,3264975,-53,2,4356
1589,1.492467,1651,3265975,-71,22,4425
1590,1.493466,1652,3266974,-76,32,4422
1591,1.494467,1653,3267975,-54,29,4373
1592,1.495467,1654,3268975,-49,52,4394
1593,1.496467,1655,3269975,-60,59,4407
1594,1.497467,1656,3270975,-41,48,4363
1595,1.498467,1657,3271975,-49,43,4342
1596,1.499467,1658,3272975,-47,32,4357
1597,1.500467,1659,3273975,-50,31,4404
1598,1.501467,1660,3274975,-47,42,4381
1599,1.502467,1661,3275975,-42,45,4370
1600,1.503467,1662,3276975,-59,34,4387
1601,1.504467,1663,3277975,-64,36,4383
1602,1.505467,1664,3278975,-71,37,4407
1603,1.506467,1665,3279975,-65,15,4406
1604,1.507467,1666,3280975,-58,20,4386
1605,1.508467,1667,3281975,-44,35,4391
1606,1.509467,1668,3282975,-41,41,4397
1607,1.510467,1669,3283975,-51,44,4399
1608,1.511467,1670,3284975,-33,38,4410
1609,1.512467,1671,3285975,-30,43,4392
1610,1.513467,1672,3286975,-50,43,4381
1611,1.514467,1673,3287975,-52,31,4392
1612,1.515467,1674,3288975,-45,34,4380
1613,1.516466,1675,3289974,-66,43,4375
1614,1.517467,1676,3290975,-72,52,4409
1615,1.518467,1677,3291975,-33,38,4396
1616,1.519467,1678,3292975,-20,30,4365
1617,1.520467,1679,3293975,-43,45,4379
1618,1.521467,1680,3294975,-50,37,4352
1619,1.522466,1681,3295974,-44,24,4335
1620,1.523467,1682,3296975,-66,30,4380
1621,1.524467,1683,3297975,-70,29,4381
1622,1.525467,1684,3298975,-64,29,4364
1623,1.526467,1685,3299975,-64,52,4372
1624,1.527467,1686,3300975,-54,48,4380
1625,1.528467,1687,3301975,-46,41,4376
1626,1.529467,1688,3302975,-38,39,4388
1627,1.530467,1689,3303975,-41,33,4403
1628,1.531466,1690,3304974,-45,35,4372
1629,1.532467,1691,3305975,-59,39,4355
1630,1.533467,1692,3306975,-57,40,4381
1631,1.534467,1693,3307975,-58,41,4372
1632,1.535467,1694,3308975,-44,44,4388
1633,1.536467,1695,3309975,-40,28,4421
1634,1.537467,1696,3310975,-41,37,4384
1635,1.538467,1697,3311975,-31,58,4381
1636,1.539466,1698,3312974,-63,50,4399
1637,1.540467,1699,3313975,-77,34,4385
1638,1.541467,1700,3314975,-45,39,4384
1639,1.542467,1701,3315975,-45,64,4403
1640,1.543467,1702,3316975,-64,62,4369
1641,1.544467,1703,3317975,-66,45,4367
1642,1.545467,1704,3318975,-64,42,4384
1643,1.546467,1705,3319975,-52,36,4353
1644,1.547467,1706,3320975,-53,42,4352
1645,1.548467,1707,3321975,-73,55,4362
1646,1.549467,1708,3322975,-72,34,4374
1647,1.550466,1709,3323974,-46,24,4367
1648,1.551466,1710,3324974,-47,50,4355
1649,1.552467,1711,3325975,-48,50,4366
1650,1.553467,1712,3326975,-43,43,4365
1651,1.554467,1713,3327975,-57,52,4384
1652,1.555467,1714,3328975,-57,42,4413
1653,1.556467,1715,3329975,-47,26,4409
1654,1.557467,1716,3330975,-63,29,4381
1655,1.558466,1717,3331974,-71,30,4374
1656,1.559467,1718,3332975,-63,50,4405
1657,1.560467,1719,3333975,-70,65,4382
1658,1.561467,1720,3334975,-64,52,4367
1659,1.562466,1721,3335974,-47,54,4403
1660,1.563467,1722,3336975,-34,34,4390
1661,1.564467,1723,3337975,-23,20,4374
1662,1.565467,1724,3338975,-53,44,4374
1663,1.566467,1725,3339975,-62,36,4366
1664,1.567467,1726,3340975,-34,22,4373
1665,1.568467,1727,3341975,-54,32,4393
1666,1.569467,1728,3342975,-89,29,4382
1667,1.570467,1729,3343975,-65,11,4357
1668,1.571467,1730,3344975,-36,23,4347
1669,1.572467,1731,3345975,-43,37,4366
1670,1.573467,1732,3346975,-55,30,4396
1671,1.574467,1733,3347975,-73,37,4387
1672,1.575467,1734,3348975,-75,32,4404
1673,1.576467,1735,3349975,-58,30,4423
1674,1.577466,1736,3350974,-51,31,4406
1675,1.578467,1737,3351975,-62,28,4384
1676,1.579467,1738,3352975,-54,23,4377
1677,1.580467,1739,3353975,-45,15,4401
1678,1.581467,1740,3354975,-56,24,4401
1679,1.582467,1741,3355975,-67,26,4383
1680,1.583467,1742,3356975,-50,18,4385
1681,1.584466,1743,3357974,-50,35,4411
1682,1.585467,1744,3358975,-57,39,4435
1683,1.586466,1745,3359974,-44,27,4412
1684,1.587467,1746,3360975,-37,33,4388
1685,1.588466,1747,3361974,-44,32,4369
1686,1.589467,1748,3362975,-54,39,4370
1687,1.590466,1749,3363974,-47,32,4371
1688,1.591467,1750,3364975,-51,34,4365
1689,1.592467,1751,3365975,-56,27,4356
1690,1.593467,1752,3366975,-66,14,4351
1691,1.594467,1753,3367975,-51,37,4376
1692,1.595467,1754,3368975,-43,39,4389
1693,1.596467,1755,3369975,-57,36,4366
1694,1.597467,1756,3370975,-61,44,4344
1695,1.598467,1757,3371975,-67,39,4367
1696,1.599467,1758,3372975,-48,33,4365
1697,1.600467,1759,3373975,-46,33,4358
1698,1.601467,1760,3374975,-52,21,4375
1699,1.602467,1761,3375975,-34,19,4380
1700,1.603467,1762,3376975,-37,32,4397
1701,1.604467,1763,3377975,-53,24,4405
1702,1.605466,1764,3378974,-48,33,4379
1703,1.606467,1765,3379975,-44,60,4350
1704,1.607467,1766,3380975,-62,52,4364
1705,1.608467,1767,3381975,-63,26,4371
1706,1.609467,1768,3382975,-39,26,4359
1707,1.610467,1769,3383975,-27,46,4352
1708,1.611467,1770,3384975,-38,45,4356
1709,1.612467,1771,3385975,-41,27,4373
1710,1.613467,1772,3386975,-37,45,4366
1711,1.614467,1773,3387975,-49,60,4352
1712,1.615467,1774,3388975,-54,34,4362
1713,1.616467,1775,3389975,-54,41,4404
1714,1.617466,1776,3390974,-68,44,4407
1715,1.618467,1777,3391975,-75,40,4366
1716,1.619467,1778,3392975,-56,47,4353
1717,1.620466,1779,3393974,-47,34,4364
1718,1.621467,1780,3394975,-58,44,4369
1719,1.622467,1781,3395975,-55,38,4366
1720,1.623467,1782,3396975,-55,22,4374
1721,1.624467,1783,3397975,-67,11,4368
1722,1.625467,1784,3398975,-53,11,4364
1723,1.626467,1785,3399975,-39,23,4365
1724,1.627466,1786,3400974,-44,28,4370
1725,1.628467,1787,3401975,-47,35,4365
1726,1.629467,1788,3402975,-63,37,4349
1727,1.630467,1789,3403975,-63,53,4379
1728,1.631467,1790,3404975,-45,40,4378
1729,1.632467,1791,3405975,-48,23,4350
1730,1.633467,1792,3406975,-52,47,4361
1731,1.634467,1793,3407975,-45,58,4370
1732,1.635467,1794,3408975,-62,47,4373
1733,1.636467,1795,3409975,-62,36,4385
1734,1.637467,1796,3410975,-46,47,4387
1735,1.638466,1797,3411974,-56,47,4374
1736,1.639467,1798,3412975,-67,40,4374
1737,1.640467,1799,3413975,-80,55,4376
1738,1.641466,1800,3414974,-71,42,4372
1739,1.642466,1801,3415974,-58,29,4375
1740,1.643467,1802,3416975,-58,45,4393
1741,1.644467,1803,3417975,-70,42,4385
1742,1.645467,1804,3418975,-64,38,4393
1743,1.646467,1805,3419975,-53,41,4404
1744,1.647467,1806,3420975,-60,32,4392
1745,1.648467,1807,3421975,-45,32,4405
1746,1.649467,1808,3422975,-66,35,4404
1747,1.650466,1809,3423974,-88,36,4377
1748,1.651467,1810,3424975,-71,36,4354
1749,1.652467,1811,3425975,-57,42,4369
1750,1.653467,1812,3426975,-60,42,4391
1751,1.654467,1813,3427975,-52,42,4374
1752,1.655467,1814,3428975,-50,37,4368
1753,1.656467,1815,3429975,-63,48,4381
1754,1.657466,1816,3430974,-65,50,4385
1755,1.658467,1817,3431975,-45,39,4358
1756,1.659467,1818,3432975,-55,54,4346
1757,1.660467,1819,3433975,-67,55,4374
1758,1.661467,1820,3434975,-39,38,4376
1759,1.662467,1821,3435975,-48,24,4371
1760,1.663467,1822,3436975,-46,43,4358
1761,1.664467,1823,3437975,-51,41,4363
1762,1.665466,1824,3438974,-82,37,4389
1763,1.666467,1825,3439975,-69,50,4395
1764,1.667467,1826,3440975,-41,37,4390
1765,1.668467,1827,3441975,-38,40,4392
1766,1.669467,1828,3442975,-34,51,4406
1767,1.670467,1829,3443975,-49,51,4399
1768,1.671467,1830,3444975,-56,53,4380
1769,1.672467,1831,3445975,-32,48,4394
1770,1.673467,1832,3446975,-41,28,4391
1771,1.674467,1833,3447975,-73,36,4380
1772,1.675467,1834,3448975,-59,49,4382
1773,1.676467,1835,3449975,-60,27,4396
1774,1.677467,1836,3450975,-81,24,4388
1775,1.678467,1837,3451975,-65,41,4373
1776,1.679467,1838,3452975,-47,47,4371
1777,1.680467,1839,3453975,-49,41,4383
1778,1.681467,1840,3454975,-55,25,4385
1779,1.682467,1841,3455975,-46,32,4375
1780,1.683467,1842,3456975,-54,42,4398
1781,1.684467,1843,3457975,-59,37,4383
1782,1.685467,1844,3458975,-52,35,4359
1783,1.686467,1845,3459975,-54,31,4381
1784,1.687467,1846,3460975,-61,26,4407
1785,1.688467,1847,3461975,-74,13,4389
1786,1.689466,1848,3462974,-75,25,4354
1787,1.690467,1849,3463975,-58,41,4349
1788,1.691467,1850,3464975,-41,52,4387
1789,1.692467,1851,3465975,-46,62,4398
1790,1.693467,1852,3466975,-71,48,4377
1791,1.694466,1853,3467974,-88,41,4403
1792,1.695467,1854,3468975,-92,32,4402
1793,1.696467,1855,3469975,-90,29,4402
1794,1.697467,1856,3470975,-83,28,4393
1795,1.698467,1857,3471975,-57,35,4379
1796,1.699467,1858,3472975,-55,55,4389
1797,1.700467,1859,3473975,-62,42,4374
1798,1.701467,1860,3474975,-48,27,4366
1799,1.702467,1861,3475975,-50,32,4366
1800,1.703467,1862,3476975,-57,40,4379
1801,1.704467,1863,3477975,-55,31,4389
1802,1.705467,1864,3478975,-36,25,4394
1803,1.706467,1865,3479975,-63,37,4409
1804,1.707467,1866,3480975,-84,49,4394
1805,1.708467,1867,3481975,-61,45,4387
1806,1.709467,1868,3482975,-59,51,4410
1807,1.710467,1869,3483975,-36,44,4392
1808,1.711467,1870,3484975,-40,13,4395
1809,1.712467,1871,3485975,-46,16,4386
1810,1.713467,1872,3486975,-30,37,4374
1811,1.714467,1873,3487975,-47,47,4390
1812,1.715467,1874,3488975,-55,41,4382
1813,1.716467,1875,3489975,-48,37,4400
1814,1.717467,1876,3490975,-52,33,4412
1815,1.718467,1877,3491975,-51,54,4386
1816,1.719467,1878,3492975,-46,58,4388
1817,1.720467,1879,3493975,-50,40,4397
1818,1.721467,1880,3494975,-62,34,4385
1819,1.722467,1881,3495975,-61,50,4364
1820,1.723467,1882,3496975,-40,48,4346
1821,1.724466,1883,3497974,-53,21,4374
1822,1.725467,1884,3498975,-72,22,4398
1823,1.726467,1885,3499975,-57,26,4388
1824,1.727467,1886,3500975,-44,40,4359
1825,1.728467,1887,3501975,-49,41,4355
1826,1.729467,1888,3502975,-55,33,4374
1827,1.730467,1889,3503975,-53,25,4374
1828,1.731467,1890,3504975,-55,11,4389
1829,1.732467,1891,3505975,-68,30,4411
1830,1.733467,1892,3506975,-74,55,4408
1831,1.734467,1893,3507975,-69,40,4405
1832,1.735467,1894,3508975,-50,39,4401
1833,1.736467,1895,3509975,-33,57,4392
1834,1.737467,1896,3510975,-37,54,4371
1835,1.738467,1897,3511975,-37,61,4353
1836,1.739467,1898,3512975,-43,59,4377
1837,1.740467,1899,3513975,-46,43,4397
1838,1.741467,1900,3514975,-54,30,4379
1839,1.742467,1901,3515975,-80,44,4356
1840,1.743467,1902,3516975,-69,40,4379
1841,1.744467,1903,3517975,-53,23,4375
1842,1.745467,1904,3518975,-69,39,4345
1843,1.746467,1905,3519975,-61,35,4370
1844,1.747467,1906,3520975,-51,21,4389
1845,1.748467,1907,3521975,-69,33,4402
1846,1.749467,1908,3522975,-84,43,4401
1847,1.750467,1909,3523975,-69,35,4398
1848,1.751467,1910,3524975,-55,44,4400
1849,1.752467,1911,3525975,-63,51,4391
1850,1.753467,1912,3526975,-69,42,4406
1851,1.754467,1913,3527975,-60,41,4405
1852,1.755467,1914,3528975,-54,36,4410
1853,1.756467,1915,3529975,-53,39,4399
1854,1.757467,1916,3530975,-49,52,4390
1855,1.758467,1917,3531975,-65,47,4404
1856,1.759467,1918,3532975,-57,51,4394
1857,1.760467,1919,3533975,-63,51,4404
1858,1.761467,1920,3534975,-75,33,4407
1859,1.762467,1921,3535975,-54,32,4369
1860,1.763467,1922,3536975,-53,36,4371
1861,1.764466,1923,3537974,-55,44,4391
1862,1.765467,1924,3538975,-45,50,4393
1863,1.766467,1925,3539975,-54,41,4403
1864,1.767467,1926,3540975,-59,42,4367
1865,1.768467,1927,3541975,-48,53,4356
1866,1.769467,1928,3542975,-72,61,4374
1867,1.770467,1929,3543975,-56,40,4385
1868,1.771467,1930,3544975,-64,38,4401
1869,1.772467,1931,3545975,-67,35,4390
1870,1.773467,1932,3546975,-66,21,4400
1871,1.774467,1933,3547975,-62,25,4393
1872,1.775467,1934,3548975,-48,39,4382
1873,1.776467,1935,3549975,-42,31,4401
1874,1.777467,1936,3550975,-34,16,4412
1875,1.778467,1937,3551975,-45,16,4399
1876,1.779467,1938,3552975,-51,45,4381
1877,1.780467,1939,3553975,-66,36,4353
1878,1.781467,1940,3554975,-69,30,4348
1879,1.782467,1941,3555975,-44,39,4369
1880,1.783466,1942,3556974,-38,39,4370
1881,1.784467,1943,3557975,-54,70,4368
1882,1.785467,1944,3558975,-54,69,4364
1883,1.786467,1945,3559975,-56,69,4360
1884,1.787467,1946,3560975,-73,63,4357
1885,1.788467,1947,3561975,-67,45,4381
1886,1.789466,1948,3562974,-63,50,4408
1887,1.790466,1949,3563974,-78,57,4396
1888,1.791467,1950,3564975,-75,36,4379
1889,1.792467,1951,3565975,-59,37,4388
1890,1.793467,1952,3566975,-47,53,4371
1891,1.794467,1953,3567975,-51,36,4377
1892,1.795467,1954,3568975,-55,31,4378
1893,1.796467,1955,3569975,-35,33,4370
1894,1.797467,1956,3570975,-35,38,4368
1895,1.798467,1957,3571975,-63,43,4343
1896,1.799467,1958,3572975,-60,46,4369
1897,1.800467,1959,3573975,-46,49,4393
1898,1.801467,1960,3574975,-41,45,4377
1899,1.802467,1961,3575975,-45,48,4374
1900,1.803467,1962,3576975,-55,52,4366
1901,1.804467,1963,3577975,-50,45,4365
1902,1.805467,1964,3578975,-57,43,4395
1903,1.806467,1965,3579975,-63,53,4388
1904,1.807466,1966,3580974,-64,62,4397
1905,1.808467,1967,3581975,-65,55,4406
1906,1.809467,1968,3582975,-62,44,4381
1907,1.810467,1969,3583975,-59,34,4372
1908,1.811467,1970,3584975,-57,26,4398
1909,1.812467,1971,3585975,-55,37,4407
1910,1.813467,1972,3586975,-50,53,4387
1911,1.814467,1973,3587975,-48,42,4362
1912,1.815467,1974,3588975,-59,38,4345
1913,1.816467,1975,3589975,-51,46,4352
1914,1.817467,1976,3590975,-35,29,4366
1915,1.818467,1977,3591975,-42,15,4371
1916,1.819466,1978,3592974,-59,33,4380
1917,1.820467,1979,3593975,-55,35,4378
1918,1.821466,1980,3594974,-54,46,4374
1919,1.822467,1981,3595975,-64,53,4402
1920,1.823467,1982,3596975,-53,31,4410
1921,1.824467,1983,3597975,-56,42,4397
1922,1.825467,1984,3598975,-64,58,4377
1923,1.826467,1985,3599975,-51,51,4359
1924,1.827467,1986,3600975,-60,42,4357
1925,1.828466,1987,3601974,-72,41,4367
1926,1.829467,1988,3602975,-62,38,4384
1927,1.830467,1989,3603975,-52,23,4388
1928,1.831467,1990,3604975,-44,34,4379
1929,1.832467,1991,3605975,-59,52,4381
1930,1.833467,1992,3606975,-67,37,4399
1931,1.834467,1993,3607975,-59,38,4389
1932,1.835467,1994,3608975,-46,39,4390
1933,1.836467,1995,3609975,-62,42,4412
1934,1.837467,1996,3610975,-65,39,4407
1935,1.838467,1997,3611975,-55,26,4383
1936,1.839467,1998,3612975,-77,26,4379
1937,1.840467,1999,3613975,-81,34,4384
1938,1.841467,2000,3614975,-63,27,4372
1939,1.842467,2001,3615975,-66,23,4360
1940,1.843467,2002,3616975,-81,45,4368
1941,1.844467,2003,3617975,-55,56,4388
1942,1.845467,2004,3618975,-43,57,4372
1943,1.846467,2005,3619975,-56,60,4377
1944,1.847467,2006,3620975,-54,51,4398
1945,1.848467,2007,3621975,-67,31,4369
1946,1.849467,2008,3622975,-80,32,4378
1947,1.850467,2009,3623975,-64,53,4390
1948,1.851467,2010,3624975,-48,49,4374
1949,1.852467,2011,3625975,-47,43,4387
1950,1.853466,2012,3626974,-37,56,4373
1951,1.854467,2013,3627975,-46,37,4351
1952,1.855467,2014,3628975,-42,38,4329
1953,1.856467,2015,3629975,-45,42,4350
1954,1.857467,2016,3630975,-65,26,4388
1955,1.858466,2017,3631974,-51,32,4385
1956,1.859467,2018,3632975,-54,38,4394
1957,1.860467,2019,3633975,-77,29,4371
1958,1.861467,2020,3634975,-76,23,4368
1959,1.862467,2021,3635975,-63,43,4375
1960,1.863467,2022,3636975,-66,48,4371
1961,1.864467,2023,3637975,-54,49,4389
1962,1.865466,2024,3638974,-53,53,4392
1963,1.866467,2025,3639975,-58,47,4404
1964,1.867467,2026,3640975,-50,62,4415
1965,1.868467,2027,3641975,-35,57,4420
1966,1.869467,2028,3642975,-34,38,4423
1967,1.870467,2029,3643975,-43,40,4403
1968,1.871467,2030,3644975,-35,42,4379
1969,1.872467,2031,3645975,-62,35,4371
1970,1.873467,2032,3646975,-85,38,4369
1971,1.874467,2033,3647975,-61,53,4356
1972,1.875467,2034,3648975,-55,52,4350
1973,1.876467,2035,3649975,-57,59,4381
1974,1.877467,2036,3650975,-51,67,4397
1975,1.878466,2037,3651974,-47,39,4375
1976,1.879467,2038,3652975,-55,29,4357
1977,1.880467,2039,3653975,-68,41,4369
1978,1.881467,2040,3654975,-62,37,4377
1979,1.882467,2041,3655975,-67,32,4372
1980,1.883467,2042,3656975,-68,37,4377
1981,1.884467,2043,3657975,-58,38,4380
1982,1.885467,2044,3658975,-57,39,4390
1983,1.886467,2045,3659975,-61,33,4386
1984,1.887467,2046,3660975,-61,43,4372
1985,1.888467,2047,3661975,-46,45,4372
1986,1.889467,2048,3662975,-56,38,4385
1987,1.890467,2049,3663975,-73,41,4391
1988,1.891467,2050,3664975,-70,22,4382
1989,1.892467,2051,3665975,-59,32,4368
1990,1.893467,2052,3666975,-69,33,4368
1991,1.894466,2053,3667974,-53,17,4395
1992,1.895467,2054,3668975,-24,39,4386
1993,1.896467,2055,3669975,-37,48,4387
1994,1.897467,2056,3670975,-54,36,4401
1995,1.898467,2057,3671975,-82,42,4408
1996,1.899467,2058,3672975,-76,44,4408
1997,1.900467,2059,3673975,-75,39,4374
1998,1.901467,2060,3674975,-77,43,4376
1999,1.902467,2061,3675975,-37,38,4409
2000,1.903467,2062,3676975,-36,26,4440
2001,1.904467,2063,3677975,-54,28,4406
2002,1.905467,2064,3678975,-52,32,4382
2003,1.906466,2065,3679974,-59,25,4392
2004,1.907467,2066,3680975,-57,30,4380
2005,1.908467,2067,3681975,-51,33,4385
2006,1.909467,2068,3682975,-40,30,4385
2007,1.910467,2069,3683975,-42,21,4380
2008,1.911467,2070,3684975,-45,24,4370
2009,1.912467,2071,3685975,-49,51,4381
2010,1.913467,2072,3686975,-61,47,4382
2011,1.914466,2073,3687974,-45,42,4369
2012,1.915467,2074,3688975,-44,45,4392
2013,1.916467,2075,3689975,-41,36,4380
2014,1.917467,2076,3690975,-26,47,4366
2015,1.918466,2077,3691974,-45,43,4421
2016,1.919467,2078,3692975,-61,34,4400
2017,1.920467,2079,3693975,-45,34,4349
2018,1.921467,2080,3694975,-41,34,4399
2019,1.922467,2081,3695975,-41,38,4396
2020,1.923467,2082,3696975,-49,39,4359
2021,1.924466,2083,3697974,-59,35,4370
2022,1.925467,2084,3698975,-60,43,4393
2023,1.926467,2085,3699975,-66,41,4404
2024,1.927467,2086,3700975,-73,41,4389
2025,1.928467,2087,3701975,-59,58,4391
2026,1.929467,2088,3702975,-66,43,4387
2027,1.930467,2089,3703975,-83,25,4381
2028,1.931467,2090,3704975,-65,26,4374
2029,1.932467,2091,3705975,-52,37,4386
2030,1.933466,2092,3706974,-46,36,4401
2031,1.934467,2093,3707975,-36,33,4369
2032,1.935467,2094,3708975,-47,32,4363
2033,1.936467,2095,3709975,-51,22,4374
2034,1.937467,2096,3710975,-38,22,4392
2035,1.938467,2097,3711975,-37,27,4393
2036,1.939467,2098,3712975,-42,21,4385
2037,1.940466,2099,3713974,-33,30,4374
2038,1.941467,2100,3714975,-48,32,4373
2039,1.942467,2101,3715975,-57,40,4377
2040,1.943467,2102,3716975,-30,54,4369
2041,1.944467,2103,3717975,-55,57,4364
2042,1.945467,2104,3718975,-68,52,4374
2043,1.946467,2105,3719975,-38,27,4371
2044,1.947467,2106,3720975,-45,31,4367
2045,1.948467,2107,3721975,-58,50,4382
2046,1.949466,2108,3722974,-47,52,4377
2047,1.950467,2109,3723975,-48,33,4396
2048,1.951467,2110,3724975,-46,36,4406
2049,1.952467,2111,3725975,-50,59,4379
2050,1.953467,2112,3726975,-58,41,4365
2051,1.954467,2113,3727975,-60,32,4375
2052,1.955467,2114,3728975,-44,54,4380
2053,1.956467,2115,3729975,-37,59,4390
2054,1.957467,2116,3730975,-49,46,4406
2055,1.958467,2117,3731975,-54,29,4398
2056,1.959467,2118,3732975,-58,39,4370
2057,1.960467,2119,3733975,-56,52,4400
2058,1.961467,2120,3734975,-50,38,4414
2059,1.962467,2121,3735975,-49,35,4380
2060,1.963467,2122,3736975,-67,55,4390
2061,1.964467,2123,3737975,-76,70,4393
2062,1.965467,2124,3738975,-69,62,4381
2063,1.966467,2125,3739975,-57,41,4389
2064,1.967467,2126,3740975,-39,24,4369
2065,1.968467,2127,3741975,-49,38,4347
2066,1.969467,2128,3742975,-67,50,4365
2067,1.970467,2129,3743975,-65,31,4405
2068,1.971466,2130,3744974,-44,16,4414
2069,1.972467,2131,3745975,-42,30,4407
2070,1.973467,2132,3746975,-61,39,4404
2071,1.974467,2133,3747975,-66,27,4402
2072,1.975467,2134,3748975,-53,45,4410
2073,1.976467,2135,3749975,-58,51,4382
2074,1.977467,2136,3750975,-79,30,4348
2075,1.978467,2137,3751975,-65,23,4348
2076,1.979467,2138,3752975,-60,38,4377
2077,1.980467,2139,3753975,-47,56,4387
2078,1.981466,2140,3754974,-38,59,4371
2079,1.982467,2141,3755975,-54,53,4377
2080,1.983467,2142,3756975,-47,53,4385
2081,1.984467,2143,3757975,-31,52,4385
2082,1.985466,2144,3758974,-37,30,4399
2083,1.986467,2145,3759975,-46,24,4400
2084,1.987466,2146,3760974,-35,29,4396
2085,1.988466,2147,3761974,-28,47,4395
2086,1.989467,2148,3762975,-60,43,4382
2087,1.990467,2149,3763975,-86,22,4394
2088,1.991467,2150,3764975,-70,43,4404
2089,1.992466,2151,3765974,-58,62,4402
2090,1.993467,2152,3766975,-53,69,4383
2091,1.994467,2153,3767975,-51,51,4367
2092,1.995467,2154,3768975,-45,47,4389
2093,1.996467,2155,3769975,-54,58,4409
2094,1.997467,2156,3770975,-66,40,4403
2095,1.998467,2157,3771975,-57,31,4383
2096,1.999467,2158,3772975,-58,28,4367
2097,2.000466,2159,3773974,-53,20,4396
2098,2.001467,2160,3774975,-46,23,4410
2099,2.002467,2161,3775975,-57,26,4393
2100,2.003467,2162,3776975,-54,32,4406
2101,2.004467,2163,3777975,-41,42,4377
2102,2.005467,2164,3778975,-50,47,4352
2103,2.006466,2165,3779974,-52,60,4345
2104,2.007467,2166,3780975,-43,55,4352
2105,2.008467,2167,3781975,-53,45,4379
2106,2.009467,2168,3782975,-52,30,4392
2107,2.010467,2169,3783975,-58,21,4402
2108,2.011467,2170,3784975,-68,35,4399
2109,2.012467,2171,3785975,-60,35,4365
2110,2.013467,2172,3786975,-61,42,4372
2111,2.014467,2173,3787975,-66,70,4395
2112,2.015467,2174,3788975,-55,57,4386
2113,2.016467,2175,3789975,-47,31,4400
2114,2.017467,2176,3790975,-42,36,4420
2115,2.018467,2177,3791975,-40,44,4405
2116,2.019467,2178,3792975,-60,44,4381
2117,2.020467,2179,3793975,-76,46,4393
2118,2.021466,2180,3794974,-58,44,4383
2119,2.022467,2181,3795975,-37,45,4372
2120,2.023467,2182,3796975,-57,35,4407
2121,2.024467,2183,3797975,-71,28,4411
2122,2.025467,2184,3798975,-54,34,4372
2123,2.026467,2185,3799975,-51,33,4362
2124,2.027467,2186,3800975,-63,48,4378
2125,2.028467,2187,3801975,-77,38,4374
2126,2.029467,2188,3802975,-77,29,4366
2127,2.030467,2189,3803975,-46,18,4370
2128,2.031467,2190,3804975,-54,13,4369
2129,2.032467,2191,3805975,-77,43,4377
2130,2.033467,2192,3806975,-81,39,4382
2131,2.034467,2193,3807975,-69,43,4386
2132,2.035467,2194,3808975,-49,58,4393
2133,2.036467,2195,3809975,-51,57,4387
2134,2.037467,2196,3810975,-31,74,4377
2135,2.038467,2197,3811975,-20,62,4381
2136,2.039467,2198,3812975,-50,54,4379
2137,2.040467,2199,3813975,-63,65,4370
2138,2.041467,2200,3814975,-31,57,4373
2139,2.042467,2201,3815975,-28,41,4368
2140,2.043467,2202,3816975,-45,43,4375
2141,2.044467,2203,3817975,-41,51,4400
2142,2.045467,2204,3818975,-41,30,4411
2143,2.046467,2205,3819975,-56,30,4403
2144,2.047467,2206,3820975,-60,32,4371
2145,2.048467,2207,3821975,-49,29,4356
2146,2.049467,2208,3822975,-54,27,4372
2147,2.050467,2209,3823975,-51,32,4381
2148,2.051467,2210,3824975,-39,52,4383
2149,2.052467,2211,3825975,-34,54,4396
2150,2.053466,2212,3826974,-42,58,4393
2151,2.054466,2213,3827974,-47,40,4369
2152,2.055466,2214,3828974,-52,44,4358
2153,2.056467,2215,3829975,-54,64,4380
2154,2.057466,2216,3830974,-34,46,4400
2155,2.058467,2217,3831975,-29,39,4397
2156,2.059467,2218,3832975,-35,43,4411
2157,2.060466,2219,3833974,-48,49,4414
2158,2.061467,2220,3834975,-56,52,4369
2159,2.062466,2221,3835974,-65,57,4330
2160,2.063467,2222,3836975,-72,51,4351
2161,2.064467,2223,3837975,-61,52,4392
2162,2.065467,2224,3838975,-63,52,4374
2163,2.066467,2225,3839975,-57,33,4369
2164,2.067467,2226,3840975,-52,37,4389
2165,2.068467,2227,3841975,-58,46,4375
2166,2.069467,2228,3842975,-63,38,4368
2167,2.070467,2229,3843975,-58,54,4373
2168,2.071467,2230,3844975,-58,44,4378
2169,2.072467,2231,3845975,-54,8,4376
2170,2.073467,2232,3846975,-52,32,4382
2171,2.074467,2233,3847975,-55,54,4385
2172,2.075466,2234,3848974,-43,48,4385
2173,2.076467,2235,3849975,-51,44,4385
2174,2.077467,2236,3850975,-55,33,4405
2175,2.078467,2237,3851975,-52,39,4392
2176,2.079467,2238,3852975,-63,54,4391
2177,2.080467,2239,3853975,-67,45,4406
2178,2.081467,2240,3854975,-66,32,4393
2179,2.082467,2241,3855975,-67,44,4360
2180,2.083467,2242,3856975,-73,54,4321
2181,2.084467,2243,3857975,-49,42,4348
2182,2.085467,2244,3858975,-44,41,4382
2183,2.086467,2245,3859975,-67,40,4380
2184,2.087467,2246,3860975,-50,45,4385
2185,2.088467,2247,3861975,-39,48,4391
2186,2.089467,2248,3862975,-55,32,4375
2187,2.090466,2249,3863974,-55,24,4370
2188,2.091467,2250,3864975,-57,27,4355
2189,2.092466,2251,3865974,-57,38,4348
2190,2.093467,2252,3866975,-55,50,4362
2191,2.094467,2253,3867975,-61,34,4369
2192,2.095467,2254,3868975,-52,16,4376
2193,2.096467,2255,3869975,-49,23,4386
2194,2.097467,2256,3870975,-55,27,4390
2195,2.098467,2257,3871975,-51,26,4385
2196,2.099466,2258,3872974,-42,36,4391
2197,2.100467,2259,3873975,-36,43,4393
2198,2.101467,2260,3874975,-45,31,4395
2199,2.102467,2261,3875975,-33,9,4404
2200,2.103467,2262,3876975,-33,5,4400
2201,2.104467,2263,3877975,-61,28,4379
2202,2.105467,2264,3878975,-60,49,4367
2203,2.106467,2265,3879975,-47,48,4367
2204,2.107467,2266,3880975,-49,53,4356
2205,2.108467,2267,3881975,-68,64,4351
2206,2.109467,2268,3882975,-64,55,4377
2207,2.110467,2269,3883975,-48,48,4392
2208,2.111467,2270,3884975,-56,52,4376
2209,2.112467,2271,3885975,-74,29,4390
2210,2.113467,2272,3886975,-74,9,4397
2211,2.114466,2273,3887974,-52,34,4376
2212,2.115467,2274,3888975,-31,53,4347
2213,2.116467,2275,3889975,-33,42,4352
2214,2.117467,2276,3890975,-39,40,4376
2215,2.118467,2277,3891975,-43,39,4367
2216,2.119467,2278,3892975,-44,40,4394
2217,2.120467,2279,3893975,-69,49,4402
2218,2.121466,2280,3894974,-87,42,4387
2219,2.122467,2281,3895975,-89,43,4399
2220,2.123467,2282,3896975,-88,47,4385
2221,2.124467,2283,3897975,-73,38,4387
2222,2.125467,2284,3898975,-80,44,4388
2223,2.126467,2285,3899975,-73,51,4367
2224,2.127467,2286,3900975,-61,42,4362
2225,2.128467,2287,3901975,-55,28,4352
2226,2.129467,2288,3902975,-41,25,4346
2227,2.130467,2289,3903975,-36,54,4382
2228,2.131467,2290,3904975,-40,55,4378
2229,2.132467,2291,3905975,-31,45,4376
2230,2.133467,2292,3906975,-39,26,4403
2231,2.134467,2293,3907975,-76,17,4407
2232,2.135467,2294,3908975,-81,34,4412
2233,2.136467,2295,3909975,-72,53,4412
2234,2.137467,2296,3910975,-75,64,4408
2235,2.138467,2297,3911975,-79,40,4386
2236,2.139467,2298,3912975,-60,37,4373
2237,2.140466,2299,3913974,-20,39,4358
2238,2.141467,2300,3914975,-3,24,4355
2239,2.142466,2301,3915974,-21,28,4358
2240,2.143467,2302,3916975,-10,31,4365
2241,2.144466,2303,3917974,-12,27,4381
2242,2.145467,2304,3918975,-59,36,4392
2243,2.146467,2305,3919975,-72,54,4401
2244,2.147467,2306,3920975,-74,59,4416
2245,2.148467,2307,3921975,-67,52,4431
2246,2.149467,2308,3922975,-58,56,4412
2247,2.150467,2309,3923975,-74,59,4399
2248,2.151467,2310,3924975,-87,51,4385
2249,2.152467,2311,3925975,-63,27,4384
2250,2.153467,2312,3926975,-29,20,4364
2251,2.154467,2313,3927975,-22,27,4300
2252,2.155467,2314,3928975,-32,16,4317
2253,2.156467,2315,3929975,-28,18,4348
2254,2.157467,2316,3930975,-20,42,4348
2255,2.158466,2317,3931974,-55,54,4388
2256,2.159467,2318,3932975,-73,55,4411
2257,2.160467,2319,3933975,-82,60,4401
2258,2.161467,2320,3934975,-99,62,4393
2259,2.162467,2321,3935975,-88,59,4396
2260,2.163467,2322,3936975,-73,44,4393
2261,2.164466,2323,3937974,-78,32,4373
2262,2.165467,2324,3938975,-43,31,4352
2263,2.166467,2325,3939975,0,17,4351
2264,2.167467,2326,3940975,-30,24,4376
2265,2.168467,2327,3941975,-53,33,4397
2266,2.169467,2328,3942975,-51,25,4395
2267,2.170467,2329,3943975,-62,36,4383
2268,2.171467,2330,3944975,-61,57,4401
2269,2.172467,2331,3945975,-103,60,4409
2270,2.173467,2332,3946975,-149,58,4381
2271,2.174467,2333,3947975,-133,68,4385
2272,2.175467,2334,3948975,-125,49,4383
2273,2.176467,2335,3949975,-121,31,4386
2274,2.177467,2336,3950975,-91,29,4381
2275,2.178467,2337,3951975,-44,23,4358
2276,2.179467,2338,3952975,-11,17,4349
2277,2.180467,2339,3953975,4,22,4356
2278,2.181467,2340,3954975,-19,34,4373
2279,2.182466,2341,3955974,-47,44,4358
2280,2.183467,2342,3956975,-49,54,4371
2281,2.184467,2343,3957975,-67,55,4367
2282,2.185466,2344,3958974,-72,57,4371
2283,2.186467,2345,3959975,-58,52,4417
2284,2.187467,2346,3960975,-47,45,4414
2285,2.188467,2347,3961975,-35,42,4412
2286,2.189467,2348,3962975,-18,34,4399
2287,2.190467,2349,3963975,-6,41,4385
2288,2.191467,2350,3964975,-29,47,4364
2289,2.192467,2351,3965975,-24,29,4353
2290,2.193467,2352,3966975,1,13,4366
2291,2.194467,2353,3967975,-16,26,4359
2292,2.195466,2354,3968974,-36,49,4387
2293,2.196466,2355,3969974,-57,53,4414
2294,2.197467,2356,3970975,-78,70,4405
2295,2.198467,2357,3971975,-79,63,4417
2296,2.199466,2358,3972974,-63,47,4416
2297,2.200467,2359,3973975,-51,47,4386
2298,2.201467,2360,3974975,-42,46,4389
2299,2.202467,2361,3975975,-21,42,4409
2300,2.203467,2362,3976975,-27,24,4392
2301,2.204467,2363,3977975,-31,28,4388
2302,2.205467,2364,3978975,-42,36,4384
2303,2.206466,2365,3979974,-50,25,4356
2304,2.207467,2366,3980975,-39,30,4354
2305,2.208467,2367,3981975,-61,37,4355
2306,2.209467,2368,3982975,-88,35,4357
2307,2.210467,2369,3983975,-87,47,4382
2308,2.211467,2370,3984975,-81,60,4397
2309,2.212466,2371,3985974,-72,66,4381
2310,2.213467,2372,3986975,-56,63,4397
2311,2.214467,2373,3987975,-54,43,4395
2312,2.215467,2374,3988975,-47,42,4401
2313,2.216467,2375,3989975,-39,35,4392
2314,2.217467,2376,3990975,-27,27,4353
2315,2.218467,2377,3991975,-53,39,4367
2316,2.219467,2378,3992975,-64,37,4367
2317,2.220467,2379,3993975,-51,41,4359
2318,2.221467,2380,3994975,-75,46,4343
2319,2.222467,2381,3995975,-87,48,4328
2320,2.223467,2382,3996975,-76,42,4349
2321,2.224467,2383,3997975,-63,38,4392
2322,2.225467,2384,3998975,-55,54,4423
2323,2.226467,2385,3999975,-52,71,4416
2324,2.227467,2386,4000975,-42,54,4422
2325,2.228467,2387,4001975,-46,29,4437
2326,2.229467,2388,4002975,-60,29,4401
2327,2.230467,2389,4003975,-46,35,4398
2328,2.231467,2390,4004975,-40,49,4418
2329,2.232467,2391,4005975,-64,47,4392
2330,2.233467,2392,4006975,-75,40,4385
2331,2.234466,2393,4007974,-90,32,4381
2332,2.235467,2394,4008975,-89,27,4377
2333,2.236466,2395,4009974,-69,39,4389
2334,2.237467,2396,4010975,-29,35,4389
2335,2.238467,2397,4011975,8,24,4369
2336,2.239467,2398,4012975,-5,40,4362
2337,2.240467,2399,4013975,-1,45,4372
2338,2.241467,2400,4014975,4,30,4366
2339,2.242467,2401,4015975,-16,37,4361
2340,2.243467,2402,4016975,-38,48,4378
2341,2.244467,2403,4017975,-63,52,4381
2342,2.245466,2404,4018974,-79,45,4370
2343,2.246467,2405,4019975,-68,55,4389
2344,2.247467,2406,4020975,-62,45,4418
2345,2.248467,2407,4021975,-54,33,4404
2346,2.249467,2408,4022975,-31,33,4383
2347,2.250467,2409,4023975,-23,32,4376
2348,2.251467,2410,4024975,-13,41,4371
2349,2.252467,2411,4025975,-2,47,4394
2350,2.253467,2412,4026975,-11,36,4383
2351,2.254467,2413,4027975,-9,22,4369
2352,2.255467,2414,4028975,-27,31,4385
2353,2.256467,2415,4029975,-46,41,4374
2354,2.257467,2416,4030975,-39,38,4362
2355,2.258467,2417,4031975,-57,42,4340
2356,2.259467,2418,4032975,-82,46,4362
2357,2.260467,2419,4033975,-93,42,4386
2358,2.261466,2420,4034974,-84,34,4387
2359,2.262467,2421,4035975,-70,43,4413
2360,2.263467,2422,4036975,-64,55,4411
2361,2.264467,2423,4037975,-50,45,4405
2362,2.265466,2424,4038974,-51,29,4398
2363,2.266467,2425,4039975,-68,21,4378
2364,2.267467,2426,4040975,-75,38,4363
2365,2.268467,2427,4041975,-80,54,4369
2366,2.269467,2428,4042975,-88,70,4376
2367,2.270467,2429,4043975,-91,56,4368
2368,2.271467,2430,4044975,-79,30,4364
2369,2.272467,2431,4045975,-93,29,4351
2370,2.273466,2432,4046974,-82,46,4343
2371,2.274467,2433,4047975,-45,44,4370
2372,2.275467,2434,4048975,-49,31,4400
2373,2.276466,2435,4049974,-45,30,4387
2374,2.277466,2436,4050974,-44,24,4384
2375,2.278467,2437,4051975,-48,19,4404
2376,2.279467,2438,4052975,-26,39,4404
2377,2.280467,2439,4053975,-40,50,4384
2378,2.281467,2440,4054975,-70,38,4381
2379,2.282467,2441,4055975,-59,40,4383
2380,2.283467,2442,4056975,-25,57,4370
2381,2.284467,2443,4057975,-26,41,4384
2382,2.285467,2444,4058975,-46,9,4385
2383,2.286467,2445,4059975,-37,17,4369
2384,2.287467,2446,4060975,-43,36,4362
2385,2.288467,2447,4061975,-56,47,4392
2386,2.289467,2448,4062975,-50,39,4389
2387,2.290467,2449,4063975,-34,15,4367
2388,2.291466,2450,4064974,-40,12,4352
2389,2.292467,2451,4065975,-47,43,4365
2390,2.293467,2452,4066975,-34,48,4384
2391,2.294467,2453,4067975,-27,38,4384
2392,2.295467,2454,4068975,-53,50,4404
2393,2.296467,2455,4069975,-61,54,4378
2394,2.297466,2456,4070974,-47,41,4355
2395,2.298467,2457,4071975,-50,36,4355
2396,2.299467,2458,4072975,-60,38,4360
2397,2.300467,2459,4073975,-69,39,4370
2398,2.301466,2460,4074974,-56,43,4368
2399,2.302467,2461,4075975,-53,49,4369
2400,2.303467,2462,4076975,-63,47,4382
2401,2.304467,2463,4077975,-60,36,4393
2402,2.305467,2464,4078975,-66,36,4406
2403,2.306467,2465,4079975,-67,40,4359
2404,2.307467,2466,4080975,-66,50,4349
2405,2.308467,2467,4081975,-60,52,4391
2406,2.309467,2468,4082975,-43,35,4378
2407,2.310467,2469,4083975,-53,30,4375
2408,2.311467,2470,4084975,-74,28,4386
2409,2.312467,2471,4085975,-67,21,4378
2410,2.313467,2472,4086975,-80,38,4386
2411,2.314467,2473,4087975,-93,32,4385
2412,2.315466,2474,4088974,-72,24,4370
2413,2.316467,2475,4089975,-75,50,4365
2414,2.317467,2476,4090975,-85,48,4400
2415,2.318467,2477,4091975,-76,45,4407
2416,2.319467,2478,4092975,-60,48,4370
2417,2.320467,2479,4093975,-70,32,4399
2418,2.321467,2480,4094975,-82,22,4426
2419,2.322467,2481,4095975,-75,27,4402
2420,2.323467,2482,4096975,-81,46,4382
2421,2.324467,2483,4097975,-70,48,4356
2422,2.325467,2484,4098975,-52,47,4354
2423,2.326467,2485,4099975,-56,41,4391
2424,2.327467,2486,4100975,-62,32,4402
2425,2.328467,2487,4101975,-40,45,4403
2426,2.329467,2488,4102975,-41,38,4371
2427,2.330467,2489,4103975,-55,30,4352
2428,2.331467,2490,4104975,-40,45,4393
2429,2.332467,2491,4105975,-37,51,4415
2430,2.333467,2492,4106975,-49,25,4405
2431,2.334467,2493,4107975,-59,18,4399
2432,2.335467,2494,4108975,-54,24,4407
2433,2.336467,2495,4109975,-40,34,4404
2434,2.337467,2496,4110975,-43,42,4374
2435,2.338467,2497,4111975,-43,41,4380
2436,2.339466,2498,4112974,-25,53,4410
2437,2.340467,2499,4113975,-23,52,4412
2438,2.341467,2500,4114975,-27,31,4399
2439,2.342467,2501,4115975,-28,28,4377
2440,2.343467,2502,4116975,-44,47,4356
2441,2.344467,2503,4117975,-58,36,4354
2442,2.345467,2504,4118975,-45,24,4354
2443,2.346467,2505,4119975,-24,41,4366
2444,2.347466,2506,4120974,-32,45,4381
2445,2.348467,2507,4121975,-38,44,4395
2446,2.349466,2508,4122974,-38,41,4408
2447,2.350467,2509,4123975,-44,30,4382
2448,2.351467,2510,4124975,-32,31,4368
2449,2.352466,2511,4125974,-36,32,4383
2450,2.353467,2512,4126975,-52,34,4391
2451,2.354467,2513,4127975,-66,21,4370
2452,2.355467,2514,4128975,-61,21,4366
2453,2.356467,2515,4129975,-48,28,4379
2454,2.357467,2516,4130975,-64,51,4389
2455,2.358467,2517,4131975,-59,71,4394
2456,2.359467,2518,4132975,-50,61,4388
2457,2.360467,2519,4133975,-66,53,4357
2458,2.361467,2520,4134975,-61,53,4343
2459,2.362467,2521,4135975,-70,73,4376
2460,2.363467,2522,4136975,-81,47,4390
2461,2.364467,2523,4137975,-84,30,4425
2462,2.365467,2524,4138975,-70,52,4425
2463,2.366467,2525,4139975,-56,37,4381
2464,2.367467,2526,4140975,-58,42,4392
2465,2.368467,2527,4141975,-49,65,4381
2466,2.369467,2528,4142975,-63,49,4359
2467,2.370467,2529,4143975,-64,44,4364
2468,2.371467,2530,4144975,-57,52,4377
2469,2.372467,2531,4145975,-56,54,4415
2470,2.373467,2532,4146975,-50,54,4397
2471,2.374467,2533,4147975,-47,44,4390
2472,2.375467,2534,4148975,-52,50,4388
2473,2.376467,2535,4149975,-39,31,4393
2474,2.377467,2536,4150975,-24,23,4411
2475,2.378467,2537,4151975,-33,46,4375
2476,2.379467,2538,4152975,-36,49,4362
2477,2.380467,2539,4153975,-40,53,4380
2478,2.381467,2540,4154975,-41,51,4376
2479,2.382467,2541,4155975,-34,42,4383
2480,2.383466,2542,4156974,-39,43,4394
2481,2.384467,2543,4157975,-43,37,4391
2482,2.385467,2544,4158975,-37,36,4378
2483,2.386467,2545,4159975,-45,48,4369
2484,2.387466,2546,4160974,-66,54,4383
2485,2.388467,2547,4161975,-61,46,4375
2486,2.389467,2548,4162975,-26,38,4380
2487,2.390467,2549,4163975,-28,54,4385
2488,2.391467,2550,4164975,-50,42,4393
2489,2.392467,2551,4165975,-49,12,4392
2490,2.393466,2552,4166974,-39,44,4387
2491,2.394466,2553,4167974,-45,63,4391
2492,2.395467,2554,4168975,-51,34,4376
2493,2.396467,2555,4169975,-45,36,4359
2494,2.397467,2556,4170975,-44,40,4362
2495,2.398467,2557,4171975,-61,33,4362
2496,2.399467,2558,4172975,-49,30,4367
2497,2.400466,2559,4173974,-34,47,4371
2498,2.401466,2560,4174974,-42,43,4351
2499,2.402467,2561,4175975,-42,34,4352
2500,2.403467,2562,4176975,-55,37,4345
2501,2.404467,2563,4177975,-56,24,4361
2502,2.405467,2564,4178975,-54,22,4393
2503,2.406467,2565,4179975,-67,28,4382
2504,2.407467,2566,4180975,-76,41,4387
2505,2.408467,2567,4181975,-80,49,4388
2506,2.409467,2568,4182975,-76,37,4387
2507,2.410467,2569,4183975,-53,42,4412
2508,2.411467,2570,4184975,-49,54,4405
2509,2.412467,2571,4185975,-50,56,4393
2510,2.413467,2572,4186975,-45,67,4387
2511,2.414467,2573,4187975,-56,68,4364
2512,2.415467,2574,4188975,-62,61,4344
2513,2.416467,2575,4189975,-70,43,4364
2514,2.417467,2576,4190975,-75,48,4381
2515,2.418467,2577,4191975,-51,63,4385
2516,2.419467,2578,4192975,-44,60,4391
2517,2.420467,2579,4193975,-53,43,4388
2518,2.421467,2580,4194975,-55,32,4360
2519,2.422467,2581,4195975,-72,35,4340
2520,2.423467,2582,4196975,-68,21,4370
2521,2.424467,2583,4197975,-45,18,4396
2522,2.425467,2584,4198975,-28,45,4411
2523,2.426466,2585,4199974,-39,57,4392
2524,2.427467,2586,4200975,-46,49,4353
2525,2.428467,2587,4201975,-47,43,4372
2526,2.429467,2588,4202975,-44,33,4393
2527,2.430467,2589,4203975,-28,38,4378
2528,2.431467,2590,4204975,-44,38,4391
2529,2.432466,2591,4205974,-48,32,4408
2530,2.433467,2592,4206975,-36,44,4412
2531,2.434467,2593,4207975,-53,33,4412
2532,2.435467,2594,4208975,-52,30,4386
2533,2.436467,2595,4209975,-28,38,4384
2534,2.437467,2596,4210975,-17,39,4406
2535,2.438467,2597,4211975,-45,36,4386
2536,2.439467,2598,4212975,-65,30,4362
2537,2.440467,2599,4213975,-43,41,4366
2538,2.441467,2600,4214975,-30,36,4372
2539,2.442467,2601,4215975,-40,14,4370
2540,2.443467,2602,4216975,-50,25,4360
2541,2.444467,2603,4217975,-44,43,4370
2542,2.445467,2604,4218975,-42,41,4386
2543,2.446467,2605,4219975,-56,23,4360
2544,2.447467,2606,4220975,-71,16,4342
2545,2.448467,2607,4221975,-68,32,4360
2546,2.449467,2608,4222975,-66,48,4373
2547,2.450467,2609,4223975,-58,45,4379
2548,2.451467,2610,4224975,-59,39,4375
2549,2.452467,2611,4225975,-62,46,4392
2550,2.453467,2612,4226975,-64,49,4399
2551,2.454467,2613,4227975,-73,55,4360
2552,2.455467,2614,4228975,-73,49,4357
2553,2.456467,2615,4229975,-62,41,4371
2554,2.457467,2616,4230975,-62,39,4355
2555,2.458467,2617,4231975,-69,37,4352
2556,2.459467,2618,4232975,-60,40,4375
2557,2.460466,2619,4233974,-51,42,4376
2558,2.461467,2620,4234975,-53,40,4377
2559,2.462467,2621,4235975,-58,32,4377
2560,2.463467,2622,4236975,-43,19,4375
2561,2.464467,2623,4237975,-36,22,4384
2562,2.465467,2624,4238975,-33,40,4404
2563,2.466467,2625,4239975,-54,48,4396
2564,2.467467,2626,4240975,-68,54,4393
2565,2.468467,2627,4241975,-57,51,4399
2566,2.469466,2628,4242974,-58,36,4392
2567,2.470467,2629,4243975,-57,36,4394
2568,2.471467,2630,4244975,-43,50,4384
2569,2.472467,2631,4245975,-37,53,4398
2570,2.473467,2632,4246975,-56,41,4377
2571,2.474467,2633,4247975,-72,46,4352
2572,2.475467,2634,4248975,-66,39,4375
2573,2.476467,2635,4249975,-51,17,4352
2574,2.477467,2636,4250975,-53,28,4357
2575,2.478467,2637,4251975,-67,50,4396
2576,2.479467,2638,4252975,-51,43,4392
2577,2.480467,2639,4253975,-44,29,4389
2578,2.481467,2640,4254975,-54,41,4379
2579,2.482467,2641,4255975,-62,51,4377
2580,2.483467,2642,4256975,-72,38,4395
2581,2.484467,2643,4257975,-79,29,4389
2582,2.485466,2644,4258974,-71,19,4384
2583,2.486467,2645,4259975,-36,33,4385
2584,2.487467,2646,4260975,-34,52,4405
2585,2.488467,2647,4261975,-55,36,4424
2586,2.489467,2648,4262975,-70,28,4407
2587,2.490467,2649,4263975,-46,30,4379
2588,2.491467,2650,4264975,-45,29,4370
2589,2.492467,2651,4265975,-76,17,4355
2590,2.493467,2652,4266975,-69,22,4356
2591,2.494467,2653,4267975,-51,39,4382
2592,2.495467,2654,4268975,-28,28,4388
2593,2.496467,2655,4269975,-30,34,4378
2594,2.497467,2656,4270975,-60,58,4372
2595,2.498466,2657,4271974,-66,68,4393
2596,2.499466,2658,4272974,-62,70,4390
2597,2.500467,2659,4273975,-54,67,4370
2598,2.501467,2660,4274975,-43,68,4382
2599,2.502467,2661,4275975,-58,71,4390
2600,2.503467,2662,4276975,-79,61,4391
2601,2.504467,2663,4277975,-69,46,4383
2602,2.505467,2664,4278975,-67,43,4391
2603,2.506467,2665,4279975,-59,35,4401
2604,2.507467,2666,4280975,-44,41,4376
2605,2.508467,2667,4281975,-52,50,4371
2606,2.509467,2668,4282975,-59,47,4371
2607,2.510466,2669,4283974,-64,35,4375
2608,2.511467,2670,4284975,-75,32,4391
2609,2.512467,2671,4285975,-75,42,4386
2610,2.513467,2672,4286975,-57,32,4383
2611,2.514466,2673,4287974,-36,18,4397
2612,2.515467,2674,4288975,-33,35,4393
2613,2.516467,2675,4289975,-50,45,4374
2614,2.517467,2676,4290975,-51,33,4358
2615,2.518467,2677,4291975,-54,33,4366
2616,2.519467,2678,4292975,-65,34,4392
2617,2.520467,2679,4293975,-41,30,4407
2618,2.521467,2680,4294975,-46,30,4400
2619,2.522467,2681,4295975,-70,43,4401
2620,2.523467,2682,4296975,-63,52,4385
2621,2.524467,2683,4297975,-60,59,4387
2622,2.525467,2684,4298975,-61,53,4399
2623,2.526467,2685,4299975,-43,32,4394
2624,2.527467,2686,4300975,-39,30,4382
2625,2.528467,2687,4301975,-54,37,4380
2626,2.529467,2688,4302975,-35,30,4382
2627,2.530467,2689,4303975,-32,32,4375
2628,2.531467,2690,4304975,-45,44,4353
2629,2.532467,2691,4305975,-48,36,4372
2630,2.533467,2692,4306975,-62,38,4405
2631,2.534467,2693,4307975,-62,47,4388
2632,2.535467,2694,4308975,-71,32,4390
2633,2.536467,2695,4309975,-66,30,4394
2634,2.537466,2696,4310974,-47,50,4399
2635,2.538467,2697,4311975,-63,48,4406
2636,2.539467,2698,4312975,-67,33,4399
2637,2.540467,2699,4313975,-50,33,4398
2638,2.541467,2700,4314975,-31,29,4392
2639,2.542467,2701,4315975,-45,27,4369
2640,2.543466,2702,4316974,-59,39,4388
2641,2.544467,2703,4317975,-43,47,4382
2642,2.545467,2704,4318975,-59,56,4369
2643,2.546467,2705,4319975,-74,49,4386
2644,2.547467,2706,4320975,-54,51,4393
2645,2.548467,2707,4321975,-58,43,4410
2646,2.549467,2708,4322975,-53,30,4398
2647,2.550467,2709,4323975,-34,45,4385
2648,2.551467,2710,4324975,-44,39,4401
2649,2.552467,2711,4325975,-69,28,4411
2650,2.553467,2712,4326975,-73,30,4395
2651,2.554467,2713,4327975,-65,32,4387
2652,2.555467,2714,4328975,-70,27,4378
2653,2.556467,2715,4329975,-78,46,4387
2654,2.557467,2716,4330975,-78,52,4389
2655,2.558467,2717,4331975,-64,29,4369
2656,2.559467,2718,4332975,-54,37,4375
2657,2.560467,2719,4333975,-61,47,4396
2658,2.561467,2720,4334975,-64,45,4417
2659,2.562467,2721,4335975,-53,49,4407
2660,2.563467,2722,4336975,-47,59,4397
2661,2.564467,2723,4337975,-38,53,4435
2662,2.565467,2724,4338975,-48,39,4429
2663,2.566467,2725,4339975,-76,35,4390
2664,2.567467,2726,4340975,-73,48,4387
2665,2.568467,2727,4341975,-40,44,4379
2666,2.569466,2728,4342974,-24,35,4343
2667,2.570467,2729,4343975,-45,45,4345
2668,2.571466,2730,4344974,-63,44,4374
2669,2.572467,2731,4345975,-63,37,4369
2670,2.573467,2732,4346975,-51,24,4364
2671,2.574467,2733,4347975,-50,23,4354
2672,2.575467,2734,4348975,-58,46,4354
2673,2.576467,2735,4349975,-62,64,4357
2674,2.577467,2736,4350975,-71,52,4352
2675,2.578467,2737,4351975,-76,41,4368
2676,2.579467,2738,4352975,-61,35,4377
2677,2.580467,2739,4353975,-50,28,4380
2678,2.581467,2740,4354975,-71,51,4374
2679,2.582467,2741,4355975,-69,62,4381
2680,2.583467,2742,4356975,-58,40,4400
2681,2.584467,2743,4357975,-77,33,4400
2682,2.585467,2744,4358975,-81,23,4383
2683,2.586467,2745,4359975,-72,32,4357
2684,2.587467,2746,4360975,-48,37,4361
2685,2.588467,2747,4361975,-54,30,4378
2686,2.589467,2748,4362975,-78,39,4372
2687,2.590467,2749,4363975,-61,45,4355
2688,2.591467,2750,4364975,-53,39,4371
2689,2.592467,2751,4365975,-70,46,4407
2690,2.593467,2752,4366975,-72,52,4401
2691,2.594467,2753,4367975,-61,43,4387
2692,2.595467,2754,4368975,-52,46,4385
2693,2.596466,2755,4369974,-71,61,4385
2694,2.597467,2756,4370975,-62,63,4372
2695,2.598467,2757,4371975,-47,58,4356
2696,2.599467,2758,4372975,-66,50,4378
2697,2.600467,2759,4373975,-57,45,4382
2698,2.601467,2760,4374975,-45,45,4387
2699,2.602467,2761,4375975,-40,51,4404
2700,2.603467,2762,4376975,-63,34,4401
2701,2.604467,2763,4377975,-72,10,4390
2702,2.605467,2764,4378975,-59,26,4380
2703,2.606467,2765,4379975,-62,31,4380
2704,2.607467,2766,4380975,-67,35,4387
2705,2.608467,2767,4381975,-67,39,4409
2706,2.609467,2768,4382975,-78,54,4384
2707,2.610467,2769,4383975,-81,55,4366
2708,2.611467,2770,4384975,-69,43,4376
2709,2.612467,2771,4385975,-53,54,4388
2710,2.613466,2772,4386974,-43,58,4403
2711,2.614467,2773,4387975,-58,66,4389
2712,2.615467,2774,4388975,-50,68,4386
2713,2.616467,2775,4389975,-49,56,4392
2714,2.617467,2776,4390975,-64,49,4382
2715,2.618467,2777,4391975,-66,40,4354
2716,2.619467,2778,4392975,-66,40,4369
2717,2.620467,2779,4393975,-52,46,4366
2718,2.621467,2780,4394975,-52,45,4340
2719,2.622467,2781,4395975,-46,50,4355
2720,2.623466,2782,4396974,-40,60,4393
2721,2.624467,2783,4397975,-42,62,4402
2722,2.625467,2784,4398975,-43,48,4395
2723,2.626467,2785,4399975,-58,28,4411
2724,2.627467,2786,4400975,-58,34,4411
2725,2.628467,2787,4401975,-59,40,4399
2726,2.629467,2788,4402975,-64,41,4397
2727,2.630466,2789,4403974,-52,41,4426
2728,2.631467,2790,4404975,-35,32,4439
2729,2.632467,2791,4405975,-38,35,4410
2730,2.633467,2792,4406975,-55,40,4385
2731,2.634467,2793,4407975,-72,32,4358
2732,2.635467,2794,4408975,-70,21,4360
2733,2.636467,2795,4409975,-57,33,4384
2734,2.637467,2796,4410975,-68,45,4380
2735,2.638467,2797,4411975,-64,49,4377
2736,2.639467,2798,4412975,-57,43,4380
2737,2.640467,2799,4413975,-56,29,4371
2738,2.641467,2800,4414975,-46,31,4368
2739,2.642467,2801,4415975,-45,42,4380
2740,2.643467,2802,4416975,-52,37,4390
2741,2.644467,2803,4417975,-47,42,4366
2742,2.645467,2804,4418975,-37,47,4360
2743,2.646467,2805,4419975,-45,55,4362
2744,2.647467,2806,4420975,-61,61,4372
2745,2.648467,2807,4421975,-63,40,4400
2746,2.649467,2808,4422975,-61,49,4385
2747,2.650466,2809,4423974,-72,45,4372
2748,2.651467,2810,4424975,-72,39,4374
2749,2.652467,2811,4425975,-50,48,4372
2750,2.653467,2812,4426975,-40,30,4374
2751,2.654467,2813,4427975,-46,30,4397
2752,2.655467,2814,4428975,-27,44,4409
2753,2.656467,2815,4429975,-38,30,4383
2754,2.657467,2816,4430975,-58,40,4370
2755,2.658466,2817,4431974,-50,63,4396
2756,2.659467,2818,4432975,-44,52,4398
2757,2.660467,2819,4433975,-39,46,4369
2758,2.661466,2820,4434974,-40,48,4365
2759,2.662467,2821,4435975,-47,36,4389
2760,2.663466,2822,4436974,-54,39,4415
2761,2.664467,2823,4437975,-59,38,4410
2762,2.665467,2824,4438975,-59,38,4405
2763,2.666467,2825,4439975,-65,51,4397
2764,2.667467,2826,4440975,-72,47,4359
2765,2.668467,2827,4441975,-54,35,4366
2766,2.669467,2828,4442975,-53,25,4381
2767,2.670467,2829,4443975,-52,33,4362
2768,2.671467,2830,4444975,-50,45,4375
2769,2.672467,2831,4445975,-70,45,4413
2770,2.673467,2832,4446975,-87,41,4397
2771,2.674467,2833,4447975,-81,54,4342
2772,2.675467,2834,4448975,-78,52,4335
2773,2.676466,2835,4449974,-72,36,4339
2774,2.677467,2836,4450975,-64,30,4361
2775,2.678467,2837,4451975,-49,41,4358
2776,2.679467,2838,4452975,-14,36,4342
2777,2.680467,2839,4453975,4,40,4375
2778,2.681466,2840,4454974,-31,48,4399
2779,2.682467,2841,4455975,-51,33,4392
2780,2.683467,2842,4456975,-41,40,4383
2781,2.684467,2843,4457975,-44,57,4411
2782,2.685467,2844,4458975,-76,59,4462
2783,2.686466,2845,4459974,-115,49,4436
2784,2.687467,2846,4460975,-100,51,4383
2785,2.688467,2847,4461975,-88,49,4392
2786,2.689466,2848,4462974,-76,55,4374
2787,2.690467,2849,4463975,-54,54,4346
2788,2.691467,2850,4464975,-57,25,4343
2789,2.692467,2851,4465975,-72,13,4340
2790,2.693467,2852,4466975,-61,33,4342
2791,2.694467,2853,4467975,-41,41,4342
2792,2.695467,2854,4468975,-46,34,4345
2793,2.696467,2855,4469975,-56,28,4354
2794,2.697466,2856,4470974,-75,26,4347
2795,2.698467,2857,4471975,-68,30,4341
2796,2.699467,2858,4472975,-30,44,4345
2797,2.700467,2859,4473975,-20,55,4366
2798,2.701467,2860,4474975,-39,33,4392
2799,2.702467,2861,4475975,-48,31,4409
2800,2.703466,2862,4476974,-36,43,4431
2801,2.704467,2863,4477975,-19,48,4428
2802,2.705467,2864,4478975,-32,37,4420
2803,2.706467,2865,4479975,-49,23,4427
2804,2.707466,2866,4480974,-57,43,4434
2805,2.708467,2867,4481975,-55,58,4444
2806,2.709467,2868,4482975,-60,52,4408
2807,2.710467,2869,4483975,-86,29,4376
2808,2.711466,2870,4484974,-103,42,4342
2809,2.712467,2871,4485975,-104,66,4319
2810,2.713467,2872,4486975,-79,55,4329
2811,2.714467,2873,4487975,-73,39,4339
2812,2.715467,2874,4488975,-63,29,4352
2813,2.716467,2875,4489975,-53,25,4323
2814,2.717467,2876,4490975,-66,20,4343
2815,2.718467,2877,4491975,-66,15,4378
2816,2.719467,2878,4492975,-48,24,4363
2817,2.720467,2879,4493975,-53,36,4401
2818,2.721467,2880,4494975,-57,16,4435
2819,2.722467,2881,4495975,-65,25,4395
2820,2.723467,2882,4496975,-72,56,4355
2821,2.724467,2883,4497975,-37,51,4370
2822,2.725466,2884,4498974,-19,41,4404
2823,2.726467,2885,4499975,-29,33,4414
2824,2.727467,2886,4500975,-38,37,4415
2825,2.728467,2887,4501975,-38,44,4425
2826,2.729467,2888,4502975,-32,49,4418
2827,2.730467,2889,4503975,-36,42,4432
2828,2.731467,2890,4504975,-32,37,4424
2829,2.732467,2891,4505975,-56,58,4411
2830,2.733467,2892,4506975,-76,53,4429
2831,2.734467,2893,4507975,-66,36,4394
2832,2.735467,2894,4508975,-63,26,4370
2833,2.736467,2895,4509975,-42,23,4370
2834,2.737466,2896,4510974,-45,29,4371
2835,2.738466,2897,4511974,-64,24,4355
2836,2.739467,2898,4512975,-69,21,4344
2837,2.740466,2899,4513974,-62,9,4335
2838,2.741467,2900,4514975,-55,18,4331
2839,2.742467,2901,4515975,-72,40,4366
2840,2.743467,2902,4516975,-77,36,4375
2841,2.744467,2903,4517975,-58,30,4362
2842,2.745467,2904,4518975,-59,45,4362
2843,2.746467,2905,4519975,-62,63,4388
2844,2.747467,2906,4520975,-61,63,4429
2845,2.748467,2907,4521975,-75,56,4405
2846,2.749467,2908,4522975,-68,46,4375
2847,2.750467,2909,4523975,-60,35,4387
2848,2.751467,2910,4524975,-74,39,4397
2849,2.752466,2911,4525974,-79,24,4394
2850,2.753467,2912,4526975,-65,12,4387
2851,2.754467,2913,4527975,-52,22,4379
2852,2.755467,2914,4528975,-42,25,4387
2853,2.756467,2915,4529975,-26,47,4402
2854,2.757466,2916,4530974,-9,45,4370
2855,2.758466,2917,4531974,-11,26,4347
2856,2.759467,2918,4532975,-14,34,4353
2857,2.760467,2919,4533975,-32,25,4353
2858,2.761467,2920,4534975,-45,31,4345
2859,2.762466,2921,4535974,-34,52,4352
2860,2.763467,2922,4536975,-52,37,4357
2861,2.764467,2923,4537975,-70,38,4368
2862,2.765467,2924,4538975,-72,46,4404
2863,2.766466,2925,4539974,-68,36,4430
2864,2.767467,2926,4540975,-66,37,4445
2865,2.768467,2927,4541975,-73,45,4428
2866,2.769467,2928,4542975,-74,48,4402
2867,2.770467,2929,4543975,-66,54,4408
2868,2.771467,2930,4544975,-60,42,4397
2869,2.772467,2931,4545975,-66,29,4384
2870,2.773467,2932,4546975,-75,33,4361
2871,2.774467,2933,4547975,-63,35,4339
2872,2.775467,2934,4548975,-37,33,4346
2873,2.776467,2935,4549975,-27,28,4348
2874,2.777466,2936,4550974,-51,29,4373
2875,2.778467,2937,4551975,-63,40,4380
2876,2.779467,2938,4552975,-62,24,4387
2877,2.780467,2939,4553975,-65,26,4379
2878,2.781467,2940,4554975,-62,53,4370
2879,2.782467,2941,4555975,-66,50,4402
2880,2.783467,2942,4556975,-67,57,4395
2881,2.784466,2943,4557974,-75,58,4372
2882,2.785467,2944,4558975,-71,52,4382
2883,2.786467,2945,4559975,-59,51,4398
2884,2.787467,2946,4560975,-76,54,4399
2885,2.788466,2947,4561974,-77,57,4379
2886,2.789467,2948,4562975,-47,46,4397
2887,2.790467,2949,4563975,-52,45,4419
2888,2.791467,2950,4564975,-66,45,4393
2889,2.792466,2951,4565974,-54,43,4394
2890,2.793466,2952,4566974,-31,35,4380
2891,2.794467,2953,4567975,-30,22,4343
2892,2.795467,2954,4568975,-63,34,4355
2893,2.796467,2955,4569975,-93,35,4368
2894,2.797467,2956,4570975,-73,23,4372
2895,2.798467,2957,4571975,-56,20,4371
2896,2.799467,2958,4572975,-77,15,4363
2897,2.800467,2959,4573975,-83,24,4384
2898,2.801467,2960,4574975,-82,45,4376
2899,2.802467,2961,4575975,-81,60,4394
2900,2.803467,2962,4576975,-65,55,4410
2901,2.804467,2963,4577975,-46,39,4399
2902,2.805467,2964,4578975,-54,57,4409
2903,2.806467,2965,4579975,-62,55,4401
2904,2.807467,2966,4580975,-66,32,4375
2905,2.808467,2967,4581975,-62,48,4350
2906,2.809467,2968,4582975,-39,54,4363
2907,2.810467,2969,4583975,-43,47,4375
2908,2.811467,2970,4584975,-60,35,4373
2909,2.812467,2971,4585975,-46,9,4379
2910,2.813467,2972,4586975,-29,-2,4385
2911,2.814467,2973,4587975,-25,19,4379
2912,2.815467,2974,4588975,-41,37,4373
2913,2.816467,2975,4589975,-63,27,4380
2914,2.817467,2976,4590975,-53,18,4372
2915,2.818467,2977,4591975,-34,30,4368
2916,2.819467,2978,4592975,-26,41,4382
2917,2.820467,2979,4593975,-36,51,4398
2918,2.821467,2980,4594975,-45,59,4385
2919,2.822467,2981,4595975,-34,61,4367
2920,2.823467,2982,4596975,-34,54,4380
2921,2.824467,2983,4597975,-45,54,4355
2922,2.825467,2984,4598975,-50,66,4319
2923,2.826467,2985,4599975,-45,53,4354
2924,2.827467,2986,4600975,-51,53,4400
2925,2.828467,2987,4601975,-75,45,4381
2926,2.829467,2988,4602975,-76,26,4362
2927,2.830466,2989,4603974,-67,28,4372
2928,2.831467,2990,4604975,-62,33,4372
2929,2.832467,2991,4605975,-58,35,4394
2930,2.833467,2992,4606975,-52,30,4395
2931,2.834467,2993,4607975,-49,29,4379
2932,2.835466,2994,4608974,-55,32,4399
2933,2.836467,2995,4609975,-48,37,4398
2934,2.837467,2996,4610975,-30,27,4398
2935,2.838466,2997,4611974,-31,17,4408
2936,2.839467,2998,4612975,-50,30,4406
2937,2.840467,2999,4613975,-60,38,4397
2938,2.841467,3000,4614975,-60,45,4387
2939,2.842467,3001,4615975,-62,59,4394
2940,2.843466,3002,4616974,-59,45,4406
2941,2.844467,3003,4617975,-52,20,4423
2942,2.845467,3004,4618975,-28,20,4404
2943,2.846467,3005,4619975,-24,32,4354
2944,2.847467,3006,4620975,-75,28,4354
2945,2.848467,3007,4621975,-91,32,4360
2946,2.849466,3008,4622974,-76,36,4362
2947,2.850467,3009,4623975,-68,40,4377
2948,2.851467,3010,4624975,-53,43,4393
2949,2.852467,3011,4625975,-50,32,4378
2950,2.853467,3012,4626975,-52,34,4331
2951,2.854466,3013,4627974,-51,36,4352
2952,2.855467,3014,4628975,-54,34,4377
2953,2.856467,3015,4629975,-62,41,4382
2954,2.857467,3016,4630975,-60,51,4374
2955,2.858467,3017,4631975,-58,57,4376
2956,2.859466,3018,4632974,-72,53,4399
2957,2.860467,3019,4633975,-60,34,4401
2958,2.861467,3020,4634975,-33,20,4427
2959,2.862467,3021,4635975,-41,25,4413
2960,2.863467,3022,4636975,-66,23,4386
2961,2.864467,3023,4637975,-52,28,4381
2962,2.865466,3024,4638974,-8,42,4364
2963,2.866466,3025,4639974,-19,42,4367
2964,2.867467,3026,4640975,-42,29,4400
2965,2.868467,3027,4641975,-40,32,4425
2966,2.869467,3028,4642975,-42,46,4429
2967,2.870467,3029,4643975,-34,52,4418
2968,2.871467,3030,4644975,-45,60,4397
2969,2.872467,3031,4645975,-62,39,4404
2970,2.873466,3032,4646974,-51,43,4414
2971,2.874467,3033,4647975,-61,49,4395
2972,2.875467,3034,4648975,-68,37,4366
2973,2.876467,3035,4649975,-66,48,4341
2974,2.877467,3036,4650975,-71,51,4338
2975,2.878467,3037,4651975,-69,37,4348
2976,2.879467,3038,4652975,-76,32,4345
2977,2.880467,3039,4653975,-74,23,4344
2978,2.881467,3040,4654975,-68,19,4345
2979,2.882467,3041,4655975,-58,33,4347
2980,2.883466,3042,4656974,-18,43,4340
2981,2.884467,3043,4657975,1,48,4334
2982,2.885467,3044,4658975,-39,39,4356
2983,2.886467,3045,4659975,-67,27,4371
2984,2.887467,3046,4660975,-46,26,4363
2985,2.888467,3047,4661975,-19,36,4375
2986,2.889467,3048,4662975,-27,39,4387
2987,2.890467,3049,4663975,-22,42,4375
2988,2.891466,3050,4664974,-14,46,4378
2989,2.892467,3051,4665975,-6,48,4396
2990,2.893467,3052,4666975,1,34,4405
2991,2.894467,3053,4667975,-53,26,4391
2992,2.895467,3054,4668975,-101,50,4359
2993,2.896467,3055,4669975,-79,45,4357
2994,2.897467,3056,4670975,-66,37,4382
2995,2.898466,3057,4671974,-68,42,4390
2996,2.899467,3058,4672975,-61,37,4394
2997,2.900467,3059,4673975,-66,46,4393
2998,2.901467,3060,4674975,-66,48,4379
2999,2.902467,3061,4675975,-64,45,4413
3000,2.903466,3062,4676974,-68,50,4439
3001,2.904467,3063,4677975,-62,69,4405
3002,2.905467,3064,4678975,-66,66,4408
3003,2.906467,3065,4679975,-58,61,4424
3004,2.907467,3066,4680975,-65,77,4443
3005,2.908467,3067,4681975,-95,81,4461
3006,2.909466,3068,4682974,-86,63,4419
3007,2.910466,3069,4683974,-60,51,4396
3008,2.911466,3070,4684974,-64,60,4395
3009,2.912467,3071,4685975,-77,68,4395
3010,2.913467,3072,4686975,-66,73,4399
3011,2.914466,3073,4687974,-71,67,4374
3012,2.915467,3074,4688975,-78,70,4358
3013,2.916467,3075,4689975,-81,56,4361
3014,2.917467,3076,4690975,-81,39,4351
3015,2.918467,3077,4691975,-65,35,4336
3016,2.919466,3078,4692974,-49,28,4349
3017,2.920467,3079,4693975,-18,21,4350
3018,2.921467,3080,4694975,1,10,4324
3019,2.922467,3081,4695975,-18,6,4299
3020,2.923467,3082,4696975,-20,-10,4325
3021,2.924467,3083,4697975,-20,-5,4360
3022,2.925467,3084,4698975,-22,23,4374
3023,2.926467,3085,4699975,-7,17,4365
3024,2.927467,3086,4700975,-2,5,4345
3025,2.928467,3087,4701975,-8,6,4354
3026,2.929467,3088,4702975,-35,25,4361
3027,2.930467,3089,4703975,-54,35,4376
3028,2.931467,3090,4704975,-65,48,4392
3029,2.932466,3091,4705974,-77,59,4422
3030,2.933467,3092,4706975,-68,58,4416
3031,2.934467,3093,4707975,-59,60,4405
3032,2.935467,3094,4708975,-80,44,4439
3033,2.936467,3095,4709975,-99,35,4433
3034,2.937467,3096,4710975,-97,39,4419
3035,2.938467,3097,4711975,-104,39,4396
3036,2.939467,3098,4712975,-98,35,4358
3037,2.940467,3099,4713975,-88,37,4362
3038,2.941467,3100,4714975,-96,56,4338
3039,2.942467,3101,4715975,-84,64,4337
3040,2.943466,3102,4716974,-70,55,4347
3041,2.944467,3103,4717975,-61,64,4323
3042,2.945467,3104,4718975,-37,60,4331
3043,2.946467,3105,4719975,-33,54,4352
3044,2.947467,3106,4720975,-32,54,4375
3045,2.948466,3107,4721974,-36,69,4370
3046,2.949467,3108,4722975,-35,82,4378
3047,2.950467,3109,4723975,-21,72,4416
3048,2.951467,3110,4724975,-21,76,4430
3049,2.952467,3111,4725975,-23,73,4427
3050,2.953467,3112,4726975,-27,66,4406
3051,2.954467,3113,4727975,-27,47,4374
3052,2.955467,3114,4728975,-16,43,4369
