row,seconds,esp32_index,micros,ax,ay,az
1,0.000000,66902,68516993,-133,38,4374
2,0.001000,66903,68517993,-112,41,4349
3,0.002000,66904,68518993,-114,38,4376
4,0.003000,66905,68519993,-120,31,4402
5,0.004000,66906,68520993,-112,39,4384
6,0.005000,66907,68521993,-114,36,4398
7,0.006000,66908,68522993,-98,50,4388
8,0.007000,66909,68523993,-95,57,4376
9,0.008000,66910,68524993,-114,46,4357
10,0.009000,66911,68525993,-125,37,4368
11,0.010000,66912,68526993,-126,36,4377
12,0.011000,66913,68527993,-132,44,4371
13,0.011999,66914,68528992,-123,51,4381
14,0.012999,66915,68529992,-111,49,4397
15,0.014000,66916,68530993,-107,44,4392
16,0.015000,66917,68531993,-100,53,4365
17,0.016000,66918,68532993,-109,34,4375
18,0.017000,66919,68533993,-122,24,4393
19,0.017999,66920,68534992,-121,21,4377
20,0.019000,66921,68535993,-122,23,4379
21,0.019999,66922,68536992,-122,26,4375
22,0.021000,66923,68537993,-106,30,4344
23,0.021999,66924,68538992,-98,35,4326
24,0.023000,66925,68539993,-93,55,4357
25,0.024000,66926,68540993,-91,69,4387
26,0.024999,66927,68541992,-104,38,4385
27,0.026000,66928,68542993,-98,34,4404
28,0.026999,66929,68543992,-105,41,4398
29,0.027999,66930,68544992,-117,52,4373
30,0.029000,66931,68545993,-96,53,4372
31,0.030000,66932,68546993,-100,52,4410
32,0.031000,66933,68547993,-127,76,4409
33,0.031999,66934,68548992,-136,76,4375
34,0.032999,66935,68549992,-137,42,4402
35,0.033999,66936,68550992,-160,25,4411
36,0.035000,66937,68551993,-143,27,4391
37,0.035999,66938,68552992,-116,41,4396
38,0.037000,66939,68553993,-127,60,4382
39,0.037999,66940,68554992,-117,51,4384
40,0.038999,66941,68555992,-114,50,4411
41,0.039999,66942,68556992,-130,51,4406
42,0.040999,66943,68557992,-151,44,4385
43,0.042000,66944,68558993,-138,62,4370
44,0.043000,66945,68559993,-97,59,4363
45,0.044000,66946,68560993,-105,37,4367
46,0.044999,66947,68561992,-135,34,4373
47,0.046000,66948,68562993,-104,35,4382
48,0.047000,66949,68563993,-79,34,4395
49,0.048000,66950,68564993,-110,49,4380
50,0.049000,66951,68565993,-123,56,4380
51,0.050000,66952,68566993,-93,45,4405
52,0.051000,66953,68567993,-107,52,4413
53,0.052000,66954,68568993,-135,54,4418
54,0.052999,66955,68569992,-100,43,4403
55,0.054000,66956,68570993,-98,38,4389
56,0.055000,66957,68571993,-133,66,4406
57,0.055999,66958,68572992,-145,74,4396
58,0.057000,66959,68573993,-131,52,4396
59,0.058000,66960,68574993,-131,52,4403
60,0.059000,66961,68575993,-134,49,4371
61,0.059999,66962,68576992,-113,51,4382
62,0.061000,66963,68577993,-133,48,4404
63,0.062000,66964,68578993,-174,39,4371
64,0.062999,66965,68579992,-132,39,4378
65,0.064000,66966,68580993,-88,29,4392
66,0.064999,66967,68581992,-106,23,4385
67,0.066000,66968,68582993,-115,35,4418
68,0.067000,66969,68583993,-132,43,4409
69,0.068000,66970,68584993,-173,45,4419
70,0.069000,66971,68585993,-175,50,4408
71,0.070000,66972,68586993,-111,53,4385
72,0.071000,66973,68587993,-92,52,4421
73,0.072000,66974,68588993,-124,56,4400
74,0.073000,66975,68589993,-134,43,4380
75,0.074000,66976,68590993,-117,24,4409
76,0.075000,66977,68591993,-133,40,4416
77,0.076000,66978,68592993,-143,44,4405
78,0.076999,66979,68593992,-98,30,4416
79,0.078000,66980,68594993,-110,39,4407
80,0.079000,66981,68595993,-146,41,4410
81,0.080000,66982,68596993,-138,45,4409
82,0.081000,66983,68597993,-133,58,4390
83,0.082000,66984,68598993,-124,50,4404
84,0.083000,66985,68599993,-117,46,4401
85,0.084000,66986,68600993,-146,65,4379
86,0.085000,66987,68601993,-131,72,4379
87,0.085999,66988,68602992,-132,66,4388
88,0.087000,66989,68603993,-134,64,4401
89,0.088000,66990,68604993,-112,45,4415
90,0.089000,66991,68605993,-137,38,4394
91,0.090000,66992,68606993,-144,50,4376
92,0.091000,66993,68607993,-127,59,4395
93,0.092000,66994,68608993,-119,55,4409
94,0.092999,66995,68609992,-132,52,4398
95,0.094000,66996,68610993,-132,53,4403
96,0.094999,66997,68611992,-128,21,4441
97,0.096000,66998,68612993,-129,23,4424
98,0.097000,66999,68613993,-122,45,4349
99,0.098000,67000,68614993,-104,28,4331
100,0.099000,67001,68615993,-104,33,4351
101,0.100000,67002,68616993,-123,49,4340
102,0.101000,67003,68617993,-113,37,4338
103,0.102000,67004,68618993,-112,31,4378
104,0.103000,67005,68619993,-117,53,4390
105,0.103999,67006,68620992,-101,49,4389
106,0.105000,67007,68621993,-92,29,4408
107,0.106000,67008,68622993,-110,41,4413
108,0.106999,67009,68623992,-125,35,4413
109,0.107999,67010,68624992,-110,31,4405
110,0.109000,67011,68625993,-118,42,4391
111,0.110000,67012,68626993,-129,49,4386
112,0.110999,67013,68627992,-112,54,4390
113,0.112000,67014,68628993,-113,50,4382
114,0.112999,67015,68629992,-115,54,4348
115,0.114000,67016,68630993,-96,52,4348
116,0.115000,67017,68631993,-96,53,4384
117,0.116000,67018,68632993,-111,70,4403
118,0.116999,67019,68633992,-87,54,4421
119,0.118000,67020,68634993,-101,41,4417
120,0.119000,67021,68635993,-127,47,4398
121,0.120000,67022,68636993,-104,37,4389
122,0.120999,67023,68637992,-123,27,4392
123,0.122000,67024,68638993,-148,31,4408
124,0.122999,67025,68639992,-110,34,4400
125,0.124000,67026,68640993,-90,36,4406
126,0.125000,67027,68641993,-140,46,4425
127,0.126000,67028,68642993,-156,38,4419
128,0.127000,67029,68643993,-119,39,4390
129,0.128000,67030,68644993,-120,46,4387
130,0.128999,67031,68645992,-136,34,4413
131,0.130000,67032,68646993,-118,41,4398
132,0.130999,67033,68647992,-122,64,4385
133,0.131999,67034,68648992,-136,59,4370
134,0.132999,67035,68649992,-114,34,4352
135,0.134000,67036,68650993,-126,26,4367
136,0.134999,67037,68651992,-147,35,4385
137,0.135999,67038,68652992,-113,42,4375
138,0.137000,67039,68653993,-97,53,4378
139,0.138000,67040,68654993,-108,40,4405
140,0.139000,67041,68655993,-95,34,4383
141,0.139999,67042,68656992,-89,47,4377
142,0.141000,67043,68657993,-134,46,4384
143,0.142000,67044,68658993,-141,55,4397
144,0.143000,67045,68659993,-104,57,4410
145,0.144000,67046,68660993,-115,47,4393
146,0.145000,67047,68661993,-128,54,4384
147,0.146000,67048,68662993,-108,55,4384
148,0.147000,67049,68663993,-105,49,4372
149,0.148000,67050,68664993,-108,62,4355
150,0.148999,67051,68665992,-110,68,4366
151,0.150000,67052,68666993,-110,31,4398
152,0.150999,67053,68667992,-109,21,4407
153,0.152000,67054,68668993,-104,40,4387
154,0.152999,67055,68669992,-75,31,4378
155,0.154000,67056,68670993,-99,35,4371
156,0.154999,67057,68671992,-130,42,4377
157,0.156000,67058,68672993,-120,46,4384
158,0.156999,67059,68673992,-118,26,4395
159,0.157999,67060,68674992,-128,20,4380
160,0.158999,67061,68675992,-142,34,4396
161,0.159999,67062,68676992,-152,32,4424
162,0.161000,67063,68677993,-131,45,4394
163,0.162000,67064,68678993,-121,49,4370
164,0.162999,67065,68679992,-127,47,4388
165,0.164000,67066,68680993,-122,49,4411
166,0.165000,67067,68681993,-121,66,4423
167,0.165999,67068,68682992,-118,77,4427
168,0.167000,67069,68683993,-111,61,4408
169,0.167999,67070,68684992,-107,58,4389
170,0.169000,67071,68685993,-106,61,4367
171,0.170000,67072,68686993,-99,70,4387
172,0.171000,67073,68687993,-94,52,4422
173,0.172000,67074,68688993,-103,40,4420
174,0.172999,67075,68689992,-112,53,4405
175,0.174000,67076,68690993,-100,38,4408
176,0.175000,67077,68691993,-113,30,4411
177,0.175999,67078,68692992,-126,39,4409
178,0.177000,67079,68693993,-118,45,4399
179,0.177999,67080,68694992,-94,39,4401
180,0.179000,67081,68695993,-75,32,4408
181,0.180000,67082,68696993,-88,38,4374
182,0.180999,67083,68697992,-105,56,4361
183,0.182000,67084,68698993,-136,42,4384
184,0.183000,67085,68699993,-137,35,4372
185,0.183999,67086,68700992,-120,40,4371
186,0.185000,67087,68701993,-116,45,4383
187,0.186000,67088,68702993,-119,53,4392
188,0.187000,67089,68703993,-139,59,4387
189,0.188000,67090,68704993,-140,66,4375
190,0.189000,67091,68705993,-127,59,4395
191,0.190000,67092,68706993,-122,57,4377
192,0.191000,67093,68707993,-120,53,4358
193,0.191999,67094,68708992,-139,39,4358
194,0.192999,67095,68709992,-139,35,4343
195,0.193999,67096,68710992,-131,48,4343
196,0.195000,67097,68711993,-133,45,4374
197,0.195999,67098,68712992,-129,16,4377
198,0.196999,67099,68713992,-128,7,4367
199,0.198000,67100,68714993,-108,32,4383
200,0.199000,67101,68715993,-108,49,4384
201,0.200000,67102,68716993,-121,36,4379
202,0.201000,67103,68717993,-111,16,4380
203,0.201999,67104,68718992,-97,23,4379
204,0.202999,67105,68719992,-106,22,4403
205,0.204000,67106,68720993,-130,27,4398
206,0.204999,67107,68721992,-122,60,4377
207,0.206000,67108,68722993,-124,64,4390
208,0.206999,67109,68723992,-133,44,4394
209,0.207999,67110,68724992,-106,44,4387
210,0.208999,67111,68725992,-106,50,4370
211,0.209999,67112,68726992,-130,52,4380
212,0.211000,67113,68727993,-127,51,4389
213,0.211999,67114,68728992,-102,49,4363
214,0.212999,67115,68729992,-77,45,4369
215,0.214000,67116,68730993,-91,44,4360
216,0.215000,67117,68731993,-117,45,4352
217,0.215999,67118,68732992,-128,49,4367
218,0.216999,67119,68733992,-134,50,4362
219,0.217999,67120,68734992,-136,29,4373
220,0.219000,67121,68735993,-147,20,4379
221,0.220000,67122,68736993,-127,31,4406
222,0.221000,67123,68737993,-90,50,4433
223,0.221999,67124,68738992,-91,55,4410
224,0.223000,67125,68739993,-117,43,4388
225,0.223999,67126,68740992,-120,44,4382
226,0.224999,67127,68741992,-114,43,4404
227,0.226000,67128,68742993,-119,46,4427
228,0.227000,67129,68743993,-124,43,4413
229,0.227999,67130,68744992,-130,43,4400
230,0.228999,67131,68745992,-139,34,4380
231,0.230000,67132,68746993,-146,34,4367
232,0.230999,67133,68747992,-140,52,4361
233,0.232000,67134,68748993,-141,57,4382
234,0.233000,67135,68749993,-137,53,4402
235,0.234000,67136,68750993,-115,49,4392
236,0.235000,67137,68751993,-113,55,4397
237,0.235999,67138,68752992,-119,49,4377
238,0.237000,67139,68753993,-118,43,4375
239,0.238000,67140,68754993,-109,35,4378
240,0.239000,67141,68755993,-95,35,4381
241,0.240000,67142,68756993,-92,43,4368
242,0.241000,67143,68757993,-122,50,4354
243,0.242000,67144,68758993,-131,40,4354
244,0.243000,67145,68759993,-113,49,4370
245,0.244000,67146,68760993,-106,48,4402
246,0.245000,67147,68761993,-97,21,4384
247,0.246000,67148,68762993,-106,45,4363
248,0.247000,67149,68763993,-119,50,4382
249,0.248000,67150,68764993,-118,35,4402
250,0.248999,67151,68765992,-115,52,4400
251,0.249999,67152,68766992,-120,50,4381
252,0.250999,67153,68767992,-126,26,4385
253,0.252000,67154,68768993,-136,43,4398
254,0.252999,67155,68769992,-116,61,4382
255,0.253999,67156,68770992,-87,51,4397
256,0.254999,67157,68771992,-87,53,4437
257,0.256000,67158,68772993,-108,51,4440
258,0.257000,67159,68773993,-128,38,4416
259,0.258000,67160,68774993,-116,37,4394
260,0.258999,67161,68775992,-111,50,4388
261,0.260000,67162,68776993,-109,43,4408
262,0.261000,67163,68777993,-120,40,4417
263,0.262000,67164,68778993,-124,56,4421
264,0.263000,67165,68779993,-108,41,4414
265,0.264000,67166,68780993,-109,26,4381
266,0.265000,67167,68781993,-109,42,4366
267,0.265999,67168,68782992,-101,46,4374
268,0.267000,67169,68783993,-97,52,4381
269,0.267999,67170,68784992,-98,40,4382
270,0.269000,67171,68785993,-108,50,4370
271,0.270000,67172,68786993,-121,57,4364
272,0.271000,67173,68787993,-103,34,4365
273,0.272000,67174,68788993,-94,44,4382
274,0.272999,67175,68789992,-117,41,4402
275,0.274000,67176,68790993,-141,40,4406
276,0.275000,67177,68791993,-135,58,4396
277,0.276000,67178,68792993,-115,74,4377
278,0.276999,67179,68793992,-128,52,4367
279,0.278000,67180,68794993,-123,25,4383
280,0.278999,67181,68795992,-109,29,4394
281,0.280000,67182,68796993,-106,31,4376
282,0.281000,67183,68797993,-88,24,4363
283,0.282000,67184,68798993,-89,19,4378
284,0.282999,67185,68799992,-105,33,4394
285,0.284000,67186,68800993,-129,59,4388
286,0.284999,67187,68801992,-128,60,4390
287,0.285999,67188,68802992,-104,47,4397
288,0.287000,67189,68803993,-106,37,4402
289,0.287999,67190,68804992,-110,41,4380
290,0.288999,67191,68805992,-125,48,4354
291,0.289999,67192,68806992,-128,27,4354
292,0.290999,67193,68807992,-104,10,4375
293,0.292000,67194,68808993,-107,19,4365
294,0.292999,67195,68809992,-131,36,4367
295,0.294000,67196,68810993,-122,40,4415
296,0.295000,67197,68811993,-102,40,4412
297,0.296000,67198,68812993,-124,42,4401
298,0.296999,67199,68813992,-151,53,4392
299,0.298000,67200,68814993,-133,68,4389
300,0.299000,67201,68815993,-130,67,4369
301,0.300000,67202,68816993,-153,62,4359
302,0.301000,67203,68817993,-141,43,4380
303,0.301999,67204,68818992,-112,20,4392
304,0.302999,67205,68819992,-97,20,4402
305,0.303999,67206,68820992,-116,42,4447
306,0.305000,67207,68821993,-128,59,4459
307,0.306000,67208,68822993,-111,48,4428
308,0.307000,67209,68823993,-113,37,4415
309,0.308000,67210,68824993,-114,43,4373
310,0.309000,67211,68825993,-111,39,4376
311,0.310000,67212,68826993,-106,39,4410
312,0.311000,67213,68827993,-100,50,4399
313,0.312000,67214,68828993,-87,40,4381
314,0.313000,67215,68829993,-97,24,4390
315,0.314000,67216,68830993,-121,22,4383
316,0.315000,67217,68831993,-109,43,4359
317,0.316000,67218,68832993,-120,42,4370
318,0.317000,67219,68833993,-120,29,4398
319,0.318000,67220,68834993,-107,32,4403
320,0.318999,67221,68835992,-106,48,4388
321,0.319999,67222,68836992,-105,37,4381
322,0.321000,67223,68837993,-119,17,4392
323,0.321999,67224,68838992,-125,41,4398
324,0.322999,67225,68839992,-114,63,4381
325,0.324000,67226,68840993,-128,56,4370
326,0.325000,67227,68841993,-138,33,4375
327,0.326000,67228,68842993,-141,37,4372
328,0.326999,67229,68843992,-123,49,4367
329,0.328000,67230,68844993,-108,72,4354
330,0.329000,67231,68845993,-132,86,4373
331,0.330000,67232,68846993,-120,62,4387
332,0.331000,67233,68847993,-110,43,4381
333,0.332000,67234,68848993,-115,41,4396
334,0.332999,67235,68849992,-105,45,4389
335,0.334000,67236,68850993,-106,53,4363
336,0.335000,67237,68851993,-104,64,4362
337,0.336000,67238,68852993,-97,67,4396
338,0.337000,67239,68853993,-107,38,4370
339,0.338000,67240,68854993,-122,21,4342
340,0.338999,67241,68855992,-118,49,4383
341,0.339999,67242,68856992,-98,57,4378
342,0.340999,67243,68857992,-104,49,4376
343,0.342000,67244,68858993,-121,48,4387
344,0.343000,67245,68859993,-110,53,4376
345,0.344000,67246,68860993,-95,45,4374
346,0.344999,67247,68861992,-111,46,4374
347,0.346000,67248,68862993,-127,53,4366
348,0.346999,67249,68863992,-113,30,4363
349,0.347999,67250,68864992,-93,41,4397
350,0.349000,67251,68865993,-97,61,4420
351,0.350000,67252,68866993,-115,55,4410
352,0.351000,67253,68867993,-126,49,4400
353,0.351999,67254,68868992,-122,36,4417
354,0.353000,67255,68869993,-111,26,4416
355,0.353999,67256,68870992,-114,51,4389
356,0.355000,67257,68871993,-106,75,4376
357,0.355999,67258,68872992,-105,65,4388
358,0.356999,67259,68873992,-106,61,4420
359,0.357999,67260,68874992,-97,53,4407
360,0.358999,67261,68875992,-117,39,4369
361,0.360000,67262,68876993,-126,34,4352
362,0.361000,67263,68877993,-121,39,4355
363,0.361999,67264,68878992,-112,50,4360
364,0.362999,67265,68879992,-100,50,4353
365,0.364000,67266,68880993,-105,45,4372
366,0.364999,67267,68881992,-112,56,4374
367,0.365999,67268,68882992,-114,53,4371
368,0.367000,67269,68883993,-106,45,4378
369,0.368000,67270,68884993,-108,40,4384
370,0.369000,67271,68885993,-127,34,4391
371,0.370000,67272,68886993,-121,42,4398
372,0.370999,67273,68887992,-115,39,4413
373,0.371999,67274,68888992,-123,37,4377
374,0.372999,67275,68889992,-128,36,4383
375,0.373999,67276,68890992,-136,37,4413
376,0.375000,67277,68891993,-111,41,4391
377,0.375999,67278,68892992,-110,38,4385
378,0.377000,67279,68893993,-117,43,4378
379,0.378000,67280,68894993,-98,36,4366
380,0.379000,67281,68895993,-98,39,4362
381,0.380000,67282,68896993,-107,55,4371
382,0.381000,67283,68897993,-112,47,4372
383,0.381999,67284,68898992,-94,37,4354
384,0.383000,67285,68899993,-102,35,4372
385,0.384000,67286,68900993,-130,37,4380
386,0.385000,67287,68901993,-130,44,4348
387,0.385999,67288,68902992,-118,61,4363
388,0.387000,67289,68903993,-114,54,4381
389,0.387999,67290,68904992,-117,43,4368
390,0.388999,67291,68905992,-120,49,4387
391,0.390000,67292,68906993,-128,55,4400
392,0.391000,67293,68907993,-105,42,4397
393,0.392000,67294,68908993,-97,36,4364
394,0.392999,67295,68909992,-112,58,4366
395,0.394000,67296,68910993,-119,51,4384
396,0.395000,67297,68911993,-135,35,4389
397,0.396000,67298,68912993,-128,39,4415
398,0.397000,67299,68913993,-123,56,4426
399,0.398000,67300,68914993,-112,49,4420
400,0.399000,67301,68915993,-121,33,4413
401,0.400000,67302,68916993,-129,44,4408
402,0.401000,67303,68917993,-118,52,4412
403,0.402000,67304,68918993,-115,57,4413
404,0.403000,67305,68919993,-112,53,4397
405,0.404000,67306,68920993,-100,45,4393
406,0.405000,67307,68921993,-104,44,4397
407,0.405999,67308,68922992,-104,41,4398
408,0.407000,67309,68923993,-81,40,4362
409,0.407999,67310,68924992,-91,51,4357
410,0.408999,67311,68925992,-94,64,4370
411,0.410000,67312,68926993,-97,50,4391
412,0.411000,67313,68927993,-107,45,4411
413,0.411999,67314,68928992,-116,49,4379
414,0.412999,67315,68929992,-107,45,4351
415,0.413999,67316,68930992,-98,27,4357
416,0.414999,67317,68931992,-115,24,4345
417,0.416000,67318,68932993,-117,43,4331
418,0.417000,67319,68933993,-111,44,4363
419,0.418000,67320,68934993,-110,49,4384
420,0.418999,67321,68935992,-95,33,4378
421,0.419999,67322,68936992,-97,20,4384
422,0.421000,67323,68937993,-93,43,4399
423,0.421999,67324,68938992,-99,46,4387
424,0.423000,67325,68939993,-111,41,4385
425,0.424000,67326,68940993,-104,55,4377
426,0.425000,67327,68941993,-101,42,4361
427,0.426000,67328,68942993,-116,42,4383
428,0.426999,67329,68943992,-136,49,4399
429,0.427999,67330,68944992,-139,31,4382
430,0.429000,67331,68945993,-126,28,4370
431,0.429999,67332,68946992,-118,19,4390
432,0.431000,67333,68947993,-118,15,4402
433,0.432000,67334,68948993,-124,7,4395
434,0.432999,67335,68949992,-131,8,4382
435,0.434000,67336,68950993,-115,29,4369
436,0.434999,67337,68951992,-109,34,4365
437,0.436000,67338,68952993,-103,32,4377
438,0.436999,67339,68953992,-113,44,4380
439,0.438000,67340,68954993,-133,70,4358
440,0.439000,67341,68955993,-132,64,4353
441,0.439999,67342,68956992,-119,40,4367
442,0.441000,67343,68957993,-126,36,4373
443,0.442000,67344,68958993,-134,42,4371
444,0.443000,67345,68959993,-144,55,4370
445,0.443999,67346,68960992,-149,66,4398
446,0.444999,67347,68961992,-111,51,4396
447,0.445999,67348,68962992,-109,38,4364
448,0.447000,67349,68963993,-124,41,4360
449,0.448000,67350,68964993,-105,41,4376
450,0.449000,67351,68965993,-99,35,4401
451,0.450000,67352,68966993,-112,36,4395
452,0.450999,67353,68967992,-118,40,4367
453,0.451999,67354,68968992,-115,54,4367
454,0.453000,67355,68969993,-113,69,4383
455,0.453999,67356,68970992,-104,44,4378
456,0.455000,67357,68971993,-106,32,4373
457,0.456000,67358,68972993,-108,41,4345
458,0.457000,67359,68973993,-101,23,4343
459,0.457999,67360,68974992,-106,31,4371
460,0.458999,67361,68975992,-116,49,4364
461,0.460000,67362,68976993,-118,48,4370
462,0.461000,67363,68977993,-105,58,4374
463,0.461999,67364,68978992,-106,47,4375
464,0.463000,67365,68979993,-127,46,4396
465,0.464000,67366,68980993,-127,61,4388
466,0.465000,67367,68981993,-109,50,4381
467,0.466000,67368,68982993,-98,56,4392
468,0.467000,67369,68983993,-91,46,4387
469,0.468000,67370,68984993,-100,40,4404
470,0.469000,67371,68985993,-125,62,4409
471,0.469999,67372,68986992,-126,50,4396
472,0.470999,67373,68987992,-125,41,4394
473,0.471999,67374,68988992,-129,39,4394
474,0.472999,67375,68989992,-113,45,4367
475,0.474000,67376,68990993,-98,37,4359
476,0.474999,67377,68991992,-110,27,4374
477,0.476000,67378,68992993,-115,31,4365
478,0.477000,67379,68993993,-103,43,4381
479,0.478000,67380,68994993,-102,58,4395
480,0.479000,67381,68995993,-114,47,4408
481,0.479999,67382,68996992,-125,32,4401
482,0.481000,67383,68997993,-117,35,4379
483,0.482000,67384,68998993,-113,36,4363
484,0.482999,67385,68999992,-128,37,4370
485,0.484000,67386,69000993,-148,58,4368
486,0.485000,67387,69001993,-146,56,4350
487,0.485999,67388,69002992,-125,47,4368
488,0.487000,67389,69003993,-129,50,4391
489,0.487999,67390,69004992,-142,44,4396
490,0.489000,67391,69005993,-129,38,4385
491,0.490000,67392,69006993,-126,36,4392
492,0.490999,67393,69007992,-124,46,4418
493,0.492000,67394,69008993,-106,45,4427
494,0.493000,67395,69009993,-112,42,4403
495,0.494000,67396,69010993,-118,48,4410
496,0.495000,67397,69011993,-116,55,4411
497,0.495999,67398,69012992,-129,41,4387
498,0.497000,67399,69013993,-121,28,4370
499,0.498000,67400,69014993,-114,36,4379
500,0.499000,67401,69015993,-126,41,4412
501,0.499999,67402,69016992,-126,39,4410
502,0.501000,67403,69017993,-123,34,4413
503,0.502000,67404,69018993,-127,51,4406
504,0.502999,67405,69019992,-130,46,4370
505,0.504000,67406,69020993,-120,37,4351
506,0.505000,67407,69021993,-92,50,4360
507,0.505999,67408,69022992,-92,45,4373
508,0.507000,67409,69023993,-130,40,4381
509,0.508000,67410,69024993,-137,48,4372
510,0.509000,67411,69025993,-120,49,4376
511,0.509999,67412,69026992,-104,58,4405
512,0.510999,67413,69027992,-113,59,4414
513,0.511999,67414,69028992,-127,42,4407
514,0.512999,67415,69029992,-117,39,4411
515,0.513999,67416,69030992,-118,38,4406
516,0.515000,67417,69031993,-111,29,4386
517,0.516000,67418,69032993,-89,35,4374
518,0.517000,67419,69033993,-100,48,4368
519,0.518000,67420,69034993,-121,53,4360
520,0.519000,67421,69035993,-115,46,4357
521,0.520000,67422,69036993,-112,46,4366
522,0.521000,67423,69037993,-112,52,4398
523,0.522000,67424,69038993,-117,43,4392
524,0.523000,67425,69039993,-124,36,4394
525,0.523999,67426,69040992,-123,33,4386
526,0.525000,67427,69041993,-121,43,4358
527,0.525999,67428,69042992,-118,55,4378
528,0.527000,67429,69043993,-120,53,4374
529,0.528000,67430,69044993,-119,59,4370
530,0.529000,67431,69045993,-118,49,4350
531,0.530000,67432,69046993,-123,42,4364
532,0.531000,67433,69047993,-121,57,4410
533,0.531999,67434,69048992,-118,51,4405
534,0.533000,67435,69049993,-108,48,4385
535,0.534000,67436,69050993,-103,58,4356
536,0.535000,67437,69051993,-108,44,4346
537,0.535999,67438,69052992,-115,30,4379
538,0.537000,67439,69053993,-122,21,4402
539,0.538000,67440,69054993,-117,21,4399
540,0.538999,67441,69055992,-121,32,4392
541,0.540000,67442,69056993,-123,30,4372
542,0.541000,67443,69057993,-109,40,4355
543,0.542000,67444,69058993,-102,45,4370
544,0.543000,67445,69059993,-106,37,4387
545,0.544000,67446,69060993,-117,34,4386
546,0.545000,67447,69061993,-128,43,4401
547,0.546000,67448,69062993,-138,44,4385
548,0.546999,67449,69063992,-129,59,4375
549,0.548000,67450,69064993,-113,56,4399
550,0.549000,67451,69065993,-112,42,4370
551,0.550000,67452,69066993,-102,51,4362
552,0.551000,67453,69067993,-111,46,4388
553,0.552000,67454,69068993,-122,47,4391
554,0.553000,67455,69069993,-116,54,4380
555,0.554000,67456,69070993,-122,43,4370
556,0.555000,67457,69071993,-120,26,4395
557,0.556000,67458,69072993,-127,36,4397
558,0.556999,67459,69073992,-126,52,4379
559,0.558000,67460,69074993,-115,58,4387
560,0.559000,67461,69075993,-123,63,4417
561,0.559999,67462,69076992,-135,55,4408
562,0.560999,67463,69077992,-140,41,4354
563,0.562000,67464,69078993,-140,30,4364
564,0.562999,67465,69079992,-130,42,4383
565,0.563999,67466,69080992,-110,52,4367
566,0.565000,67467,69081993,-116,29,4377
567,0.565999,67468,69082992,-116,27,4403
568,0.567000,67469,69083993,-96,23,4404
569,0.568000,67470,69084993,-140,3,4396
570,0.568999,67471,69085992,-198,24,4413
571,0.569999,67472,69086992,-171,56,4426
572,0.571000,67473,69087993,-122,57,4451
573,0.572000,67474,69088993,-101,49,4446
574,0.573000,67475,69089993,-141,55,4404
575,0.574000,67476,69090993,-166,65,4401
576,0.575000,67477,69091993,-135,51,4411
577,0.576000,67478,69092993,-138,44,4398
578,0.576999,67479,69093992,-146,38,4363
579,0.578000,67480,69094993,-127,43,4356
580,0.578999,67481,69095992,-111,52,4362
581,0.580000,67482,69096993,-133,37,4333
582,0.581000,67483,69097993,-142,30,4320
583,0.581999,67484,69098992,-108,36,4342
584,0.583000,67485,69099993,-90,54,4341
585,0.583999,67486,69100992,-73,48,4310
586,0.585000,67487,69101993,-74,49,4329
587,0.586000,67488,69102993,-78,70,4386
588,0.587000,67489,69103993,-68,81,4399
589,0.588000,67490,69104993,-86,68,4399
590,0.589000,67491,69105993,-116,43,4421
591,0.590000,67492,69106993,-118,51,4414
592,0.591000,67493,69107993,-92,50,4384
593,0.591999,67494,69108992,-90,33,4366
594,0.593000,67495,69109993,-122,26,4379
595,0.594000,67496,69110993,-143,27,4388
596,0.595000,67497,69111993,-140,29,4364
597,0.596000,67498,69112993,-142,34,4367
598,0.596999,67499,69113992,-168,49,4381
599,0.598000,67500,69114993,-169,29,4386
600,0.599000,67501,69115993,-138,9,4381
601,0.599999,67502,69116992,-130,35,4410
602,0.601000,67503,69117993,-143,42,4413
603,0.602000,67504,69118993,-164,35,4382
604,0.603000,67505,69119993,-174,48,4392
605,0.603999,67506,69120992,-173,60,4408
606,0.605000,67507,69121993,-175,56,4408
607,0.605999,67508,69122992,-176,45,4408
608,0.607000,67509,69123993,-160,36,4409
609,0.607999,67510,69124992,-130,44,4420
610,0.609000,67511,69125993,-122,51,4428
611,0.610000,67512,69126993,-116,42,4418
612,0.611000,67513,69127993,-112,36,4412
613,0.612000,67514,69128993,-91,45,4389
614,0.613000,67515,69129993,-61,39,4380
615,0.613999,67516,69130992,-81,22,4382
616,0.615000,67517,69131993,-90,34,4379
617,0.616000,67518,69132993,-101,53,4379
618,0.617000,67519,69133993,-110,40,4382
619,0.617999,67520,69134992,-110,38,4377
620,0.618999,67521,69135992,-122,71,4370
621,0.620000,67522,69136993,-123,73,4390
622,0.621000,67523,69137993,-117,51,4392
623,0.622000,67524,69138993,-105,31,4387
624,0.622999,67525,69139992,-97,38,4386
625,0.624000,67526,69140993,-96,40,4361
626,0.624999,67527,69141992,-103,36,4347
627,0.626000,67528,69142993,-105,39,4351
628,0.627000,67529,69143993,-101,41,4352
629,0.628000,67530,69144993,-111,45,4366
630,0.629000,67531,69145993,-111,45,4396
631,0.630000,67532,69146993,-120,41,4401
632,0.631000,67533,69147993,-140,39,4371
633,0.632000,67534,69148993,-138,37,4362
634,0.633000,67535,69149993,-135,30,4365
635,0.633999,67536,69150992,-145,35,4374
636,0.635000,67537,69151993,-141,34,4400
637,0.635999,67538,69152992,-139,42,4400
638,0.637000,67539,69153993,-147,50,4390
639,0.638000,67540,69154993,-142,45,4399
640,0.639000,67541,69155993,-143,33,4404
641,0.640000,67542,69156993,-144,39,4386
642,0.641000,67543,69157993,-130,47,4391
643,0.641999,67544,69158992,-143,43,4418
644,0.643000,67545,69159993,-162,43,4390
645,0.643999,67546,69160992,-127,47,4378
646,0.645000,67547,69161993,-126,67,4370
647,0.646000,67548,69162993,-138,64,4352
648,0.646999,67549,69163992,-118,42,4352
649,0.647999,67550,69164992,-102,34,4356
650,0.648999,67551,69165992,-101,32,4381
651,0.649999,67552,69166992,-97,42,4366
652,0.651000,67553,69167993,-92,60,4383
653,0.652000,67554,69168993,-102,59,4418
654,0.653000,67555,69169993,-92,51,4419
655,0.654000,67556,69170993,-91,49,4407
656,0.655000,67557,69171993,-104,61,4400
657,0.656000,67558,69172993,-109,65,4414
658,0.657000,67559,69173993,-101,58,4390
659,0.658000,67560,69174993,-92,47,4366
660,0.659000,67561,69175993,-99,44,4387
661,0.660000,67562,69176993,-111,35,4405
662,0.661000,67563,69177993,-113,29,4389
663,0.662000,67564,69178993,-102,46,4371
664,0.663000,67565,69179993,-103,56,4378
665,0.663999,67566,69180992,-109,62,4380
666,0.664999,67567,69181992,-114,51,4396
667,0.665999,67568,69182992,-120,56,4390
668,0.667000,67569,69183993,-122,59,4370
669,0.668000,67570,69184993,-135,44,4385
670,0.669000,67571,69185993,-131,50,4391
671,0.670000,67572,69186993,-117,68,4398
672,0.671000,67573,69187993,-107,58,4389
673,0.672000,67574,69188993,-99,26,4374
674,0.673000,67575,69189993,-103,23,4373
675,0.674000,67576,69190993,-102,33,4397
676,0.675000,67577,69191993,-119,40,4393
677,0.675999,67578,69192992,-128,44,4350
678,0.676999,67579,69193992,-105,47,4374
679,0.678000,67580,69194993,-111,55,4412
680,0.679000,67581,69195993,-126,58,4437
681,0.679999,67582,69196992,-123,53,4418
682,0.681000,67583,69197993,-115,50,4383
683,0.682000,67584,69198993,-104,53,4387
684,0.683000,67585,69199993,-117,32,4391
685,0.683999,67586,69200992,-133,29,4400
686,0.685000,67587,69201993,-142,44,4399
687,0.686000,67588,69202993,-128,38,4390
688,0.687000,67589,69203993,-118,52,4393
689,0.688000,67590,69204993,-144,63,4391
690,0.689000,67591,69205993,-140,49,4391
691,0.690000,67592,69206993,-120,51,4369
692,0.690999,67593,69207992,-116,41,4353
693,0.691999,67594,69208992,-118,34,4361
694,0.693000,67595,69209993,-125,36,4345
695,0.693999,67596,69210992,-123,18,4365
696,0.695000,67597,69211993,-108,11,4402
697,0.696000,67598,69212993,-112,17,4407
698,0.697000,67599,69213993,-121,41,4387
699,0.698000,67600,69214993,-117,61,4384
700,0.699000,67601,69215993,-131,70,4391
701,0.700000,67602,69216993,-127,64,4383
702,0.701000,67603,69217993,-116,41,4357
703,0.701999,67604,69218992,-132,42,4347
704,0.702999,67605,69219992,-126,64,4346
705,0.704000,67606,69220993,-102,62,4375
706,0.705000,67607,69221993,-96,36,4416
707,0.706000,67608,69222993,-112,44,4405
708,0.707000,67609,69223993,-117,57,4400
709,0.707999,67610,69224992,-107,49,4374
710,0.709000,67611,69225993,-119,32,4347
711,0.709999,67612,69226992,-140,32,4362
712,0.711000,67613,69227993,-131,48,4375
713,0.712000,67614,69228993,-130,55,4387
714,0.713000,67615,69229993,-145,57,4389
715,0.713999,67616,69230992,-143,46,4365
716,0.715000,67617,69231993,-137,34,4351
717,0.716000,67618,69232993,-124,45,4392
718,0.717000,67619,69233993,-111,59,4419
719,0.718000,67620,69234993,-127,52,4398
720,0.719000,67621,69235993,-131,40,4404
721,0.720000,67622,69236993,-130,40,4425
722,0.721000,67623,69237993,-139,58,4404
723,0.722000,67624,69238993,-142,63,4372
724,0.723000,67625,69239993,-136,48,4365
725,0.723999,67626,69240992,-140,36,4383
726,0.725000,67627,69241993,-150,58,4387
727,0.726000,67628,69242993,-133,57,4391
728,0.727000,67629,69243993,-125,43,4393
729,0.728000,67630,69244993,-117,53,4366
730,0.728999,67631,69245992,-101,48,4380
731,0.730000,67632,69246993,-94,55,4387
732,0.731000,67633,69247993,-102,63,4378
733,0.732000,67634,69248993,-128,51,4416
734,0.733000,67635,69249993,-126,35,4414
735,0.734000,67636,69250993,-110,25,4390
736,0.735000,67637,69251993,-110,47,4387
737,0.736000,67638,69252993,-117,58,4367
738,0.736999,67639,69253992,-122,49,4359
739,0.737999,67640,69254992,-107,48,4376
740,0.739000,67641,69255993,-109,49,4400
741,0.739999,67642,69256992,-118,44,4397
742,0.741000,67643,69257993,-107,28,4383
743,0.742000,67644,69258993,-112,31,4371
744,0.742999,67645,69259992,-121,38,4384
745,0.743999,67646,69260992,-115,55,4419
746,0.745000,67647,69261993,-123,63,4422
747,0.746000,67648,69262993,-133,58,4399
748,0.747000,67649,69263993,-125,59,4395
749,0.747999,67650,69264992,-122,64,4402
750,0.749000,67651,69265993,-109,60,4386
751,0.750000,67652,69266993,-111,52,4374
752,0.751000,67653,69267993,-119,68,4379
753,0.751999,67654,69268992,-109,57,4397
754,0.753000,67655,69269993,-113,42,4384
755,0.753999,67656,69270992,-113,52,4355
756,0.754999,67657,69271992,-117,60,4357
757,0.755999,67658,69272992,-127,58,4370
758,0.757000,67659,69273993,-126,47,4378
759,0.758000,67660,69274993,-110,36,4393
760,0.759000,67661,69275993,-102,48,4388
761,0.760000,67662,69276993,-122,55,4372
762,0.761000,67663,69277993,-144,43,4414
763,0.762000,67664,69278993,-140,60,4423
764,0.763000,67665,69279993,-121,74,4404
765,0.764000,67666,69280993,-100,69,4398
766,0.764999,67667,69281992,-100,52,4388
767,0.766000,67668,69282993,-124,42,4396
768,0.767000,67669,69283993,-114,44,4397
769,0.768000,67670,69284993,-95,40,4396
770,0.768999,67671,69285992,-103,44,4383
771,0.770000,67672,69286993,-110,48,4387
772,0.770999,67673,69287992,-120,40,4397
773,0.772000,67674,69288993,-114,38,4407
774,0.773000,67675,69289993,-102,44,4403
775,0.774000,67676,69290993,-126,59,4359
776,0.775000,67677,69291993,-140,55,4350
777,0.776000,67678,69292993,-123,38,4380
778,0.776999,67679,69293992,-116,34,4383
779,0.778000,67680,69294993,-124,48,4384
780,0.779000,67681,69295993,-117,58,4377
781,0.780000,67682,69296993,-109,44,4382
782,0.781000,67683,69297993,-113,39,4420
783,0.781999,67684,69298992,-133,36,4409
784,0.782999,67685,69299992,-145,51,4393
785,0.784000,67686,69300993,-96,68,4386
786,0.784999,67687,69301992,-86,62,4371
787,0.786000,67688,69302993,-113,53,4369
788,0.787000,67689,69303993,-85,43,4373
789,0.788000,67690,69304993,-97,39,4349
790,0.789000,67691,69305993,-134,45,4341
791,0.789999,67692,69306992,-127,42,4369
792,0.790999,67693,69307992,-106,48,4394
793,0.791999,67694,69308992,-106,66,4412
794,0.793000,67695,69309993,-124,50,4424
795,0.794000,67696,69310993,-125,34,4413
796,0.795000,67697,69311993,-137,45,4379
797,0.796000,67698,69312993,-149,50,4381
798,0.796999,67699,69313992,-137,42,4389
799,0.798000,67700,69314993,-132,48,4355
800,0.799000,67701,69315993,-142,41,4349
801,0.800000,67702,69316993,-146,23,4369
802,0.801000,67703,69317993,-128,35,4359
803,0.801999,67704,69318992,-126,45,4386
804,0.802999,67705,69319992,-135,56,4405
805,0.804000,67706,69320993,-128,64,4398
806,0.804999,67707,69321992,-114,48,4414
807,0.806000,67708,69322993,-105,41,4425
808,0.807000,67709,69323993,-118,30,4417
809,0.808000,67710,69324993,-111,27,4382
810,0.808999,67711,69325992,-115,36,4366
811,0.810000,67712,69326993,-116,32,4374
812,0.810999,67713,69327992,-111,25,4361
813,0.812000,67714,69328993,-125,32,4361
814,0.813000,67715,69329993,-134,39,4362
815,0.813999,67716,69330992,-123,46,4362
816,0.815000,67717,69331993,-117,59,4379
817,0.816000,67718,69332993,-134,49,4385
818,0.817000,67719,69333993,-145,40,4378
819,0.818000,67720,69334993,-131,25,4379
820,0.818999,67721,69335992,-126,24,4397
821,0.819999,67722,69336992,-125,47,4371
822,0.820999,67723,69337992,-110,60,4373
823,0.822000,67724,69338993,-109,50,4391
824,0.822999,67725,69339992,-96,45,4388
825,0.824000,67726,69340993,-108,49,4386
826,0.825000,67727,69341993,-122,40,4360
827,0.826000,67728,69342993,-100,32,4376
828,0.827000,67729,69343993,-102,35,4395
829,0.828000,67730,69344993,-107,51,4382
830,0.828999,67731,69345992,-119,48,4367
831,0.829999,67732,69346992,-127,41,4367
832,0.831000,67733,69347993,-113,47,4378
833,0.832000,67734,69348993,-114,59,4379
834,0.833000,67735,69349993,-108,78,4376
835,0.833999,67736,69350992,-112,59,4371
836,0.835000,67737,69351993,-112,39,4377
837,0.836000,67738,69352993,-114,47,4392
838,0.837000,67739,69353993,-119,61,4390
839,0.838000,67740,69354993,-114,54,4404
840,0.839000,67741,69355993,-129,36,4396
841,0.840000,67742,69356993,-152,30,4379
842,0.841000,67743,69357993,-120,32,4371
843,0.841999,67744,69358992,-82,27,4352
844,0.843000,67745,69359993,-101,20,4348
845,0.843999,67746,69360992,-122,38,4332
846,0.845000,67747,69361993,-104,46,4351
847,0.845999,67748,69362992,-97,42,4388
848,0.846999,67749,69363992,-134,36,4387
849,0.848000,67750,69364993,-138,39,4398
850,0.848999,67751,69365992,-139,28,4395
851,0.850000,67752,69366993,-147,23,4391
852,0.851000,67753,69367993,-125,34,4403
853,0.851999,67754,69368992,-124,24,4400
854,0.853000,67755,69369993,-148,27,4378
855,0.853999,67756,69370992,-136,51,4372
856,0.854999,67757,69371992,-103,58,4396
857,0.855999,67758,69372992,-118,67,4386
858,0.856999,67759,69373992,-137,70,4368
859,0.858000,67760,69374993,-133,50,4383
860,0.859000,67761,69375993,-141,34,4373
861,0.860000,67762,69376993,-115,31,4359
862,0.861000,67763,69377993,-110,31,4369
863,0.862000,67764,69378993,-143,39,4377
864,0.863000,67765,69379993,-127,56,4387
865,0.864000,67766,69380993,-126,45,4383
866,0.865000,67767,69381993,-136,41,4384
867,0.865999,67768,69382992,-119,35,4367
868,0.866999,67769,69383992,-115,31,4381
869,0.868000,67770,69384993,-108,48,4388
870,0.869000,67771,69385993,-109,54,4356
871,0.870000,67772,69386993,-140,33,4373
872,0.871000,67773,69387993,-163,38,4378
873,0.871999,67774,69388992,-135,59,4365
874,0.873000,67775,69389993,-122,57,4370
875,0.874000,67776,69390993,-121,61,4344
876,0.875000,67777,69391993,-100,55,4327
877,0.875999,67778,69392992,-116,47,4348
878,0.877000,67779,69393993,-132,54,4389
879,0.878000,67780,69394993,-115,59,4396
880,0.879000,67781,69395993,-104,49,4396
881,0.880000,67782,69396993,-98,40,4415
882,0.881000,67783,69397993,-96,36,4383
883,0.882000,67784,69398993,-122,34,4369
884,0.882999,67785,69399992,-128,28,4394
885,0.884000,67786,69400993,-120,35,4386
886,0.884999,67787,69401992,-121,49,4371
887,0.886000,67788,69402993,-117,47,4384
888,0.886999,67789,69403992,-104,45,4400
889,0.887999,67790,69404992,-102,55,4410
890,0.889000,67791,69405993,-102,56,4392
891,0.889999,67792,69406992,-116,50,4379
892,0.891000,67793,69407993,-125,57,4376
893,0.892000,67794,69408993,-113,64,4376
894,0.893000,67795,69409993,-93,65,4375
895,0.893999,67796,69410992,-76,62,4368
896,0.895000,67797,69411993,-103,59,4379
897,0.896000,67798,69412993,-108,53,4353
898,0.896999,67799,69413992,-126,58,4316
899,0.898000,67800,69414993,-143,66,4338
900,0.899000,67801,69415993,-116,53,4400
901,0.900000,67802,69416993,-119,59,4409
902,0.901000,67803,69417993,-126,78,4370
903,0.901999,67804,69418992,-120,58,4375
904,0.902999,67805,69419992,-125,49,4384
905,0.904000,67806,69420993,-125,57,4379
906,0.905000,67807,69421993,-106,40,4357
907,0.906000,67808,69422993,-99,41,4357
908,0.906999,67809,69423992,-101,47,4375
909,0.907999,67810,69424992,-107,47,4388
910,0.908999,67811,69425992,-117,64,4400
911,0.909999,67812,69426992,-121,66,4401
912,0.911000,67813,69427993,-120,63,4390
913,0.912000,67814,69428993,-106,59,4380
914,0.912999,67815,69429992,-105,47,4390
915,0.913999,67816,69430992,-125,43,4382
916,0.915000,67817,69431993,-132,53,4407
917,0.916000,67818,69432993,-115,42,4441
918,0.917000,67819,69433993,-115,25,4420
919,0.918000,67820,69434993,-133,29,4395
920,0.919000,67821,69435993,-129,41,4410
921,0.919999,67822,69436992,-125,48,4409
922,0.921000,67823,69437993,-127,39,4401
923,0.922000,67824,69438993,-112,27,4371
924,0.923000,67825,69439993,-113,23,4362
925,0.924000,67826,69440993,-125,33,4385
926,0.925000,67827,69441993,-129,36,4374
927,0.926000,67828,69442993,-145,33,4356
928,0.927000,67829,69443993,-158,29,4371
929,0.927999,67830,69444992,-153,25,4391
930,0.929000,67831,69445993,-136,35,4380
931,0.930000,67832,69446993,-138,47,4375
932,0.931000,67833,69447993,-130,54,4378
933,0.932000,67834,69448993,-94,55,4395
934,0.933000,67835,69449993,-70,59,4428
935,0.934000,67836,69450993,-53,53,4466
936,0.934999,67837,69451992,-52,58,4489
937,0.936000,67838,69452993,-63,68,4467
938,0.936999,67839,69453992,-93,53,4423
939,0.938000,67840,69454993,-135,48,4395
940,0.939000,67841,69455993,-143,51,4345
941,0.940000,67842,69456993,-147,68,4321
942,0.941000,67843,69457993,-166,72,4334
943,0.942000,67844,69458993,-168,55,4310
944,0.943000,67845,69459993,-166,51,4326
945,0.944000,67846,69460993,-131,47,4372
946,0.944999,67847,69461992,-79,25,4369
947,0.945999,67848,69462992,-74,24,4357
948,0.947000,67849,69463993,-89,32,4370
949,0.947999,67850,69464992,-112,36,4393
950,0.948999,67851,69465992,-105,59,4418
951,0.950000,67852,69466993,-68,73,4444
952,0.950999,67853,69467992,-81,88,4482
953,0.952000,67854,69468993,-127,87,4493
954,0.953000,67855,69469993,-141,83,4450
955,0.953999,67856,69470992,-131,99,4411
956,0.954999,67857,69471992,-133,82,4403
957,0.956000,67858,69472993,-136,68,4382
958,0.956999,67859,69473992,-144,61,4328
959,0.958000,67860,69474993,-170,43,4310
960,0.959000,67861,69475993,-155,37,4348
961,0.959999,67862,69476992,-121,28,4368
962,0.961000,67863,69477993,-121,15,4351
963,0.962000,67864,69478993,-128,21,4341
964,0.962999,67865,69479992,-133,24,4337
965,0.964000,67866,69480993,-117,25,4364
966,0.965000,67867,69481993,-95,40,4392
967,0.965999,67868,69482992,-85,49,4389
968,0.967000,67869,69483993,-105,71,4402
969,0.968000,67870,69484993,-132,80,4410
970,0.969000,67871,69485993,-136,74,4408
971,0.969999,67872,69486992,-122,86,4424
972,0.970999,67873,69487992,-125,66,4429
973,0.972000,67874,69488993,-166,36,4405
974,0.973000,67875,69489993,-180,58,4398
975,0.974000,67876,69490993,-157,72,4362
976,0.975000,67877,69491993,-133,52,4339
977,0.975999,67878,69492992,-115,45,4367
978,0.976999,67879,69493992,-105,30,4358
979,0.978000,67880,69494993,-94,17,4355
980,0.978999,67881,69495992,-82,15,4346
981,0.980000,67882,69496993,-67,4,4342
982,0.980999,67883,69497992,-44,26,4363
983,0.982000,67884,69498993,-52,50,4378
984,0.983000,67885,69499993,-80,58,4410
985,0.984000,67886,69500993,-89,64,4428
986,0.984999,67887,69501992,-107,54,4424
987,0.985999,67888,69502992,-142,52,4440
988,0.987000,67889,69503993,-166,50,4442
989,0.987999,67890,69504992,-166,40,4426
990,0.989000,67891,69505993,-170,35,4398
991,0.990000,67892,69506993,-143,32,4362
992,0.990999,67893,69507992,-105,35,4339
993,0.992000,67894,69508993,-111,25,4329
994,0.993000,67895,69509993,-111,18,4336
995,0.994000,67896,69510993,-95,12,4345
996,0.995000,67897,69511993,-87,21,4369
997,0.996000,67898,69512993,-92,35,4374
998,0.997000,67899,69513993,-96,25,4354
999,0.997999,67900,69514992,-93,28,4370
1000,0.999000,67901,69515993,-95,24,4383
1001,0.999999,67902,69516992,-114,37,4385
1002,1.001000,67903,69517993,-120,63,4396
1003,1.002000,67904,69518993,-120,57,4407
1004,1.003000,67905,69519993,-134,50,4403
1005,1.004000,67906,69520993,-132,60,4415
1006,1.005000,67907,69521993,-130,56,4438
1007,1.006000,67908,69522993,-125,39,4413
1008,1.006999,67909,69523992,-115,27,4384
1009,1.008000,67910,69524993,-121,24,4368
1010,1.008999,67911,69525992,-132,35,4341
1011,1.010000,67912,69526993,-129,45,4322
1012,1.010999,67913,69527992,-122,58,4333
1013,1.012000,67914,69528993,-121,67,4331
1014,1.013000,67915,69529993,-122,43,4321
1015,1.014000,67916,69530993,-143,38,4347
1016,1.015000,67917,69531993,-149,53,4389
1017,1.016000,67918,69532993,-131,48,4427
1018,1.016999,67919,69533992,-134,48,4432
1019,1.018000,67920,69534993,-147,33,4427
1020,1.019000,67921,69535993,-121,38,4450
1021,1.019999,67922,69536992,-102,56,4452
1022,1.021000,67923,69537993,-107,52,4415
1023,1.021999,67924,69538992,-99,49,4386
1024,1.023000,67925,69539993,-94,54,4389
1025,1.024000,67926,69540993,-94,48,4391
1026,1.025000,67927,69541993,-101,39,4365
1027,1.026000,67928,69542993,-102,42,4337
1028,1.026999,67929,69543992,-106,25,4340
1029,1.027999,67930,69544992,-119,13,4336
1030,1.029000,67931,69545993,-125,41,4333
1031,1.030000,67932,69546993,-129,55,4343
1032,1.031000,67933,69547993,-137,50,4360
1033,1.032000,67934,69548993,-132,60,4395
1034,1.033000,67935,69549993,-134,53,4403
1035,1.034000,67936,69550993,-140,54,4398
1036,1.034999,67937,69551992,-143,65,4365
1037,1.036000,67938,69552993,-140,57,4343
1038,1.036999,67939,69553992,-125,46,4383
1039,1.038000,67940,69554993,-115,38,4408
1040,1.038999,67941,69555992,-112,33,4397
1041,1.040000,67942,69556993,-117,42,4401
1042,1.041000,67943,69557993,-111,54,4412
1043,1.041999,67944,69558992,-118,48,4393
1044,1.043000,67945,69559993,-126,44,4366
1045,1.044000,67946,69560993,-111,36,4364
1046,1.045000,67947,69561993,-103,32,4368
1047,1.046000,67948,69562993,-101,33,4365
1048,1.046999,67949,69563992,-100,39,4375
1049,1.048000,67950,69564993,-116,53,4389
1050,1.048999,67951,69565992,-130,53,4387
1051,1.050000,67952,69566993,-122,45,4381
1052,1.051000,67953,69567993,-121,41,4400
1053,1.051999,67954,69568992,-125,49,4404
1054,1.053000,67955,69569993,-111,53,4397
1055,1.053999,67956,69570992,-111,45,4400
1056,1.054999,67957,69571992,-119,36,4410
1057,1.056000,67958,69572993,-107,38,4429
1058,1.057000,67959,69573993,-105,41,4422
1059,1.057999,67960,69574992,-117,42,4429
1060,1.059000,67961,69575993,-129,43,4412
1061,1.060000,67962,69576993,-141,52,4367
1062,1.060999,67963,69577992,-135,49,4367
1063,1.061999,67964,69578992,-124,28,4372
1064,1.063000,67965,69579993,-127,24,4371
1065,1.064000,67966,69580993,-122,38,4371
1066,1.065000,67967,69581993,-110,42,4348
1067,1.066000,67968,69582993,-107,55,4334
1068,1.066999,67969,69583992,-110,73,4359
1069,1.067999,67970,69584992,-116,61,4391
1070,1.069000,67971,69585993,-117,40,4390
1071,1.070000,67972,69586993,-119,34,4373
1072,1.071000,67973,69587993,-113,48,4375
1073,1.071999,67974,69588992,-104,62,4382
1074,1.072999,67975,69589992,-118,53,4422
1075,1.074000,67976,69590993,-135,53,4433
1076,1.074999,67977,69591992,-127,51,4420
1077,1.076000,67978,69592993,-128,34,4431
1078,1.077000,67979,69593993,-148,36,4419
1079,1.078000,67980,69594993,-146,33,4403
1080,1.079000,67981,69595993,-123,28,4389
1081,1.080000,67982,69596993,-98,34,4370
1082,1.081000,67983,69597993,-116,36,4374
1083,1.082000,67984,69598993,-149,47,4383
1084,1.083000,67985,69599993,-136,45,4371
1085,1.084000,67986,69600993,-125,34,4339
1086,1.084999,67987,69601992,-119,44,4363
1087,1.086000,67988,69602993,-90,51,4422
1088,1.087000,67989,69603993,-95,43,4413
1089,1.087999,67990,69604992,-117,41,4400
1090,1.089000,67991,69605993,-114,41,4415
1091,1.089999,67992,69606992,-120,27,4412
1092,1.091000,67993,69607993,-121,21,4419
1093,1.091999,67994,69608992,-123,27,4426
1094,1.092999,67995,69609992,-127,45,4411
1095,1.094000,67996,69610993,-132,57,4417
1096,1.095000,67997,69611993,-130,62,4412
1097,1.096000,67998,69612993,-134,63,4386
1098,1.097000,67999,69613993,-131,56,4367
1099,1.097999,68000,69614992,-128,35,4359
1100,1.099000,68001,69615993,-145,47,4379
1101,1.099999,68002,69616992,-147,65,4393
1102,1.101000,68003,69617993,-137,51,4374
1103,1.101999,68004,69618992,-124,39,4371
1104,1.103000,68005,69619993,-120,26,4351
1105,1.103999,68006,69620992,-119,29,4338
1106,1.104999,68007,69621992,-118,43,4369
1107,1.105999,68008,69622992,-118,48,4368
1108,1.106999,68009,69623992,-126,43,4364
1109,1.107999,68010,69624992,-127,40,4386
1110,1.108999,68011,69625992,-129,58,4394
1111,1.110000,68012,69626993,-117,70,4395
1112,1.111000,68013,69627993,-106,41,4409
1113,1.112000,68014,69628993,-126,34,4404
1114,1.113000,68015,69629993,-130,44,4407
1115,1.114000,68016,69630993,-114,36,4415
1116,1.115000,68017,69631993,-97,55,4405
1117,1.115999,68018,69632992,-100,58,4408
1118,1.116999,68019,69633992,-97,25,4396
1119,1.118000,68020,69634993,-91,36,4371
1120,1.118999,68021,69635992,-112,48,4348
1121,1.120000,68022,69636993,-120,36,4349
1122,1.121000,68023,69637993,-110,30,4364
1123,1.122000,68024,69638993,-111,26,4368
1124,1.122999,68025,69639992,-113,38,4369
1125,1.124000,68026,69640993,-104,46,4390
1126,1.125000,68027,69641993,-110,50,4388
1127,1.126000,68028,69642993,-109,35,4394
1128,1.126999,68029,69643992,-123,24,4390
1129,1.128000,68030,69644993,-112,27,4388
1130,1.128999,68031,69645992,-89,23,4404
1131,1.130000,68032,69646993,-118,23,4393
1132,1.131000,68033,69647993,-132,20,4383
1133,1.131999,68034,69648992,-142,23,4382
1134,1.133000,68035,69649993,-147,36,4377
1135,1.133999,68036,69650992,-127,45,4357
1136,1.134999,68037,69651992,-117,31,4368
1137,1.136000,68038,69652993,-117,30,4394
1138,1.137000,68039,69653993,-115,30,4404
1139,1.138000,68040,69654993,-127,31,4411
1140,1.139000,68041,69655993,-128,43,4413
1141,1.140000,68042,69656993,-126,47,4403
1142,1.141000,68043,69657993,-129,48,4401
1143,1.141999,68044,69658992,-107,57,4404
1144,1.143000,68045,69659993,-94,56,4412
1145,1.144000,68046,69660993,-107,38,4382
1146,1.145000,68047,69661993,-115,40,4373
1147,1.146000,68048,69662993,-116,51,4413
1148,1.147000,68049,69663993,-118,45,4416
1149,1.148000,68050,69664993,-124,22,4378
1150,1.148999,68051,69665992,-111,32,4354
1151,1.150000,68052,69666993,-91,43,4373
1152,1.151000,68053,69667993,-106,27,4415
1153,1.152000,68054,69668993,-135,41,4414
1154,1.153000,68055,69669993,-137,45,4386
1155,1.154000,68056,69670993,-127,45,4376
1156,1.155000,68057,69671993,-130,63,4377
1157,1.156000,68058,69672993,-131,48,4391
1158,1.157000,68059,69673993,-121,27,4387
1159,1.157999,68060,69674992,-120,31,4378
1160,1.159000,68061,69675993,-115,62,4399
1161,1.159999,68062,69676992,-113,81,4398
1162,1.161000,68063,69677993,-137,54,4385
1163,1.161999,68064,69678992,-127,53,4396
1164,1.163000,68065,69679993,-113,63,4397
1165,1.164000,68066,69680993,-130,52,4393
1166,1.165000,68067,69681993,-141,46,4389
1167,1.165999,68068,69682992,-127,40,4401
1168,1.167000,68069,69683993,-128,42,4411
1169,1.168000,68070,69684993,-154,45,4392
1170,1.169000,68071,69685993,-158,33,4371
1171,1.170000,68072,69686993,-155,44,4362
1172,1.171000,68073,69687993,-148,50,4378
1173,1.172000,68074,69688993,-142,42,4384
1174,1.173000,68075,69689993,-130,55,4370
1175,1.173999,68076,69690992,-106,51,4407
1176,1.175000,68077,69691993,-109,49,4430
1177,1.175999,68078,69692992,-135,58,4393
1178,1.177000,68079,69693993,-136,66,4378
1179,1.178000,68080,69694993,-115,71,4402
1180,1.179000,68081,69695993,-123,57,4396
1181,1.180000,68082,69696993,-124,49,4383
1182,1.180999,68083,69697992,-122,58,4384
1183,1.182000,68084,69698993,-138,38,4373
1184,1.183000,68085,69699993,-131,27,4374
1185,1.183999,68086,69700992,-120,48,4362
1186,1.185000,68087,69701993,-131,51,4358
1187,1.186000,68088,69702993,-137,43,4397
1188,1.186999,68089,69703992,-130,45,4413
1189,1.188000,68090,69704993,-130,46,4405
1190,1.189000,68091,69705993,-119,34,4407
1191,1.189999,68092,69706992,-112,35,4389
1192,1.191000,68093,69707993,-118,45,4375
1193,1.192000,68094,69708993,-129,40,4386
1194,1.192999,68095,69709992,-128,33,4392
1195,1.193999,68096,69710992,-108,38,4394
1196,1.195000,68097,69711993,-107,52,4392
1197,1.196000,68098,69712993,-120,53,4394
1198,1.197000,68099,69713993,-110,61,4394
1199,1.197999,68100,69714992,-117,53,4381
1200,1.198999,68101,69715992,-135,38,4390
1201,1.200000,68102,69716993,-131,47,4391
1202,1.201000,68103,69717993,-102,45,4358
1203,1.202000,68104,69718993,-86,49,4351
1204,1.203000,68105,69719993,-104,52,4366
1205,1.204000,68106,69720993,-108,43,4352
1206,1.204999,68107,69721992,-103,37,4355
1207,1.206000,68108,69722993,-104,38,4370
1208,1.206999,68109,69723992,-111,46,4382
1209,1.207999,68110,69724992,-111,52,4396
1210,1.209000,68111,69725993,-117,49,4379
1211,1.210000,68112,69726993,-136,44,4394
1212,1.211000,68113,69727993,-132,47,4419
1213,1.211999,68114,69728992,-105,52,4384
1214,1.212999,68115,69729992,-103,43,4347
1215,1.213999,68116,69730992,-136,51,4361
1216,1.215000,68117,69731993,-148,74,4384
1217,1.216000,68118,69732993,-126,63,4389
1218,1.216999,68119,69733992,-110,38,4371
1219,1.218000,68120,69734993,-122,20,4368
1220,1.219000,68121,69735993,-152,45,4391
1221,1.220000,68122,69736993,-139,65,4393
1222,1.220999,68123,69737992,-116,38,4380
1223,1.221999,68124,69738992,-139,43,4382
1224,1.223000,68125,69739993,-148,61,4382
1225,1.224000,68126,69740993,-119,48,4381
1226,1.225000,68127,69741993,-123,39,4378
1227,1.225999,68128,69742992,-131,51,4373
1228,1.227000,68129,69743993,-117,49,4405
1229,1.228000,68130,69744993,-135,44,4412
1230,1.229000,68131,69745993,-128,54,4377
1231,1.230000,68132,69746993,-109,48,4355
1232,1.231000,68133,69747993,-123,46,4370
1233,1.231999,68134,69748992,-131,52,4405
1234,1.233000,68135,69749993,-127,43,4410
1235,1.233999,68136,69750992,-121,39,4389
1236,1.235000,68137,69751993,-101,37,4393
1237,1.236000,68138,69752993,-104,45,4390
1238,1.236999,68139,69753992,-128,64,4376
1239,1.238000,68140,69754993,-125,65,4394
1240,1.238999,68141,69755992,-121,53,4396
1241,1.239999,68142,69756992,-124,58,4381
1242,1.240999,68143,69757992,-121,64,4389
1243,1.242000,68144,69758993,-127,58,4395
1244,1.243000,68145,69759993,-125,53,4385
1245,1.244000,68146,69760993,-115,44,4389
1246,1.245000,68147,69761993,-117,41,4388
1247,1.246000,68148,69762993,-117,45,4389
1248,1.246999,68149,69763992,-129,44,4377
1249,1.248000,68150,69764993,-134,41,4369
1250,1.248999,68151,69765992,-130,37,4392
1251,1.249999,68152,69766992,-142,30,4406
1252,1.251000,68153,69767993,-141,41,4404
1253,1.252000,68154,69768993,-138,54,4365
1254,1.253000,68155,69769993,-159,41,4354
1255,1.254000,68156,69770993,-143,35,4373
1256,1.255000,68157,69771993,-103,37,4365
1257,1.256000,68158,69772993,-114,47,4360
1258,1.257000,68159,69773993,-144,65,4388
1259,1.258000,68160,69774993,-148,49,4388
1260,1.259000,68161,69775993,-136,40,4369
1261,1.260000,68162,69776993,-124,46,4376
1262,1.261000,68163,69777993,-122,35,4358
1263,1.261999,68164,69778992,-128,31,4346
1264,1.262999,68165,69779992,-118,48,4369
1265,1.264000,68166,69780993,-100,48,4374
1266,1.264999,68167,69781992,-107,41,4374
1267,1.266000,68168,69782993,-121,46,4395
1268,1.267000,68169,69783993,-121,28,4408
1269,1.267999,68170,69784992,-122,24,4406
1270,1.269000,68171,69785993,-107,28,4392
1271,1.270000,68172,69786993,-104,32,4364
1272,1.270999,68173,69787992,-125,53,4359
1273,1.272000,68174,69788993,-120,45,4380
1274,1.272999,68175,69789992,-106,38,4384
1275,1.274000,68176,69790993,-111,53,4368
1276,1.274999,68177,69791992,-126,48,4379
1277,1.276000,68178,69792993,-130,50,4413
1278,1.277000,68179,69793993,-139,50,4408
1279,1.278000,68180,69794993,-133,33,4388
1280,1.278999,68181,69795992,-106,44,4384
1281,1.280000,68182,69796993,-118,60,4386
1282,1.281000,68183,69797993,-137,56,4391
1283,1.282000,68184,69798993,-128,41,4383
1284,1.283000,68185,69799993,-137,38,4399
1285,1.283999,68186,69800992,-136,58,4392
1286,1.285000,68187,69801993,-134,50,4376
1287,1.286000,68188,69802993,-138,34,4395
1288,1.287000,68189,69803993,-126,42,4382
1289,1.288000,68190,69804993,-128,43,4372
1290,1.289000,68191,69805993,-136,58,4377
1291,1.289999,68192,69806992,-133,56,4398
1292,1.291000,68193,69807993,-119,37,4412
1293,1.292000,68194,69808993,-125,59,4397
1294,1.293000,68195,69809993,-138,59,4399
1295,1.293999,68196,69810992,-119,41,4412
1296,1.294999,68197,69811992,-110,45,4398
1297,1.295999,68198,69812992,-122,55,4372
1298,1.297000,68199,69813993,-117,63,4358
1299,1.298000,68200,69814993,-113,60,4366
1300,1.299000,68201,69815993,-119,55,4376
1301,1.299999,68202,69816992,-128,46,4389
1302,1.301000,68203,69817993,-115,48,4401
1303,1.301999,68204,69818992,-85,42,4402
1304,1.302999,68205,69819992,-92,33,4407
1305,1.304000,68206,69820993,-127,51,4403
1306,1.305000,68207,69821993,-150,57,4403
1307,1.306000,68208,69822993,-125,51,4400
1308,1.306999,68209,69823992,-105,47,4379
1309,1.308000,68210,69824993,-114,51,4369
1310,1.308999,68211,69825992,-111,53,4384
1311,1.310000,68212,69826993,-131,44,4404
1312,1.311000,68213,69827993,-127,51,4389
1313,1.312000,68214,69828993,-104,61,4372
1314,1.313000,68215,69829993,-103,53,4374
1315,1.313999,68216,69830992,-118,46,4376
1316,1.315000,68217,69831993,-128,30,4389
1317,1.316000,68218,69832993,-121,22,4386
1318,1.316999,68219,69833992,-123,33,4389
1319,1.318000,68220,69834993,-116,42,4372
1320,1.319000,68221,69835993,-109,56,4358
1321,1.319999,68222,69836992,-127,58,4389
1322,1.321000,68223,69837993,-131,49,4382
1323,1.321999,68224,69838992,-116,55,4369
1324,1.323000,68225,69839993,-108,56,4383
1325,1.324000,68226,69840993,-106,51,4406
1326,1.324999,68227,69841992,-110,45,4412
1327,1.326000,68228,69842993,-103,23,4403
1328,1.327000,68229,69843993,-106,19,4377
1329,1.328000,68230,69844993,-113,45,4354
1330,1.329000,68231,69845993,-101,47,4368
1331,1.330000,68232,69846993,-102,38,4388
1332,1.330999,68233,69847992,-117,47,4378
1333,1.332000,68234,69848993,-133,49,4356
1334,1.333000,68235,69849993,-131,55,4377
1335,1.333999,68236,69850992,-118,56,4378
1336,1.335000,68237,69851993,-107,48,4383
1337,1.336000,68238,69852993,-110,52,4401
1338,1.337000,68239,69853993,-116,55,4388
1339,1.338000,68240,69854993,-124,40,4385
1340,1.338999,68241,69855992,-129,44,4381
1341,1.339999,68242,69856992,-121,50,4380
1342,1.340999,68243,69857992,-127,48,4393
1343,1.342000,68244,69858993,-123,55,4410
1344,1.342999,68245,69859992,-104,53,4410
1345,1.344000,68246,69860993,-115,57,4377
1346,1.345000,68247,69861993,-131,54,4376
1347,1.346000,68248,69862993,-137,44,4381
1348,1.347000,68249,69863993,-141,55,4370
1349,1.347999,68250,69864992,-120,67,4413
1350,1.349000,68251,69865993,-116,62,4439
1351,1.349999,68252,69866992,-109,68,4411
1352,1.351000,68253,69867993,-101,56,4395
1353,1.351999,68254,69868992,-121,32,4380
1354,1.353000,68255,69869993,-131,36,4345
1355,1.353999,68256,69870992,-117,47,4358
1356,1.355000,68257,69871993,-127,42,4393
1357,1.356000,68258,69872993,-136,26,4393
1358,1.357000,68259,69873993,-101,30,4409
1359,1.358000,68260,69874993,-100,46,4412
1360,1.358999,68261,69875992,-120,55,4387
1361,1.359999,68262,69876992,-130,54,4386
1362,1.360999,68263,69877992,-143,44,4391
1363,1.361999,68264,69878992,-132,38,4382
1364,1.363000,68265,69879993,-119,48,4370
1365,1.364000,68266,69880993,-133,66,4367
1366,1.365000,68267,69881993,-125,59,4385
1367,1.366000,68268,69882993,-114,46,4395
1368,1.366999,68269,69883992,-125,59,4392
1369,1.368000,68270,69884993,-125,46,4392
1370,1.369000,68271,69885993,-119,28,4397
1371,1.370000,68272,69886993,-121,40,4399
1372,1.370999,68273,69887992,-133,61,4393
1373,1.372000,68274,69888993,-131,50,4392
1374,1.373000,68275,69889993,-119,31,4381
1375,1.373999,68276,69890992,-110,48,4380
1376,1.374999,68277,69891992,-111,55,4389
1377,1.375999,68278,69892992,-123,38,4380
1378,1.377000,68279,69893993,-124,33,4370
1379,1.378000,68280,69894993,-128,52,4388
1380,1.379000,68281,69895993,-149,57,4400
1381,1.380000,68282,69896993,-143,35,4366
1382,1.380999,68283,69897992,-115,32,4334
1383,1.382000,68284,69898993,-118,48,4359
1384,1.383000,68285,69899993,-144,41,4389
1385,1.383999,68286,69900992,-151,51,4385
1386,1.385000,68287,69901993,-134,62,4372
1387,1.386000,68288,69902993,-125,52,4359
1388,1.387000,68289,69903993,-121,44,4361
1389,1.388000,68290,69904993,-111,40,4355
1390,1.389000,68291,69905993,-119,46,4350
1391,1.390000,68292,69906993,-117,41,4359
1392,1.391000,68293,69907993,-115,40,4364
1393,1.391999,68294,69908992,-122,67,4369
1394,1.392999,68295,69909992,-128,71,4376
1395,1.393999,68296,69910992,-125,56,4388
1396,1.395000,68297,69911993,-106,58,4398
1397,1.396000,68298,69912993,-106,45,4384
1398,1.397000,68299,69913993,-95,40,4381
1399,1.398000,68300,69914993,-98,56,4363
1400,1.399000,68301,69915993,-121,42,4347
1401,1.400000,68302,69916993,-117,20,4361
1402,1.400999,68303,69917992,-110,11,4376
1403,1.402000,68304,69918993,-112,18,4372
1404,1.403000,68305,69919993,-111,35,4341
1405,1.404000,68306,69920993,-107,29,4351
1406,1.405000,68307,69921993,-94,39,4398
1407,1.406000,68308,69922993,-95,62,4411
1408,1.407000,68309,69923993,-115,64,4414
1409,1.408000,68310,69924993,-123,69,4411
1410,1.408999,68311,69925992,-127,65,4388
1411,1.410000,68312,69926993,-138,59,4375
1412,1.410999,68313,69927992,-118,52,4379
1413,1.411999,68314,69928992,-114,40,4392
1414,1.412999,68315,69929992,-146,52,4401
1415,1.414000,68316,69930993,-122,43,4396
1416,1.415000,68317,69931993,-104,31,4378
1417,1.416000,68318,69932993,-102,41,4374
1418,1.417000,68319,69933993,-109,51,4369
1419,1.418000,68320,69934993,-131,67,4375
1420,1.419000,68321,69935993,-126,63,4370
1421,1.420000,68322,69936993,-126,54,4375
1422,1.421000,68323,69937993,-133,49,4381
1423,1.422000,68324,69938993,-130,51,4377
1424,1.422999,68325,69939992,-136,78,4369
1425,1.424000,68326,69940993,-140,66,4363
1426,1.425000,68327,69941993,-126,34,4377
1427,1.425999,68328,69942992,-132,23,4393
1428,1.427000,68329,69943993,-130,28,4383
1429,1.427999,68330,69944992,-120,45,4375
1430,1.428999,68331,69945992,-128,59,4385
1431,1.429999,68332,69946992,-127,53,4385
1432,1.431000,68333,69947993,-127,43,4371
1433,1.432000,68334,69948993,-137,43,4361
1434,1.433000,68335,69949993,-147,39,4392
1435,1.434000,68336,69950993,-140,46,4410
1436,1.435000,68337,69951993,-122,57,4422
1437,1.436000,68338,69952993,-116,67,4399
1438,1.436999,68339,69953992,-118,62,4354
1439,1.438000,68340,69954993,-111,54,4365
1440,1.438999,68341,69955992,-112,49,4396
1441,1.440000,68342,69956993,-118,34,4395
1442,1.441000,68343,69957993,-115,43,4376
1443,1.442000,68344,69958993,-127,62,4366
1444,1.443000,68345,69959993,-109,54,4331
1445,1.444000,68346,69960993,-94,44,4327
1446,1.444999,68347,69961992,-114,46,4391
1447,1.445999,68348,69962992,-129,49,4405
1448,1.446999,68349,69963992,-122,51,4392
1449,1.448000,68350,69964993,-115,46,4390
1450,1.449000,68351,69965993,-122,40,4386
1451,1.450000,68352,69966993,-113,50,4405
1452,1.451000,68353,69967993,-99,58,4404
1453,1.452000,68354,69968993,-101,44,4395
1454,1.453000,68355,69969993,-118,26,4382
1455,1.454000,68356,69970993,-130,42,4363
1456,1.455000,68357,69971993,-118,68,4378
1457,1.456000,68358,69972993,-102,64,4380
1458,1.456999,68359,69973992,-99,47,4372
1459,1.458000,68360,69974993,-99,34,4387
1460,1.459000,68361,69975993,-106,48,4404
1461,1.460000,68362,69976993,-116,54,4400
1462,1.461000,68363,69977993,-128,39,4405
1463,1.462000,68364,69978993,-123,44,4421
1464,1.462999,68365,69979992,-99,51,4404
1465,1.463999,68366,69980992,-101,44,4388
1466,1.465000,68367,69981993,-118,59,4411
1467,1.466000,68368,69982993,-120,52,4406
1468,1.467000,68369,69983993,-138,44,4373
1469,1.467999,68370,69984992,-147,51,4364
1470,1.469000,68371,69985993,-133,37,4352
1471,1.469999,68372,69986992,-132,34,4370
1472,1.471000,68373,69987993,-132,44,4379
1473,1.472000,68374,69988993,-125,55,4366
1474,1.473000,68375,69989993,-120,52,4382
1475,1.474000,68376,69990993,-130,43,4390
1476,1.475000,68377,69991993,-137,35,4380
1477,1.476000,68378,69992993,-111,46,4350
1478,1.477000,68379,69993993,-93,54,4338
1479,1.478000,68380,69994993,-108,49,4372
1480,1.479000,68381,69995993,-118,26,4367
1481,1.480000,68382,69996993,-136,26,4348
1482,1.481000,68383,69997993,-131,43,4349
1483,1.482000,68384,69998993,-115,41,4379
1484,1.483000,68385,69999993,-119,50,4413
1485,1.483999,68386,70000992,-115,49,4421
1486,1.485000,68387,70001993,-110,54,4406
1487,1.486000,68388,70002993,-108,60,4394
1488,1.486999,68389,70003992,-112,51,4414
1489,1.487999,68390,70004992,-113,50,4418
1490,1.488999,68391,70005992,-111,51,4398
1491,1.490000,68392,70006993,-113,63,4375
1492,1.491000,68393,70007993,-104,64,4377
1493,1.491999,68394,70008992,-108,39,4387
1494,1.493000,68395,70009993,-122,16,4388
1495,1.494000,68396,70010993,-124,14,4369
1496,1.495000,68397,70011993,-122,29,4372
1497,1.495999,68398,70012992,-115,47,4407
1498,1.497000,68399,70013993,-115,36,4401
1499,1.497999,68400,70014992,-112,27,4402
1500,1.499000,68401,70015993,-101,50,4412
1501,1.500000,68402,70016993,-88,57,4396
1502,1.501000,68403,70017993,-111,52,4385
1503,1.502000,68404,70018993,-112,46,4357
1504,1.503000,68405,70019993,-101,40,4351
1505,1.503999,68406,70020992,-119,32,4378
1506,1.504999,68407,70021992,-134,33,4398
1507,1.506000,68408,70022993,-152,43,4398
1508,1.506999,68409,70023992,-164,43,4405
1509,1.508000,68410,70024993,-121,53,4391
1510,1.509000,68411,70025993,-95,62,4362
1511,1.510000,68412,70026993,-130,56,4384
1512,1.510999,68413,70027992,-148,40,4380
1513,1.512000,68414,70028993,-148,34,4373
1514,1.513000,68415,70029993,-131,39,4375
1515,1.514000,68416,70030993,-127,44,4345
1516,1.515000,68417,70031993,-128,53,4346
1517,1.515999,68418,70032992,-126,56,4366
1518,1.517000,68419,70033993,-133,51,4376
1519,1.517999,68420,70034992,-133,50,4369
1520,1.519000,68421,70035993,-140,47,4373
1521,1.520000,68422,70036993,-132,38,4396
1522,1.521000,68423,70037993,-124,38,4380
1523,1.522000,68424,70038993,-133,23,4380
1524,1.523000,68425,70039993,-130,23,4377
1525,1.524000,68426,70040993,-124,35,4369
1526,1.525000,68427,70041993,-124,36,4364
1527,1.525999,68428,70042992,-122,36,4385
1528,1.526999,68429,70043992,-101,36,4406
1529,1.528000,68430,70044993,-96,38,4395
1530,1.529000,68431,70045993,-120,38,4413
1531,1.530000,68432,70046993,-141,43,4419
1532,1.531000,68433,70047993,-125,41,4413
1533,1.532000,68434,70048993,-106,37,4392
1534,1.533000,68435,70049993,-105,39,4386
1535,1.534000,68436,70050993,-109,34,4402
1536,1.535000,68437,70051993,-133,45,4399
1537,1.536000,68438,70052993,-128,56,4382
1538,1.536999,68439,70053992,-107,53,4367
1539,1.537999,68440,70054992,-100,49,4376
1540,1.539000,68441,70055993,-95,51,4406
1541,1.539999,68442,70056992,-105,64,4416
1542,1.540999,68443,70057992,-120,63,4412
1543,1.542000,68444,70058993,-133,52,4405
1544,1.542999,68445,70059992,-147,36,4401
1545,1.543999,68446,70060992,-155,31,4392
1546,1.545000,68447,70061993,-145,44,4392
1547,1.545999,68448,70062992,-112,43,4390
1548,1.547000,68449,70063993,-98,42,4386
1549,1.548000,68450,70064993,-112,42,4380
1550,1.549000,68451,70065993,-114,41,4364
1551,1.550000,68452,70066993,-110,56,4380
1552,1.551000,68453,70067993,-110,70,4387
1553,1.551999,68454,70068992,-106,68,4378
1554,1.553000,68455,70069993,-108,50,4376
1555,1.554000,68456,70070993,-118,36,4389
1556,1.555000,68457,70071993,-124,44,4371
1557,1.555999,68458,70072992,-122,45,4368
1558,1.556999,68459,70073992,-113,47,4394
1559,1.558000,68460,70074993,-116,53,4375
1560,1.559000,68461,70075993,-117,35,4377
1561,1.560000,68462,70076993,-110,39,4383
1562,1.560999,68463,70077992,-107,55,4373
1563,1.562000,68464,70078993,-99,60,4409
1564,1.562999,68465,70079992,-97,54,4399
1565,1.564000,68466,70080993,-117,47,4377
1566,1.565000,68467,70081993,-122,27,4397
1567,1.566000,68468,70082993,-107,12,4382
1568,1.566999,68469,70083992,-122,33,4380
1569,1.568000,68470,70084993,-135,38,4409
1570,1.569000,68471,70085993,-112,33,4392
1571,1.570000,68472,70086993,-95,42,4356
1572,1.571000,68473,70087993,-114,37,4360
1573,1.572000,68474,70088993,-112,27,4362
1574,1.573000,68475,70089993,-95,44,4345
1575,1.574000,68476,70090993,-103,59,4354
1576,1.575000,68477,70091993,-115,45,4400
1577,1.576000,68478,70092993,-126,32,4408
1578,1.576999,68479,70093992,-131,45,4389
1579,1.578000,68480,70094993,-123,52,4358
1580,1.579000,68481,70095993,-112,35,4369
1581,1.580000,68482,70096993,-117,22,4393
1582,1.581000,68483,70097993,-131,37,4401
1583,1.581999,68484,70098992,-144,51,4393
1584,1.582999,68485,70099992,-132,46,4372
1585,1.584000,68486,70100993,-117,38,4381
1586,1.585000,68487,70101993,-118,29,4385
1587,1.586000,68488,70102993,-117,9,4397
1588,1.587000,68489,70103993,-125,22,4399
1589,1.587999,68490,70104992,-142,46,4372
1590,1.589000,68491,70105993,-131,42,4364
1591,1.590000,68492,70106993,-109,42,4381
1592,1.591000,68493,70107993,-107,33,4398
1593,1.592000,68494,70108993,-113,34,4408
1594,1.593000,68495,70109993,-124,29,4405
1595,1.594000,68496,70110993,-125,20,4387
1596,1.594999,68497,70111992,-115,31,4373
1597,1.595999,68498,70112992,-110,45,4382
1598,1.597000,68499,70113993,-122,54,4381
1599,1.598000,68500,70114993,-130,48,4367
1600,1.598999,68501,70115992,-119,49,4375
1601,1.600000,68502,70116993,-98,60,4384
1602,1.601000,68503,70117993,-99,48,4388
1603,1.601999,68504,70118992,-123,40,4396
1604,1.603000,68505,70119993,-135,48,4388
1605,1.604000,68506,70120993,-121,55,4401
1606,1.604999,68507,70121992,-118,66,4424
1607,1.606000,68508,70122993,-130,60,4393
1608,1.607000,68509,70123993,-113,46,4373
1609,1.608000,68510,70124993,-112,28,4374
1610,1.609000,68511,70125993,-120,28,4370
1611,1.609999,68512,70126992,-111,44,4385
1612,1.611000,68513,70127993,-117,52,4395
1613,1.612000,68514,70128993,-125,52,4402
1614,1.612999,68515,70129992,-121,40,4392
1615,1.613999,68516,70130992,-123,44,4375
1616,1.614999,68517,70131992,-109,67,4394
1617,1.616000,68518,70132993,-103,73,4422
1618,1.616999,68519,70133992,-111,68,4413
1619,1.618000,68520,70134993,-105,48,4403
1620,1.619000,68521,70135993,-118,30,4379
1621,1.620000,68522,70136993,-111,42,4358
1622,1.621000,68523,70137993,-102,57,4353
1623,1.622000,68524,70138993,-113,59,4358
1624,1.622999,68525,70139992,-115,44,4371
1625,1.623999,68526,70140992,-104,43,4380
1626,1.624999,68527,70141992,-96,55,4378
1627,1.626000,68528,70142993,-122,44,4381
1628,1.627000,68529,70143993,-140,39,4394
1629,1.627999,68530,70144992,-140,47,4402
1630,1.628999,68531,70145992,-125,29,4387
1631,1.630000,68532,70146993,-112,20,4378
1632,1.631000,68533,70147993,-109,30,4403
1633,1.631999,68534,70148992,-101,36,4394
1634,1.633000,68535,70149993,-110,31,4375
1635,1.633999,68536,70150992,-119,20,4366
1636,1.634999,68537,70151992,-116,17,4378
1637,1.636000,68538,70152993,-145,21,4397
1638,1.637000,68539,70153993,-134,22,4372
1639,1.638000,68540,70154993,-108,33,4357
1640,1.639000,68541,70155993,-126,48,4389
1641,1.640000,68542,70156993,-135,54,4382
1642,1.641000,68543,70157993,-133,45,4362
1643,1.642000,68544,70158993,-129,33,4387
1644,1.643000,68545,70159993,-125,41,4385
1645,1.643999,68546,70160992,-110,52,4395
1646,1.645000,68547,70161993,-127,66,4406
1647,1.646000,68548,70162993,-141,64,4396
1648,1.647000,68549,70163993,-118,45,4404
1649,1.647999,68550,70164992,-102,40,4407
1650,1.649000,68551,70165993,-121,55,4385
1651,1.649999,68552,70166992,-134,71,4390
1652,1.651000,68553,70167993,-125,70,4420
1653,1.651999,68554,70168992,-118,59,4425
1654,1.653000,68555,70169993,-101,57,4412
1655,1.654000,68556,70170993,-107,46,4385
1656,1.655000,68557,70171993,-127,34,4383
1657,1.655999,68558,70172992,-109,37,4386
1658,1.656999,68559,70173992,-95,34,4382
1659,1.658000,68560,70174993,-116,26,4389
1660,1.658999,68561,70175992,-125,28,4377
1661,1.660000,68562,70176993,-113,41,4384
1662,1.661000,68563,70177993,-129,53,4395
1663,1.662000,68564,70178993,-122,42,4372
1664,1.663000,68565,70179993,-103,37,4365
1665,1.664000,68566,70180993,-118,58,4353
1666,1.664999,68567,70181992,-145,55,4368
1667,1.666000,68568,70182993,-140,49,4387
1668,1.667000,68569,70183993,-120,52,4390
1669,1.668000,68570,70184993,-129,59,4369
1670,1.669000,68571,70185993,-135,63,4386
1671,1.669999,68572,70186992,-123,44,4420
1672,1.670999,68573,70187992,-116,45,4407
1673,1.672000,68574,70188993,-118,74,4396
1674,1.672999,68575,70189992,-125,74,4399
1675,1.674000,68576,70190993,-124,58,4401
1676,1.674999,68577,70191992,-118,60,4399
1677,1.676000,68578,70192993,-114,66,4395
1678,1.676999,68579,70193992,-107,47,4387
1679,1.677999,68580,70194992,-99,33,4387
1680,1.679000,68581,70195993,-101,46,4386
1681,1.679999,68582,70196992,-116,56,4371
1682,1.681000,68583,70197993,-128,53,4370
1683,1.681999,68584,70198992,-143,48,4384
1684,1.682999,68585,70199992,-136,62,4373
1685,1.683999,68586,70200992,-124,67,4366
1686,1.685000,68587,70201993,-110,41,4393
1687,1.686000,68588,70202993,-120,31,4402
1688,1.686999,68589,70203992,-134,43,4386
1689,1.688000,68590,70204993,-128,55,4372
1690,1.689000,68591,70205993,-127,69,4355
1691,1.690000,68592,70206993,-112,52,4376
1692,1.691000,68593,70207993,-115,38,4391
1693,1.692000,68594,70208993,-120,57,4379
1694,1.693000,68595,70209993,-111,58,4386
1695,1.694000,68596,70210993,-116,35,4389
1696,1.695000,68597,70211993,-119,20,4387
1697,1.695999,68598,70212992,-122,22,4395
1698,1.697000,68599,70213993,-117,30,4388
1699,1.698000,68600,70214993,-118,45,4362
1700,1.699000,68601,70215993,-125,50,4373
1701,1.700000,68602,70216993,-107,47,4406
1702,1.701000,68603,70217993,-101,54,4384
1703,1.702000,68604,70218993,-111,62,4385
1704,1.703000,68605,70219993,-125,61,4405
1705,1.703999,68606,70220992,-135,55,4418
1706,1.705000,68607,70221993,-123,50,4391
1707,1.706000,68608,70222993,-102,38,4357
1708,1.707000,68609,70223993,-93,22,4388
1709,1.707999,68610,70224992,-95,23,4407
1710,1.709000,68611,70225993,-108,42,4398
1711,1.710000,68612,70226993,-110,40,4393
1712,1.710999,68613,70227992,-109,35,4378
1713,1.712000,68614,70228993,-131,32,4382
1714,1.713000,68615,70229993,-137,31,4400
1715,1.714000,68616,70230993,-142,53,4398
1716,1.714999,68617,70231992,-140,58,4370
1717,1.716000,68618,70232993,-124,34,4371
1718,1.717000,68619,70233993,-129,35,4410
1719,1.717999,68620,70234992,-123,49,4396
1720,1.719000,68621,70235993,-123,36,4372
1721,1.720000,68622,70236993,-143,32,4396
1722,1.721000,68623,70237993,-128,51,4418
1723,1.722000,68624,70238993,-117,67,4403
1724,1.723000,68625,70239993,-123,63,4391
1725,1.723999,68626,70240992,-114,56,4400
1726,1.725000,68627,70241993,-117,49,4402
1727,1.726000,68628,70242993,-130,35,4388
1728,1.726999,68629,70243992,-123,41,4385
1729,1.728000,68630,70244993,-125,55,4380
1730,1.729000,68631,70245993,-105,56,4369
1731,1.729999,68632,70246992,-90,55,4375
1732,1.731000,68633,70247993,-108,43,4377
1733,1.732000,68634,70248993,-115,30,4393
1734,1.733000,68635,70249993,-123,45,4402
1735,1.734000,68636,70250993,-123,45,4381
1736,1.735000,68637,70251993,-124,29,4378
1737,1.735999,68638,70252992,-125,17,4390
1738,1.736999,68639,70253992,-121,21,4390
1739,1.737999,68640,70254992,-117,62,4384
1740,1.738999,68641,70255992,-119,71,4393
1741,1.740000,68642,70256993,-127,55,4401
1742,1.740999,68643,70257992,-130,51,4399
1743,1.742000,68644,70258993,-116,51,4397
1744,1.743000,68645,70259993,-110,78,4380
1745,1.743999,68646,70260992,-123,79,4393
1746,1.745000,68647,70261993,-128,62,4412
1747,1.746000,68648,70262993,-122,54,4404
1748,1.747000,68649,70263993,-119,48,4392
1749,1.748000,68650,70264993,-138,46,4360
1750,1.749000,68651,70265993,-160,36,4366
1751,1.750000,68652,70266993,-151,47,4376
1752,1.751000,68653,70267993,-121,52,4359
1753,1.751999,68654,70268992,-117,42,4383
1754,1.753000,68655,70269993,-126,24,4402
1755,1.753999,68656,70270992,-111,11,4392
1756,1.754999,68657,70271992,-119,24,4392
1757,1.755999,68658,70272992,-126,38,4382
1758,1.757000,68659,70273993,-107,58,4386
1759,1.758000,68660,70274993,-118,67,4392
1760,1.759000,68661,70275993,-119,39,4406
1761,1.760000,68662,70276993,-106,24,4423
1762,1.761000,68663,70277993,-116,35,4402
1763,1.762000,68664,70278993,-114,45,4391
1764,1.763000,68665,70279993,-97,49,4388
1765,1.764000,68666,70280993,-97,57,4374
1766,1.765000,68667,70281993,-116,62,4384
1767,1.765999,68668,70282992,-127,59,4375
1768,1.767000,68669,70283993,-129,55,4376
1769,1.768000,68670,70284993,-118,47,4402
1770,1.769000,68671,70285993,-114,45,4406
1771,1.769999,68672,70286992,-111,56,4414
1772,1.770999,68673,70287992,-122,62,4415
1773,1.772000,68674,70288993,-129,45,4412
1774,1.772999,68675,70289992,-120,38,4402
1775,1.774000,68676,70290993,-130,67,4388
1776,1.775000,68677,70291993,-135,56,4374
1777,1.776000,68678,70292993,-128,31,4356
1778,1.776999,68679,70293992,-138,34,4359
1779,1.778000,68680,70294993,-136,45,4374
1780,1.779000,68681,70295993,-116,50,4374
1781,1.780000,68682,70296993,-108,60,4395
1782,1.781000,68683,70297993,-104,66,4418
1783,1.782000,68684,70298993,-109,39,4419
1784,1.783000,68685,70299993,-99,43,4395
1785,1.784000,68686,70300993,-90,49,4358
1786,1.784999,68687,70301992,-107,44,4366
1787,1.786000,68688,70302993,-123,44,4388
1788,1.787000,68689,70303993,-126,29,4384
1789,1.788000,68690,70304993,-138,39,4380
1790,1.789000,68691,70305993,-134,58,4415
1791,1.789999,68692,70306992,-138,51,4404
1792,1.791000,68693,70307993,-150,40,4361
1793,1.791999,68694,70308992,-124,38,4384
1794,1.793000,68695,70309993,-104,39,4391
1795,1.794000,68696,70310993,-119,49,4377
1796,1.794999,68697,70311992,-137,50,4396
1797,1.796000,68698,70312993,-123,40,4392
1798,1.797000,68699,70313993,-109,45,4415
1799,1.798000,68700,70314993,-117,44,4453
1800,1.799000,68701,70315993,-110,29,4409
1801,1.799999,68702,70316992,-104,21,4380
1802,1.801000,68703,70317993,-115,14,4371
1803,1.802000,68704,70318993,-120,30,4375
1804,1.803000,68705,70319993,-119,46,4377
1805,1.804000,68706,70320993,-131,43,4369
1806,1.805000,68707,70321993,-126,47,4378
1807,1.806000,68708,70322993,-120,40,4382
1808,1.807000,68709,70323993,-139,54,4373
1809,1.808000,68710,70324993,-140,67,4382
1810,1.808999,68711,70325992,-128,54,4373
1811,1.810000,68712,70326993,-122,50,4337
1812,1.811000,68713,70327993,-108,57,4371
1813,1.812000,68714,70328993,-96,44,4393
1814,1.812999,68715,70329992,-97,38,4389
1815,1.814000,68716,70330993,-103,49,4385
1816,1.815000,68717,70331993,-120,61,4374
1817,1.816000,68718,70332993,-128,63,4393
1818,1.817000,68719,70333993,-126,37,4386
1819,1.818000,68720,70334993,-130,37,4389
1820,1.819000,68721,70335993,-119,39,4414
1821,1.820000,68722,70336993,-110,33,4401
1822,1.820999,68723,70337992,-136,43,4363
1823,1.822000,68724,70338993,-144,45,4356
1824,1.822999,68725,70339992,-123,40,4384
1825,1.824000,68726,70340993,-117,39,4385
1826,1.825000,68727,70341993,-126,38,4381
1827,1.826000,68728,70342993,-136,54,4411
1828,1.826999,68729,70343992,-121,62,4418
1829,1.828000,68730,70344993,-120,55,4387
1830,1.828999,68731,70345992,-120,44,4394
1831,1.829999,68732,70346992,-108,34,4402
1832,1.830999,68733,70347992,-129,47,4388
1833,1.832000,68734,70348993,-132,48,4364
1834,1.833000,68735,70349993,-98,21,4353
1835,1.834000,68736,70350993,-107,15,4399
1836,1.834999,68737,70351992,-118,37,4422
1837,1.836000,68738,70352993,-109,44,4391
1838,1.837000,68739,70353993,-114,47,4391
1839,1.838000,68740,70354993,-97,37,4384
1840,1.839000,68741,70355993,-88,38,4371
1841,1.839999,68742,70356992,-98,43,4374
1842,1.841000,68743,70357993,-113,34,4371
1843,1.842000,68744,70358993,-125,52,4385
1844,1.843000,68745,70359993,-139,55,4396
1845,1.843999,68746,70360992,-140,48,4421
1846,1.845000,68747,70361993,-122,67,4426
1847,1.846000,68748,70362993,-104,79,4398
1848,1.846999,68749,70363992,-115,58,4379
1849,1.848000,68750,70364993,-130,43,4383
1850,1.849000,68751,70365993,-119,39,4378
1851,1.849999,68752,70366992,-116,49,4380
1852,1.851000,68753,70367993,-110,77,4410
1853,1.851999,68754,70368992,-91,71,4395
1854,1.853000,68755,70369993,-95,42,4393
1855,1.853999,68756,70370992,-118,48,4406
1856,1.855000,68757,70371993,-151,57,4392
1857,1.856000,68758,70372993,-145,28,4406
1858,1.857000,68759,70373993,-116,29,4405
1859,1.858000,68760,70374993,-113,56,4378
1860,1.859000,68761,70375993,-130,65,4372
1861,1.860000,68762,70376993,-128,60,4364
1862,1.861000,68763,70377993,-108,49,4385
1863,1.862000,68764,70378993,-133,47,4389
1864,1.863000,68765,70379993,-146,48,4369
1865,1.864000,68766,70380993,-118,51,4370
1866,1.865000,68767,70381993,-97,53,4371
1867,1.866000,68768,70382993,-105,48,4365
1868,1.867000,68769,70383993,-114,34,4375
1869,1.868000,68770,70384993,-123,40,4395
1870,1.869000,68771,70385993,-126,55,4373
1871,1.870000,68772,70386993,-123,33,4374
1872,1.870999,68773,70387992,-138,33,4364
1873,1.872000,68774,70388993,-132,65,4354
1874,1.872999,68775,70389992,-127,70,4392
1875,1.873999,68776,70390992,-121,49,4386
1876,1.875000,68777,70391993,-94,33,4362
1877,1.876000,68778,70392993,-113,30,4369
1878,1.877000,68779,70393993,-129,31,4396
1879,1.878000,68780,70394993,-114,35,4408
1880,1.878999,68781,70395992,-110,53,4403
1881,1.880000,68782,70396993,-121,51,4397
1882,1.880999,68783,70397992,-119,35,4377
1883,1.882000,68784,70398993,-118,38,4383
1884,1.883000,68785,70399993,-128,47,4385
1885,1.884000,68786,70400993,-115,50,4366
1886,1.884999,68787,70401992,-113,46,4374
1887,1.885999,68788,70402992,-112,25,4404
1888,1.887000,68789,70403993,-107,25,4402
1889,1.888000,68790,70404993,-112,42,4388
1890,1.889000,68791,70405993,-110,55,4398
1891,1.890000,68792,70406993,-97,61,4403
1892,1.891000,68793,70407993,-106,56,4395
1893,1.892000,68794,70408993,-113,53,4358
1894,1.893000,68795,70409993,-111,50,4364
1895,1.894000,68796,70410993,-113,56,4379
1896,1.895000,68797,70411993,-113,50,4364
1897,1.895999,68798,70412992,-115,43,4378
1898,1.897000,68799,70413993,-113,37,4397
1899,1.897999,68800,70414992,-122,23,4380
1900,1.899000,68801,70415993,-119,25,4383
1901,1.900000,68802,70416993,-113,41,4414
1902,1.901000,68803,70417993,-124,46,4385
1903,1.901999,68804,70418992,-141,44,4388
1904,1.903000,68805,70419993,-141,37,4404
1905,1.904000,68806,70420993,-139,26,4388
1906,1.904999,68807,70421992,-146,51,4407
1907,1.905999,68808,70422992,-139,68,4409
1908,1.907000,68809,70423993,-128,54,4385
1909,1.908000,68810,70424993,-119,43,4382
1910,1.909000,68811,70425993,-114,45,4384
1911,1.910000,68812,70426993,-117,52,4398
1912,1.911000,68813,70427993,-127,47,4405
1913,1.912000,68814,70428993,-125,36,4374
1914,1.913000,68815,70429993,-112,32,4379
1915,1.913999,68816,70430992,-106,34,4391
1916,1.915000,68817,70431993,-120,54,4413
1917,1.916000,68818,70432993,-117,77,4417
1918,1.917000,68819,70433993,-116,56,4384
1919,1.918000,68820,70434993,-124,27,4395
1920,1.919000,68821,70435993,-120,27,4396
1921,1.920000,68822,70436993,-118,36,4387
1922,1.921000,68823,70437993,-125,42,4369
1923,1.922000,68824,70438993,-144,52,4358
1924,1.922999,68825,70439992,-126,54,4369
1925,1.924000,68826,70440993,-93,46,4359
1926,1.925000,68827,70441993,-111,51,4370
1927,1.926000,68828,70442993,-118,63,4394
1928,1.927000,68829,70443993,-112,66,4398
1929,1.928000,68830,70444993,-126,63,4389
1930,1.929000,68831,70445993,-101,59,4366
1931,1.930000,68832,70446993,-100,65,4384
1932,1.931000,68833,70447993,-114,61,4398
1933,1.932000,68834,70448993,-98,49,4380
1934,1.933000,68835,70449993,-92,43,4378
1935,1.933999,68836,70450992,-120,41,4377
1936,1.935000,68837,70451993,-126,35,4391
1937,1.936000,68838,70452993,-108,42,4406
1938,1.937000,68839,70453993,-102,59,4399
1939,1.937999,68840,70454992,-104,62,4402
1940,1.939000,68841,70455993,-133,49,4414
1941,1.940000,68842,70456993,-131,28,4409
1942,1.940999,68843,70457992,-110,33,4384
1943,1.942000,68844,70458993,-119,46,4349
1944,1.943000,68845,70459993,-120,41,4356
1945,1.943999,68846,70460992,-111,26,4393
1946,1.944999,68847,70461992,-101,28,4407
1947,1.946000,68848,70462993,-100,49,4394
1948,1.947000,68849,70463993,-114,54,4378
1949,1.948000,68850,70464993,-125,56,4381
1950,1.948999,68851,70465992,-112,67,4381
1951,1.950000,68852,70466993,-97,48,4381
1952,1.951000,68853,70467993,-114,30,4396
1953,1.952000,68854,70468993,-123,40,4401
1954,1.953000,68855,70469993,-132,33,4392
1955,1.953999,68856,70470992,-146,40,4385
1956,1.955000,68857,70471993,-144,52,4385
1957,1.955999,68858,70472992,-123,44,4391
1958,1.957000,68859,70473993,-126,44,4393
1959,1.958000,68860,70474993,-131,46,4408
1960,1.959000,68861,70475993,-122,52,4413
1961,1.959999,68862,70476992,-126,45,4400
1962,1.961000,68863,70477993,-115,35,4369
1963,1.962000,68864,70478993,-109,52,4344
1964,1.963000,68865,70479993,-114,51,4349
1965,1.964000,68866,70480993,-128,48,4369
1966,1.965000,68867,70481993,-135,57,4390
1967,1.966000,68868,70482993,-126,61,4369
1968,1.966999,68869,70483992,-122,62,4350
1969,1.968000,68870,70484993,-132,52,4377
1970,1.968999,68871,70485992,-136,51,4396
1971,1.970000,68872,70486993,-132,50,4402
1972,1.970999,68873,70487992,-137,56,4396
1973,1.972000,68874,70488993,-135,64,4386
1974,1.972999,68875,70489992,-126,50,4377
1975,1.974000,68876,70490993,-120,39,4359
1976,1.975000,68877,70491993,-118,51,4373
1977,1.975999,68878,70492992,-125,46,4384
1978,1.977000,68879,70493993,-136,34,4365
1979,1.977999,68880,70494992,-137,37,4371
1980,1.979000,68881,70495993,-143,41,4410
1981,1.979999,68882,70496992,-136,21,4391
1982,1.980999,68883,70497992,-127,13,4371
1983,1.981999,68884,70498992,-137,36,4384
1984,1.982999,68885,70499992,-136,60,4362
1985,1.984000,68886,70500993,-116,56,4364
1986,1.984999,68887,70501992,-93,57,4377
1987,1.986000,68888,70502993,-109,66,4385
1988,1.987000,68889,70503993,-137,47,4369
1989,1.988000,68890,70504993,-150,47,4366
1990,1.989000,68891,70505993,-155,53,4391
1991,1.989999,68892,70506992,-142,59,4380
1992,1.991000,68893,70507993,-125,63,4385
1993,1.992000,68894,70508993,-125,51,4384
1994,1.992999,68895,70509992,-126,37,4397
1995,1.994000,68896,70510993,-126,48,4413
1996,1.995000,68897,70511993,-129,42,4382
1997,1.996000,68898,70512993,-129,25,4349
1998,1.997000,68899,70513993,-119,34,4367
1999,1.998000,68900,70514993,-130,48,4385
2000,1.999000,68901,70515993,-140,47,4387
2001,2.000000,68902,70516993,-132,31,4390
2002,2.001000,68903,70517993,-125,30,4382
2003,2.002000,68904,70518993,-126,37,4392
2004,2.003000,68905,70519993,-120,37,4386
2005,2.004000,68906,70520993,-108,33,4391
2006,2.005000,68907,70521993,-108,34,4415
2007,2.005999,68908,70522992,-108,47,4411
2008,2.007000,68909,70523993,-105,45,4399
2009,2.008000,68910,70524993,-112,30,4412
2010,2.008999,68911,70525992,-117,41,4415
2011,2.010000,68912,70526993,-113,75,4397
2012,2.011000,68913,70527993,-137,84,4378
2013,2.012000,68914,70528993,-133,63,4383
2014,2.013000,68915,70529993,-115,43,4375
2015,2.014000,68916,70530993,-114,39,4366
2016,2.015000,68917,70531993,-116,46,4383
2017,2.015999,68918,70532992,-122,50,4381
2018,2.016999,68919,70533992,-135,50,4376
2019,2.017999,68920,70534992,-130,64,4386
2020,2.019000,68921,70535993,-121,58,4402
2021,2.020000,68922,70536993,-122,38,4406
2022,2.021000,68923,70537993,-122,44,4388
2023,2.022000,68924,70538993,-118,51,4371
2024,2.023000,68925,70539993,-108,49,4374
2025,2.024000,68926,70540993,-108,59,4389
2026,2.025000,68927,70541993,-121,49,4387
2027,2.025999,68928,70542992,-107,25,4389
2028,2.027000,68929,70543993,-94,31,4378
2029,2.028000,68930,70544993,-116,34,4352
2030,2.029000,68931,70545993,-138,43,4361
2031,2.030000,68932,70546993,-146,51,4362
2032,2.030999,68933,70547992,-141,50,4377
2033,2.032000,68934,70548993,-144,50,4387
2034,2.033000,68935,70549993,-133,45,4347
2035,2.034000,68936,70550993,-123,40,4346
2036,2.035000,68937,70551993,-128,33,4361
2037,2.036000,68938,70552993,-115,39,4372
2038,2.036999,68939,70553992,-132,36,4392
2039,2.038000,68940,70554993,-155,49,4403
2040,2.038999,68941,70555992,-125,54,4409
2041,2.039999,68942,70556992,-113,41,4392
2042,2.041000,68943,70557993,-141,41,4380
2043,2.041999,68944,70558992,-137,34,4401
2044,2.043000,68945,70559993,-137,41,4378
2045,2.044000,68946,70560993,-139,47,4335
2046,2.044999,68947,70561992,-133,36,4337
2047,2.045999,68948,70562992,-124,45,4368
2048,2.047000,68949,70563993,-105,66,4398
2049,2.048000,68950,70564993,-113,46,4404
2050,2.049000,68951,70565993,-120,37,4417
2051,2.050000,68952,70566993,-148,49,4402
2052,2.051000,68953,70567993,-159,59,4402
2053,2.051999,68954,70568992,-140,58,4392
2054,2.053000,68955,70569993,-124,39,4385
2055,2.054000,68956,70570993,-131,37,4388
2056,2.054999,68957,70571992,-134,32,4346
2057,2.056000,68958,70572993,-129,31,4335
2058,2.057000,68959,70573993,-134,47,4368
2059,2.057999,68960,70574992,-118,38,4391
2060,2.058999,68961,70575992,-95,34,4386
2061,2.060000,68962,70576993,-109,47,4370
2062,2.060999,68963,70577992,-139,39,4360
2063,2.061999,68964,70578992,-148,39,4359
2064,2.063000,68965,70579993,-122,36,4376
2065,2.064000,68966,70580993,-105,32,4389
2066,2.064999,68967,70581992,-114,61,4364
2067,2.066000,68968,70582993,-130,54,4358
2068,2.067005,68969,70583998,-112,38,4373
2069,2.068000,68970,70584993,-104,53,4383
2070,2.068999,68971,70585992,-141,46,4371
2071,2.070000,68972,70586993,-130,32,4355
2072,2.071000,68973,70587993,-110,33,4371
2073,2.071999,68974,70588992,-112,55,4392
2074,2.073000,68975,70589993,-116,67,4411
2075,2.073999,68976,70590992,-127,56,4413
2076,2.074999,68977,70591992,-136,46,4408
2077,2.076000,68978,70592993,-142,35,4402
2078,2.076999,68979,70593992,-142,32,4387
2079,2.078000,68980,70594993,-134,33,4380
2080,2.078999,68981,70595992,-129,47,4364
2081,2.080000,68982,70596993,-121,43,4371
2082,2.081000,68983,70597993,-134,13,4375
2083,2.082000,68984,70598993,-134,21,4351
2084,2.083000,68985,70599993,-103,45,4379
2085,2.084000,68986,70600993,-96,39,4398
2086,2.084999,68987,70601992,-112,30,4372
2087,2.086000,68988,70602993,-121,48,4367
2088,2.086999,68989,70603992,-123,52,4383
2089,2.088000,68990,70604993,-131,46,4392
2090,2.088999,68991,70605992,-134,40,4380
2091,2.090000,68992,70606993,-131,51,4385
2092,2.090999,68993,70607992,-127,74,4373
2093,2.092000,68994,70608993,-135,58,4375
2094,2.093000,68995,70609993,-137,42,4419
2095,2.094000,68996,70610993,-124,50,4416
2096,2.094999,68997,70611992,-108,50,4365
2097,2.096000,68998,70612993,-106,47,4362
2098,2.097000,68999,70613993,-112,44,4412
2099,2.098000,69000,70614993,-128,37,4418
2100,2.099000,69001,70615993,-126,38,4401
2101,2.099999,69002,70616992,-111,46,4387
2102,2.101000,69003,70617993,-115,48,4347
2103,2.102000,69004,70618993,-118,50,4342
2104,2.102999,69005,70619992,-111,44,4380
2105,2.103999,69006,70620992,-110,50,4381
2106,2.105000,69007,70621993,-133,64,4367
2107,2.106000,69008,70622993,-136,48,4382
2108,2.106999,69009,70623992,-130,45,4384
2109,2.107999,69010,70624992,-129,61,4378
2110,2.109000,69011,70625993,-131,60,4396
2111,2.110000,69012,70626993,-143,52,4392
2112,2.110999,69013,70627992,-135,43,4369
2113,2.112000,69014,70628993,-120,42,4368
2114,2.113000,69015,70629993,-122,48,4394
2115,2.113999,69016,70630992,-124,40,4413
2116,2.115000,69017,70631993,-119,45,4419
2117,2.116000,69018,70632993,-112,45,4414
2118,2.117000,69019,70633993,-110,40,4421
2119,2.118000,69020,70634993,-102,38,4410
2120,2.118999,69021,70635992,-114,33,4368
2121,2.119999,69022,70636992,-144,20,4392
2122,2.120999,69023,70637992,-138,21,4410
2123,2.122000,69024,70638993,-132,30,4383
2124,2.122999,69025,70639992,-134,36,4393
2125,2.124000,69026,70640993,-137,24,4403
2126,2.125000,69027,70641993,-141,20,4404
2127,2.125999,69028,70642992,-127,27,4388
2128,2.126999,69029,70643992,-128,20,4360
2129,2.127999,69030,70644992,-128,25,4373
2130,2.128999,69031,70645992,-149,31,4391
2131,2.130000,69032,70646993,-153,47,4405
2132,2.130999,69033,70647992,-131,47,4394
2133,2.132000,69034,70648993,-129,46,4365
2134,2.133000,69035,70649993,-131,64,4370
2135,2.133999,69036,70650992,-113,60,4402
2136,2.135000,69037,70651993,-103,56,4390
2137,2.135999,69038,70652992,-137,43,4373
2138,2.136999,69039,70653992,-137,32,4379
2139,2.138000,69040,70654993,-128,50,4390
2140,2.139000,69041,70655993,-132,62,4375
2141,2.139999,69042,70656992,-128,60,4352
2142,2.141000,69043,70657993,-127,57,4369
2143,2.141999,69044,70658992,-119,50,4375
2144,2.142999,69045,70659992,-129,46,4363
2145,2.143999,69046,70660992,-137,50,4364
2146,2.145000,69047,70661993,-132,41,4379
2147,2.145999,69048,70662992,-137,40,4364
2148,2.147000,69049,70663993,-124,50,4379
2149,2.148000,69050,70664993,-108,48,4391
2150,2.149000,69051,70665993,-125,50,4388
2151,2.150000,69052,70666993,-127,49,4398
2152,2.151000,69053,70667993,-121,45,4392
2153,2.151999,69054,70668992,-133,47,4407
2154,2.152999,69055,70669992,-125,59,4400
2155,2.154000,69056,70670993,-124,61,4363
2156,2.155000,69057,70671993,-139,40,4354
2157,2.155999,69058,70672992,-134,30,4371
2158,2.156999,69059,70673992,-115,29,4382
2159,2.158000,69060,70674993,-115,29,4398
2160,2.158999,69061,70675992,-133,35,4394
2161,2.159999,69062,70676992,-115,40,4363
2162,2.161000,69063,70677993,-107,39,4390
2163,2.162000,69064,70678993,-146,38,4389
2164,2.162999,69065,70679992,-129,42,4364
2165,2.164000,69066,70680993,-101,53,4373
2166,2.164999,69067,70681992,-128,49,4369
2167,2.165999,69068,70682992,-119,40,4359
2168,2.166999,69069,70683992,-95,51,4379
2169,2.168000,69070,70684993,-125,60,4408
2170,2.168999,69071,70685992,-110,42,4406
2171,2.169999,69072,70686992,-73,49,4381
2172,2.170999,69073,70687992,-92,60,4359
2173,2.172000,69074,70688993,-101,46,4376
2174,2.172999,69075,70689992,-113,58,4408
2175,2.174000,69076,70690993,-125,59,4406
2176,2.175000,69077,70691993,-124,33,4385
2177,2.176000,69078,70692993,-132,39,4396
2178,2.177000,69079,70693993,-117,55,4396
2179,2.177999,69080,70694992,-125,46,4368
2180,2.178999,69081,70695992,-150,45,4376
2181,2.180000,69082,70696993,-131,56,4394
2182,2.181000,69083,70697993,-128,46,4385
2183,2.182000,69084,70698993,-140,32,4385
2184,2.183000,69085,70699993,-137,40,4394
2185,2.184000,69086,70700993,-147,50,4410
2186,2.184999,69087,70701992,-141,48,4394
2187,2.185999,69088,70702992,-128,35,4386
2188,2.187000,69089,70703993,-129,26,4381
2189,2.188000,69090,70704993,-134,42,4364
2190,2.189000,69091,70705993,-133,32,4382
2191,2.190000,69092,70706993,-144,42,4404
2192,2.191000,69093,70707993,-136,48,4418
2193,2.192000,69094,70708993,-117,33,4420
2194,2.193000,69095,70709993,-125,48,4398
2195,2.194000,69096,70710993,-127,35,4393
2196,2.195000,69097,70711993,-133,35,4401
2197,2.195999,69098,70712992,-126,40,4383
2198,2.196999,69099,70713992,-131,41,4378
2199,2.198000,69100,70714993,-130,51,4411
2200,2.199000,69101,70715993,-124,52,4372
2201,2.199999,69102,70716992,-126,54,4366
2202,2.200999,69103,70717992,-107,30,4389
2203,2.201999,69104,70718992,-93,15,4370
2204,2.203000,69105,70719993,-92,51,4363
2205,2.203999,69106,70720992,-99,55,4358
2206,2.205000,69107,70721993,-109,35,4359
2207,2.206000,69108,70722993,-98,49,4344
2208,2.207000,69109,70723993,-91,60,4353
2209,2.208000,69110,70724993,-108,60,4361
2210,2.208999,69111,70725992,-126,54,4398
2211,2.210000,69112,70726993,-123,56,4402
2212,2.211000,69113,70727993,-107,45,4376
2213,2.212000,69114,70728993,-101,36,4393
2214,2.212999,69115,70729992,-103,51,4390
2215,2.213999,69116,70730992,-113,48,4372
2216,2.215000,69117,70731993,-118,50,4382
2217,2.215999,69118,70732992,-122,47,4380
2218,2.217000,69119,70733993,-117,34,4360
2219,2.217999,69120,70734992,-133,46,4369
2220,2.218999,69121,70735992,-153,50,4394
2221,2.220000,69122,70736993,-126,36,4385
2222,2.221000,69123,70737993,-102,45,4372
2223,2.222000,69124,70738993,-120,39,4374
2224,2.223000,69125,70739993,-134,45,4372
2225,2.223999,69126,70740992,-117,61,4373
2226,2.224999,69127,70741992,-116,40,4394
2227,2.225999,69128,70742992,-115,32,4410
2228,2.226999,69129,70743992,-100,44,4394
2229,2.228000,69130,70744993,-102,49,4380
2230,2.229000,69131,70745993,-116,49,4372
2231,2.229999,69132,70746992,-117,45,4378
2232,2.231000,69133,70747993,-120,32,4391
2233,2.231999,69134,70748992,-133,37,4391
2234,2.233000,69135,70749993,-138,39,4409
2235,2.234000,69136,70750993,-140,47,4399
2236,2.234999,69137,70751992,-112,52,4357
2237,2.236000,69138,70752993,-110,33,4382
2238,2.237000,69139,70753993,-134,32,4401
2239,2.238000,69140,70754993,-136,47,4374
2240,2.238999,69141,70755992,-129,48,4390
2241,2.240000,69142,70756993,-110,43,4387
2242,2.241000,69143,70757993,-110,27,4377
2243,2.241999,69144,70758992,-138,33,4379
2244,2.243000,69145,70759993,-126,58,4379
2245,2.244000,69146,70760993,-99,43,4371
2246,2.245000,69147,70761993,-113,34,4370
2247,2.246000,69148,70762993,-123,33,4400
2248,2.247000,69149,70763993,-120,45,4400
2249,2.248000,69150,70764993,-125,60,4377
2250,2.249000,69151,70765993,-112,57,4364
2251,2.250000,69152,70766993,-97,58,4359
2252,2.251000,69153,70767993,-114,68,4351
2253,2.252000,69154,70768993,-117,50,4379
2254,2.253000,69155,70769993,-116,23,4394
2255,2.254000,69156,70770993,-121,24,4377
2256,2.255000,69157,70771993,-117,20,4398
2257,2.256000,69158,70772993,-122,32,4411
2258,2.257000,69159,70773993,-129,53,4399
2259,2.257999,69160,70774992,-114,28,4402
2260,2.259000,69161,70775993,-119,32,4384
2261,2.260000,69162,70776993,-133,75,4353
2262,2.261000,69163,70777993,-122,67,4371
2263,2.262000,69164,70778993,-115,55,4395
2264,2.262999,69165,70779992,-127,45,4389
2265,2.264000,69166,70780993,-149,36,4383
2266,2.264999,69167,70781992,-127,37,4389
2267,2.266000,69168,70782993,-94,38,4388
2268,2.266999,69169,70783992,-110,55,4374
2269,2.268000,69170,70784993,-116,57,4382
2270,2.269000,69171,70785993,-110,34,4401
2271,2.270000,69172,70786993,-116,38,4385
2272,2.271000,69173,70787993,-122,47,4383
2273,2.271999,69174,70788992,-118,40,4403
2274,2.273000,69175,70789993,-117,36,4392
2275,2.274000,69176,70790993,-119,33,4359
2276,2.274999,69177,70791992,-114,22,4371
2277,2.276000,69178,70792993,-123,22,4385
2278,2.277000,69179,70793993,-116,43,4389
2279,2.277999,69180,70794992,-97,50,4414
2280,2.278999,69181,70795992,-122,49,4401
2281,2.280000,69182,70796993,-132,53,4370
2282,2.281000,69183,70797993,-110,51,4359
2283,2.281999,69184,70798992,-106,56,4376
2284,2.283000,69185,70799993,-112,54,4386
2285,2.284000,69186,70800993,-128,45,4395
2286,2.284999,69187,70801992,-134,39,4379
2287,2.286000,69188,70802993,-134,39,4370
2288,2.286999,69189,70803992,-126,41,4383
2289,2.288000,69190,70804993,-119,38,4384
2290,2.289000,69191,70805993,-125,34,4394
2291,2.290000,69192,70806993,-115,33,4386
2292,2.291000,69193,70807993,-98,33,4391
2293,2.292000,69194,70808993,-122,16,4372
2294,2.293000,69195,70809993,-130,34,4339
2295,2.294000,69196,70810993,-119,52,4352
2296,2.295000,69197,70811993,-141,36,4355
2297,2.296000,69198,70812993,-134,42,4364
2298,2.296999,69199,70813992,-124,53,4384
2299,2.298000,69200,70814993,-133,52,4388
2300,2.299000,69201,70815993,-130,51,4394
2301,2.299999,69202,70816992,-119,43,4380
2302,2.301000,69203,70817993,-109,33,4381
2303,2.302000,69204,70818993,-110,34,4421
2304,2.303000,69205,70819993,-106,46,4427
2305,2.304000,69206,70820993,-107,45,4391
2306,2.304999,69207,70821992,-110,38,4380
2307,2.305999,69208,70822992,-104,35,4401
2308,2.306999,69209,70823992,-121,24,4400
2309,2.307999,69210,70824992,-126,35,4371
2310,2.309000,69211,70825993,-110,64,4350
2311,2.310000,69212,70826993,-102,65,4363
2312,2.311000,69213,70827993,-116,48,4393
2313,2.312000,69214,70828993,-121,35,4392
2314,2.313000,69215,70829993,-95,25,4388
2315,2.313999,69216,70830992,-105,36,4396
2316,2.315000,69217,70831993,-129,70,4397
2317,2.315999,69218,70832992,-121,68,4406
2318,2.317000,69219,70833993,-120,52,4398
2319,2.318000,69220,70834993,-132,45,4377
2320,2.319000,69221,70835993,-132,38,4361
2321,2.320000,69222,70836993,-128,41,4340
2322,2.321000,69223,70837993,-126,38,4360
2323,2.322000,69224,70838993,-119,23,4384
2324,2.323000,69225,70839993,-100,15,4362
2325,2.324000,69226,70840993,-105,21,4370
2326,2.325000,69227,70841993,-109,25,4380
2327,2.326000,69228,70842993,-107,39,4383
2328,2.327000,69229,70843993,-117,47,4381
2329,2.327999,69230,70844992,-130,45,4355
2330,2.328999,69231,70845992,-125,47,4371
2331,2.330000,69232,70846993,-106,47,4395
2332,2.330999,69233,70847992,-115,33,4393
2333,2.332000,69234,70848993,-134,37,4374
2334,2.333000,69235,70849993,-125,46,4370
2335,2.333999,69236,70850992,-118,54,4401
2336,2.335000,69237,70851993,-137,43,4401
2337,2.336000,69238,70852993,-131,33,4376
2338,2.337000,69239,70853993,-135,42,4377
2339,2.338000,69240,70854993,-137,44,4397
2340,2.339000,69241,70855993,-126,49,4402
2341,2.340000,69242,70856993,-133,53,4369
2342,2.341000,69243,70857993,-135,60,4362
2343,2.342000,69244,70858993,-119,59,4365
2344,2.342999,69245,70859992,-115,45,4360
2345,2.344000,69246,70860993,-116,54,4385
2346,2.345000,69247,70861993,-109,60,4398
2347,2.345999,69248,70862992,-113,44,4376
2348,2.347000,69249,70863993,-118,42,4383
2349,2.348000,69250,70864993,-123,41,4393
2350,2.349000,69251,70865993,-131,54,4387
2351,2.350000,69252,70866993,-127,61,4379
2352,2.350999,69253,70867992,-112,47,4379
2353,2.351999,69254,70868992,-109,52,4386
2354,2.352999,69255,70869992,-106,51,4386
2355,2.354000,69256,70870993,-96,25,4393
2356,2.355000,69257,70871993,-124,20,4373
2357,2.356000,69258,70872993,-157,23,4389
2358,2.356999,69259,70873992,-138,22,4419
2359,2.358000,69260,70874993,-99,31,4389
2360,2.359000,69261,70875993,-105,39,4374
2361,2.360000,69262,70876993,-126,52,4384
2362,2.360999,69263,70877992,-122,57,4381
2363,2.361999,69264,70878992,-127,31,4372
2364,2.363000,69265,70879993,-118,17,4368
2365,2.364000,69266,70880993,-107,29,4369
2366,2.365000,69267,70881993,-106,37,4354
2367,2.366000,69268,70882993,-102,36,4381
2368,2.367000,69269,70883993,-113,40,4382
2369,2.368000,69270,70884993,-136,39,4355
2370,2.368999,69271,70885992,-120,46,4364
2371,2.369999,69272,70886992,-104,53,4373
2372,2.371000,69273,70887993,-121,52,4380
2373,2.372000,69274,70888993,-124,61,4401
2374,2.373000,69275,70889993,-109,54,4411
2375,2.374000,69276,70890993,-132,42,4400
2376,2.375000,69277,70891993,-148,58,4379
2377,2.376000,69278,70892993,-122,60,4391
2378,2.376999,69279,70893992,-135,55,4429
2379,2.378000,69280,70894993,-151,58,4421
2380,2.379000,69281,70895993,-136,51,4394
2381,2.380000,69282,70896993,-127,53,4393
2382,2.380999,69283,70897992,-145,62,4388
2383,2.382000,69284,70898993,-160,62,4408
2384,2.383000,69285,70899993,-135,57,4410
2385,2.384000,69286,70900993,-125,57,4398
2386,2.385000,69287,70901993,-123,42,4395
2387,2.386000,69288,70902993,-130,34,4381
2388,2.386999,69289,70903992,-143,39,4373
2389,2.387999,69290,70904992,-138,36,4377
2390,2.389000,69291,70905993,-130,28,4423
2391,2.389999,69292,70906992,-108,51,4423
2392,2.391000,69293,70907993,-130,59,4384
2393,2.392000,69294,70908993,-151,43,4384
2394,2.393000,69295,70909993,-133,45,4400
2395,2.393999,69296,70910992,-119,53,4387
2396,2.395000,69297,70911993,-130,53,4373
2397,2.396000,69298,70912993,-135,36,4374
2398,2.397000,69299,70913993,-106,53,4372
2399,2.398000,69300,70914993,-106,64,4367
2400,2.399000,69301,70915993,-111,56,4352
2401,2.400000,69302,70916993,-95,60,4341
2402,2.401000,69303,70917993,-115,42,4355
2403,2.401999,69304,70918992,-129,55,4382
2404,2.403000,69305,70919993,-103,64,4360
2405,2.404000,69306,70920993,-100,42,4349
2406,2.405000,69307,70921993,-107,47,4374
2407,2.405999,69308,70922992,-126,54,4375
2408,2.406999,69309,70923992,-149,51,4361
2409,2.408000,69310,70924993,-125,43,4347
2410,2.409000,69311,70925993,-116,39,4366
2411,2.410000,69312,70926993,-133,47,4393
2412,2.411000,69313,70927993,-114,48,4412
2413,2.411999,69314,70928992,-108,48,4393
2414,2.413000,69315,70929993,-136,53,4365
2415,2.413999,69316,70930992,-143,46,4380
2416,2.415000,69317,70931993,-127,57,4380
2417,2.416000,69318,70932993,-122,58,4368
2418,2.416999,69319,70933992,-129,51,4380
2419,2.417999,69320,70934992,-107,50,4383
2420,2.418999,69321,70935992,-99,46,4391
2421,2.419999,69322,70936992,-128,52,4400
2422,2.420999,69323,70937992,-133,55,4385
2423,2.422000,69324,70938993,-120,63,4382
2424,2.422999,69325,70939992,-136,54,4381
2425,2.423999,69326,70940992,-132,48,4370
2426,2.425000,69327,70941993,-111,53,4359
2427,2.426000,69328,70942993,-123,48,4363
2428,2.426999,69329,70943992,-138,53,4397
2429,2.428000,69330,70944993,-130,63,4413
2430,2.429000,69331,70945993,-116,58,4383
2431,2.430000,69332,70946993,-124,60,4367
2432,2.430999,69333,70947992,-111,59,4396
2433,2.431999,69334,70948992,-106,45,4408
2434,2.433000,69335,70949993,-129,43,4407
2435,2.434000,69336,70950993,-123,39,4391
2436,2.435000,69337,70951993,-115,56,4384
2437,2.436000,69338,70952993,-111,52,4381
2438,2.437000,69339,70953993,-116,35,4397
2439,2.437999,69340,70954992,-112,40,4406
2440,2.439000,69341,70955993,-94,36,4387
2441,2.439999,69342,70956992,-117,49,4392
2442,2.440999,69343,70957992,-130,59,4381
2443,2.441999,69344,70958992,-122,53,4401
2444,2.443000,69345,70959993,-133,51,4392
2445,2.444000,69346,70960993,-131,40,4350
2446,2.444999,69347,70961992,-117,46,4358
2447,2.445999,69348,70962992,-131,55,4399
2448,2.447007,69349,70964000,-142,59,4406
2449,2.447999,69350,70964992,-127,56,4404
2450,2.448999,69351,70965992,-137,49,4413
2451,2.450000,69352,70966993,-151,51,4383
2452,2.450999,69353,70967992,-134,47,4365
2453,2.452000,69354,70968993,-130,74,4388
2454,2.453000,69355,70969993,-144,94,4376
2455,2.453999,69356,70970992,-146,90,4350
2456,2.454999,69357,70971992,-142,76,4363
2457,2.456000,69358,70972993,-142,70,4380
2458,2.456999,69359,70973992,-107,56,4392
2459,2.457999,69360,70974992,-86,28,4404
2460,2.459000,69361,70975993,-122,35,4393
2461,2.460000,69362,70976993,-124,55,4371
2462,2.461000,69363,70977993,-111,48,4387
2463,2.462000,69364,70978993,-108,41,4388
2464,2.463000,69365,70979993,-113,39,4376
2465,2.463999,69366,70980992,-124,39,4392
2466,2.465000,69367,70981993,-120,48,4397
2467,2.466000,69368,70982993,-120,55,4400
2468,2.466999,69369,70983992,-127,63,4412
2469,2.467999,69370,70984992,-123,51,4390
2470,2.469000,69371,70985993,-122,43,4358
2471,2.470000,69372,70986993,-145,43,4393
2472,2.471000,69373,70987993,-133,35,4406
2473,2.472000,69374,70988993,-122,35,4393
2474,2.473000,69375,70989993,-116,38,4391
2475,2.473999,69376,70990992,-119,28,4385
2476,2.474999,69377,70991992,-121,23,4408
2477,2.476000,69378,70992993,-109,45,4405
2478,2.477000,69379,70993993,-141,35,4376
2479,2.477999,69380,70994992,-136,23,4390
2480,2.479000,69381,70995993,-127,46,4419
2481,2.480000,69382,70996993,-131,46,4397
2482,2.481000,69383,70997993,-116,41,4390
2483,2.481999,69384,70998992,-117,30,4378
2484,2.483000,69385,70999993,-94,42,4365
2485,2.484000,69386,71000993,-97,59,4386
2486,2.484999,69387,71001992,-112,62,4389
2487,2.486000,69388,71002993,-104,62,4397
2488,2.486999,69389,71003992,-108,62,4394
2489,2.488000,69390,71004993,-116,65,4364
2490,2.489000,69391,71005993,-118,52,4347
2491,2.490000,69392,71006993,-137,49,4358
2492,2.491000,69393,71007993,-136,58,4380
2493,2.492000,69394,71008993,-106,63,4384
2494,2.493000,69395,71009993,-108,60,4385
2495,2.494000,69396,71010993,-120,68,4373
2496,2.495000,69397,71011993,-119,73,4380
2497,2.496000,69398,71012993,-130,62,4410
2498,2.497000,69399,71013993,-136,48,4411
2499,2.497999,69400,71014992,-113,47,4388
2500,2.499000,69401,71015993,-108,34,4379
2501,2.500000,69402,71016993,-120,43,4353
2502,2.501000,69403,71017993,-121,50,4363
2503,2.501999,69404,71018992,-99,34,4408
2504,2.503000,69405,71019993,-100,44,4391
2505,2.504000,69406,71020993,-113,40,4380
2506,2.505000,69407,71021993,-136,21,4378
2507,2.505999,69408,71022992,-142,22,4395
2508,2.507000,69409,71023993,-116,36,4413
2509,2.507999,69410,71024992,-111,37,4386
2510,2.509000,69411,71025993,-133,57,4369
2511,2.510000,69412,71026993,-128,65,4372
2512,2.511000,69413,71027993,-105,46,4380
2513,2.512000,69414,71028993,-96,30,4380
2514,2.512999,69415,71029992,-93,34,4380
2515,2.513999,69416,71030992,-110,47,4375
2516,2.515000,69417,71031993,-125,50,4368
2517,2.516000,69418,71032993,-111,54,4352
2518,2.516999,69419,71033992,-108,52,4358
2519,2.518000,69420,71034993,-127,54,4356
2520,2.519000,69421,71035993,-113,49,4356
2521,2.520000,69422,71036993,-100,50,4393
2522,2.520999,69423,71037992,-112,42,4395
2523,2.522000,69424,71038993,-124,47,4397
2524,2.522999,69425,71039992,-114,56,4380
2525,2.524000,69426,71040993,-131,38,4370
2526,2.524999,69427,71041992,-141,23,4383
2527,2.525999,69428,71042992,-128,26,4363
2528,2.526999,69429,71043992,-132,46,4381
2529,2.528000,69430,71044993,-131,45,4378
2530,2.529000,69431,71045993,-127,44,4360
2531,2.530000,69432,71046993,-117,29,4383
2532,2.531000,69433,71047993,-126,18,4382
2533,2.532000,69434,71048993,-137,67,4373
2534,2.533000,69435,71049993,-123,82,4362
2535,2.534000,69436,71050993,-133,45,4349
2536,2.535000,69437,71051993,-148,47,4358
2537,2.536000,69438,71052993,-129,55,4398
2538,2.537000,69439,71053993,-127,29,4395
2539,2.538000,69440,71054993,-121,25,4353
2540,2.539000,69441,71055993,-116,43,4367
2541,2.540000,69442,71056993,-125,34,4373
2542,2.541000,69443,71057993,-126,41,4395
2543,2.541999,69444,71058992,-131,54,4405
2544,2.543000,69445,71059993,-126,39,4368
2545,2.543999,69446,71060992,-130,26,4390
2546,2.544999,69447,71061992,-112,46,4400
2547,2.546000,69448,71062993,-102,70,4389
2548,2.547000,69449,71063993,-118,58,4382
2549,2.548000,69450,71064993,-116,45,4376
2550,2.549000,69451,71065993,-126,39,4387
2551,2.550000,69452,71066993,-127,53,4379
2552,2.551000,69453,71067993,-107,51,4368
2553,2.551999,69454,71068992,-96,35,4376
2554,2.552999,69455,71069992,-103,41,4371
2555,2.554000,69456,71070993,-130,54,4370
2556,2.554999,69457,71071992,-136,60,4375
2557,2.555999,69458,71072992,-113,47,4377
2558,2.557000,69459,71073993,-104,57,4404
2559,2.557999,69460,71074992,-101,48,4407
2560,2.558999,69461,71075992,-100,28,4399
2561,2.560000,69462,71076993,-135,43,4399
2562,2.561000,69463,71077993,-125,60,4386
2563,2.561999,69464,71078992,-120,45,4385
2564,2.563000,69465,71079993,-148,32,4403
2565,2.563999,69466,71080992,-125,45,4402
2566,2.565000,69467,71081993,-111,41,4386
2567,2.566000,69468,71082993,-116,31,4395
2568,2.567000,69469,71083993,-125,31,4370
2569,2.568000,69470,71084993,-126,23,4377
2570,2.569000,69471,71085993,-120,25,4404
2571,2.570000,69472,71086993,-125,37,4379
2572,2.571000,69473,71087993,-116,37,4395
2573,2.571999,69474,71088992,-113,36,4384
2574,2.573000,69475,71089993,-120,26,4367
2575,2.574000,69476,71090993,-126,35,4400
2576,2.575000,69477,71091993,-115,58,4406
2577,2.575999,69478,71092992,-101,47,4399
2578,2.577000,69479,71093993,-123,58,4381
2579,2.577999,69480,71094992,-136,79,4359
2580,2.579000,69481,71095993,-127,56,4346
2581,2.580000,69482,71096993,-111,42,4356
2582,2.581000,69483,71097993,-107,43,4380
2583,2.582000,69484,71098993,-124,43,4403
2584,2.583000,69485,71099993,-133,52,4403
2585,2.584000,69486,71100993,-122,50,4388
2586,2.584999,69487,71101992,-126,36,4382
2587,2.586000,69488,71102993,-116,34,4379
2588,2.586999,69489,71103992,-114,34,4388
2589,2.588000,69490,71104993,-130,28,4382
2590,2.588999,69491,71105992,-132,25,4398
2591,2.590000,69492,71106993,-113,46,4408
2592,2.591000,69493,71107993,-115,66,4377
2593,2.592000,69494,71108993,-127,49,4361
2594,2.593000,69495,71109993,-105,28,4352
2595,2.594000,69496,71110993,-111,27,4348
2596,2.595000,69497,71111993,-120,34,4347
2597,2.595999,69498,71112992,-110,40,4355
2598,2.596999,69499,71113992,-121,48,4390
2599,2.598000,69500,71114993,-133,39,4381
2600,2.598999,69501,71115992,-129,22,4373
2601,2.600000,69502,71116993,-136,30,4422
2602,2.601000,69503,71117993,-123,56,4456
2603,2.601999,69504,71118992,-116,61,4421
2604,2.603000,69505,71119993,-115,44,4371
2605,2.603999,69506,71120992,-124,58,4378
2606,2.604999,69507,71121992,-155,54,4404
2607,2.606000,69508,71122993,-146,47,4397
2608,2.607000,69509,71123993,-120,52,4380
2609,2.608000,69510,71124993,-98,37,4374
2610,2.608999,69511,71125992,-114,46,4365
2611,2.610000,69512,71126993,-128,37,4361
2612,2.610999,69513,71127992,-110,34,4367
2613,2.612000,69514,71128993,-120,41,4380
2614,2.613000,69515,71129993,-133,24,4373
2615,2.613999,69516,71130992,-133,9,4374
2616,2.615000,69517,71131993,-127,26,4381
2617,2.616000,69518,71132993,-113,57,4369
2618,2.617000,69519,71133993,-117,57,4348
2619,2.618000,69520,71134993,-129,61,4345
2620,2.619000,69521,71135993,-130,66,4375
2621,2.620000,69522,71136993,-131,54,4390
2622,2.620999,69523,71137992,-123,40,4379
2623,2.622000,69524,71138993,-116,38,4383
2624,2.622999,69525,71139992,-115,47,4408
2625,2.623999,69526,71140992,-109,47,4409
2626,2.625000,69527,71141993,-110,32,4382
2627,2.626000,69528,71142993,-111,24,4386
2628,2.626999,69529,71143992,-122,46,4377
2629,2.628000,69530,71144993,-135,65,4359
2630,2.629000,69531,71145993,-124,46,4366
2631,2.630000,69532,71146993,-112,24,4377
2632,2.631000,69533,71147993,-103,31,4384
2633,2.631999,69534,71148992,-102,44,4403
2634,2.633000,69535,71149993,-117,38,4395
2635,2.634000,69536,71150993,-122,36,4362
2636,2.635000,69537,71151993,-121,40,4383
2637,2.636000,69538,71152993,-123,29,4380
2638,2.637000,69539,71153993,-109,20,4357
2639,2.638000,69540,71154993,-127,40,4371
2640,2.639000,69541,71155993,-155,65,4367
2641,2.640000,69542,71156993,-143,62,4360
2642,2.641000,69543,71157993,-127,54,4364
2643,2.641999,69544,71158992,-124,49,4369
2644,2.642999,69545,71159992,-129,22,4365
2645,2.643999,69546,71160992,-129,31,4357
2646,2.645000,69547,71161993,-135,55,4388
2647,2.646000,69548,71162993,-124,44,4394
2648,2.646999,69549,71163992,-110,48,4370
2649,2.648000,69550,71164993,-113,62,4389
2650,2.649000,69551,71165993,-102,60,4398
2651,2.650000,69552,71166993,-100,39,4383
2652,2.651000,69553,71167993,-112,44,4370
2653,2.652000,69554,71168993,-109,48,4381
2654,2.652999,69555,71169992,-111,48,4399
2655,2.654000,69556,71170993,-113,52,4414
2656,2.654999,69557,71171992,-103,32,4399
2657,2.655999,69558,71172992,-115,21,4369
2658,2.656999,69559,71173992,-139,37,4391
2659,2.658000,69560,71174993,-133,39,4394
2660,2.659000,69561,71175993,-129,34,4379
2661,2.660000,69562,71176993,-117,38,4384
2662,2.661000,69563,71177993,-112,30,4392
2663,2.661999,69564,71178992,-122,46,4386
2664,2.662999,69565,71179992,-114,65,4377
2665,2.663999,69566,71180992,-116,58,4367
2666,2.664999,69567,71181992,-130,52,4369
2667,2.666000,69568,71182993,-114,56,4380
2668,2.667000,69569,71183993,-107,68,4383
2669,2.668000,69570,71184993,-120,66,4362
2670,2.669000,69571,71185993,-116,51,4354
2671,2.670000,69572,71186993,-117,46,4368
2672,2.671000,69573,71187993,-120,38,4364
2673,2.671999,69574,71188992,-142,25,4365
2674,2.672999,69575,71189992,-145,28,4384
2675,2.674000,69576,71190993,-121,28,4392
2676,2.674999,69577,71191992,-121,24,4388
2677,2.676000,69578,71192993,-147,34,4376
2678,2.677000,69579,71193993,-151,36,4395
2679,2.677999,69580,71194992,-132,38,4412
2680,2.679000,69581,71195993,-122,39,4422
2681,2.680000,69582,71196993,-103,27,4438
2682,2.681000,69583,71197993,-100,37,4383
2683,2.682000,69584,71198993,-120,54,4353
2684,2.683000,69585,71199993,-119,57,4359
2685,2.684000,69586,71200993,-125,49,4345
2686,2.684999,69587,71201992,-115,32,4361
2687,2.686000,69588,71202993,-103,34,4401
2688,2.687000,69589,71203993,-120,42,4411
2689,2.688000,69590,71204993,-142,48,4387
2690,2.689000,69591,71205993,-150,52,4356
2691,2.689999,69592,71206992,-131,50,4363
2692,2.691000,69593,71207993,-126,40,4377
2693,2.692000,69594,71208993,-133,52,4354
2694,2.692999,69595,71209992,-134,67,4376
2695,2.694000,69596,71210993,-116,65,4408
2696,2.695000,69597,71211993,-111,68,4387
2697,2.695999,69598,71212992,-117,54,4381
2698,2.697000,69599,71213993,-124,47,4406
2699,2.698000,69600,71214993,-123,54,4416
2700,2.699000,69601,71215993,-107,39,4406
2701,2.700000,69602,71216993,-127,39,4397
2702,2.701000,69603,71217993,-127,44,4387
2703,2.702000,69604,71218993,-124,51,4361
2704,2.703000,69605,71219993,-125,52,4354
2705,2.704000,69606,71220993,-104,25,4363
2706,2.705000,69607,71221993,-106,19,4352
2707,2.706000,69608,71222993,-93,31,4365
2708,2.707000,69609,71223993,-109,50,4396
2709,2.707999,69610,71224992,-125,66,4385
2710,2.709000,69611,71225993,-118,70,4379
2711,2.710000,69612,71226993,-123,66,4385
2712,2.711000,69613,71227993,-130,49,4401
2713,2.711999,69614,71228992,-139,30,4427
2714,2.713000,69615,71229993,-117,32,4400
2715,2.714000,69616,71230993,-118,48,4387
2716,2.714999,69617,71231992,-129,42,4382
2717,2.716000,69618,71232993,-135,44,4379
2718,2.717000,69619,71233993,-137,56,4382
2719,2.718000,69620,71234993,-129,50,4375
2720,2.718999,69621,71235992,-144,45,4391
2721,2.719999,69622,71236992,-137,44,4390
2722,2.721000,69623,71237993,-138,44,4371
2723,2.722000,69624,71238993,-136,54,4386
2724,2.723000,69625,71239993,-120,58,4387
2725,2.723999,69626,71240992,-132,46,4371
2726,2.725000,69627,71241993,-138,57,4376
2727,2.726000,69628,71242993,-134,59,4378
2728,2.727000,69629,71243993,-125,48,4369
2729,2.728000,69630,71244993,-118,51,4336
2730,2.729000,69631,71245993,-134,44,4354
2731,2.730000,69632,71246993,-144,34,4412
2732,2.731000,69633,71247993,-133,55,4415
2733,2.732000,69634,71248993,-149,58,4392
2734,2.732999,69635,71249992,-137,41,4379
2735,2.734000,69636,71250993,-108,38,4384
2736,2.735000,69637,71251993,-117,43,4380
2737,2.735999,69638,71252992,-113,56,4357
2738,2.737000,69639,71253993,-123,43,4370
2739,2.738000,69640,71254993,-147,36,4399
2740,2.738999,69641,71255992,-137,49,4394
2741,2.739999,69642,71256992,-131,44,4393
2742,2.741000,69643,71257993,-116,44,4409
2743,2.741999,69644,71258992,-108,51,4417
2744,2.742999,69645,71259992,-110,46,4380
2745,2.744000,69646,71260993,-98,45,4363
2746,2.745000,69647,71261993,-108,39,4399
2747,2.745999,69648,71262992,-139,21,4375
2748,2.747000,69649,71263993,-154,26,4376
2749,2.748000,69650,71264993,-128,41,4376
2750,2.748999,69651,71265992,-102,48,4390
2751,2.749999,69652,71266992,-104,54,4395
2752,2.751000,69653,71267993,-119,35,4348
2753,2.752000,69654,71268993,-139,39,4348
2754,2.753000,69655,71269993,-140,48,4381
2755,2.754000,69656,71270993,-129,58,4414
2756,2.754999,69657,71271992,-124,64,4414
2757,2.756000,69658,71272993,-123,43,4405
2758,2.757000,69659,71273993,-122,36,4383
2759,2.757999,69660,71274992,-125,49,4375
2760,2.758999,69661,71275992,-132,52,4372
2761,2.760000,69662,71276993,-135,34,4379
2762,2.761000,69663,71277993,-137,37,4376
2763,2.761999,69664,71278992,-142,54,4369
2764,2.763000,69665,71279993,-132,65,4364
2765,2.764000,69666,71280993,-124,60,4358
2766,2.765000,69667,71281993,-131,58,4367
2767,2.766000,69668,71282993,-134,65,4381
2768,2.767000,69669,71283993,-139,59,4386
2769,2.768000,69670,71284993,-138,46,4396
2770,2.769000,69671,71285993,-128,42,4408
2771,2.770000,69672,71286993,-120,55,4382
2772,2.771000,69673,71287993,-119,63,4358
2773,2.771999,69674,71288992,-125,57,4371
2774,2.772999,69675,71289992,-121,50,4387
2775,2.774000,69676,71290993,-124,31,4387
2776,2.774999,69677,71291992,-114,22,4376
2777,2.776000,69678,71292993,-91,24,4378
2778,2.777000,69679,71293993,-84,23,4422
2779,2.778000,69680,71294993,-87,29,4421
2780,2.778999,69681,71295992,-102,23,4400
2781,2.779999,69682,71296992,-121,31,4377
2782,2.780999,69683,71297992,-119,38,4359
2783,2.782000,69684,71298993,-114,45,4386
2784,2.782999,69685,71299992,-135,54,4400
2785,2.784000,69686,71300993,-144,29,4401
2786,2.785000,69687,71301993,-143,16,4402
2787,2.785999,69688,71302992,-124,25,4405
2788,2.787000,69689,71303993,-97,55,4415
2789,2.787999,69690,71304992,-109,67,4405
2790,2.788999,69691,71305992,-127,40,4378
2791,2.789999,69692,71306992,-104,44,4410
2792,2.790999,69693,71307992,-119,50,4438
2793,2.792000,69694,71308993,-150,29,4425
2794,2.793000,69695,71309993,-129,43,4420
2795,2.794000,69696,71310993,-115,59,4408
2796,2.794999,69697,71311992,-116,44,4375
2797,2.796000,69698,71312993,-94,46,4378
2798,2.797000,69699,71313993,-92,55,4391
2799,2.798000,69700,71314993,-102,45,4373
2800,2.799000,69701,71315993,-114,38,4385
2801,2.800000,69702,71316993,-121,55,4393
2802,2.801000,69703,71317993,-118,58,4391
2803,2.802000,69704,71318993,-128,49,4376
2804,2.803000,69705,71319993,-117,53,4365
2805,2.804000,69706,71320993,-113,50,4386
2806,2.805000,69707,71321993,-121,39,4366
2807,2.806000,69708,71322993,-113,36,4351
2808,2.807000,69709,71323993,-121,45,4361
2809,2.807999,69710,71324992,-140,61,4355
2810,2.809000,69711,71325993,-129,42,4354
2811,2.809999,69712,71326992,-113,15,4369
2812,2.810999,69713,71327992,-119,24,4366
2813,2.812000,69714,71328993,-137,25,4338
2814,2.813000,69715,71329993,-148,28,4366
2815,2.814000,69716,71330993,-133,35,4406
2816,2.814999,69717,71331992,-131,44,4381
2817,2.815999,69718,71332992,-128,39,4351
2818,2.817000,69719,71333993,-133,38,4369
2819,2.818000,69720,71334993,-127,39,4389
2820,2.819000,69721,71335993,-121,40,4402
2821,2.819999,69722,71336992,-129,39,4404
