sample_index,micros,ax,ay,az
64,2554334,61,59,4374
65,2554727,61,59,4374
66,2555127,32,48,4382
67,2555520,32,48,4382
68,2555913,32,48,4382
69,2556318,17,42,4419
70,2556711,17,42,4419
71,2557110,32,33,4371
72,2557507,32,33,4371
73,2557900,32,33,4371
74,2558295,43,33,4320
75,2558694,43,33,4320
76,2559087,19,53,4343
77,2559482,19,53,4343
78,2559875,19,53,4343
79,2560273,6,69,4342
80,2560664,6,69,4342
81,2561074,36,61,4333
82,2561456,36,61,4333
83,2561849,36,61,4333
84,2562242,71,45,4384
85,2562642,71,45,4384
86,2563037,71,45,4384
87,2563424,66,46,4425
88,2563815,66,46,4425
89,2564214,61,49,4372
90,2564600,61,49,4372
91,2565001,61,49,4372
92,2565393,82,18,4366
93,2565781,82,18,4366
94,2566175,65,15,4383
95,2566574,65,15,4383
96,2566972,65,15,4383
97,2567371,51,47,4369
98,2567751,51,47,4369
99,2568151,43,51,4386
100,2568544,43,51,4386
101,2568948,43,51,4386
102,2569342,32,23,4374
103,2569736,32,23,4374
104,2570128,32,21,4380
105,2570529,32,21,4380
106,2570922,32,21,4380
107,2571327,33,58,4407
108,2571714,33,58,4407
109,2572114,40,59,4383
110,2572509,40,59,4383
111,2572902,40,59,4383
112,2573298,31,42,4368
113,2573697,31,42,4368
114,2574090,7,37,4388
115,2574483,7,37,4388
116,2574877,7,37,4388
117,2575275,-17,48,4374
118,2575684,-17,48,4374
119,2576092,8,32,4391
120,2576473,8,32,4391
121,2576872,8,32,4391
122,2577266,51,29,4385
123,2577666,51,29,4385
124,2578062,44,51,4365
125,2578457,44,51,4365
126,2578844,44,51,4365
127,2579243,22,68,4386
128,2579636,22,68,4386
129,2580040,39,68,4369
130,2580426,39,68,4369
131,2580823,39,68,4369
132,2581216,39,51,4367
133,2581615,39,51,4367
134,2582013,39,51,4367
135,2582405,31,39,4367
136,2582796,31,39,4367
137,2583194,40,31,4359
138,2583587,40,31,4359
139,2583990,40,31,4359
140,2584383,36,43,4382
141,2584771,36,43,4382
142,2585164,19,56,4376
143,2585564,19,56,4376
144,2585962,19,56,4376
145,2586361,13,61,4406
146,2586749,13,61,4406
147,2587141,35,45,4419
148,2587538,35,45,4419
149,2587938,35,45,4419
150,2588335,50,61,4370
151,2588729,50,61,4370
152,2589123,62,90,4364
153,2589523,62,90,4364
154,2589917,62,90,4364
155,2590320,59,72,4346
156,2590708,59,72,4346
157,2591108,14,56,4359
158,2591504,14,56,4359
159,2591896,14,56,4359
160,2592292,18,37,4383
161,2592691,18,37,4383
162,2593085,48,44,4371
163,2593480,48,44,4371
164,2593873,48,44,4371
165,2594271,22,59,4401
166,2594665,22,59,4401
167,2595068,14,37,4401
168,2595457,14,37,4401
169,2595850,14,37,4401
170,2596244,5,31,4345
171,2596643,5,31,4345
172,2597040,-3,41,4339
173,2597439,-3,41,4339
174,2597850,-3,41,4339
175,2598257,2,48,4354
176,2598644,2,48,4354
177,2599044,10,45,4326
178,2599430,10,45,4326
179,2599832,10,45,4326
180,2600220,19,43,4313
181,2600619,19,43,4313
182,2601017,19,43,4313
183,2601408,32,37,4357
184,2601798,32,37,4357
185,2602197,29,27,4388
186,2602590,29,27,4388
187,2602998,29,27,4388
188,2603385,12,40,4378
189,2603772,12,40,4378
190,2604166,22,68,4392
191,2604568,22,68,4392
192,2604967,22,68,4392
193,2605367,34,55,4394
194,2605747,34,55,4394
195,2606147,22,31,4364
196,2606541,22,31,4364
197,2606940,22,31,4364
198,2607336,22,32,4352
199,2607729,22,32,4352
200,2608125,39,49,4364
201,2608525,39,49,4364
202,2608918,39,49,4364
203,2609322,23,57,4383
204,2609709,23,57,4383
205,2610108,29,40,4351
206,2610504,29,40,4351
207,2610896,29,40,4351
208,2611293,37,36,4372
209,2611698,37,36,4372
210,2612085,38,55,4412
211,2612479,38,55,4412
212,2612872,38,55,4412
213,2613272,34,54,4399
214,2613666,34,54,4399
215,2614075,25,25,4378
216,2614459,25,25,4378
217,2614851,25,25,4378
218,2615244,48,27,4367
219,2615651,48,27,4367
220,2616040,58,39,4381
221,2616433,58,39,4381
222,2616824,58,39,4381
223,2617218,59,55,4363
224,2617606,59,55,4363
225,2618010,59,55,4363
226,2618396,69,58,4354
227,2618793,69,58,4354
228,2619182,57,57,4378
229,2619581,57,57,4378
230,2619974,57,57,4378
231,2620372,26,72,4403
232,2620760,26,72,4403
233,2621152,26,66,4388
234,2621533,26,66,4388
235,2621929,26,66,4388
236,2622328,39,55,4362
237,2622721,39,55,4362
238,2623116,50,57,4332
239,2623515,50,57,4332
240,2623903,50,57,4332
241,2624305,34,59,4312
242,2624697,34,59,4312
243,2625097,20,60,4325
244,2625486,20,60,4325
245,2625885,20,60,4325
246,2626278,28,67,4346
247,2626684,28,67,4346
248,2627069,18,65,4344
249,2627464,18,65,4344
250,2627839,18,65,4344
251,2628238,24,59,4317
252,2628630,24,59,4317
253,2629034,24,59,4317
254,2629419,40,73,4355
255,2629816,40,73,4355
256,2630210,68,54,4406
257,2630609,68,54,4406
258,2631015,68,54,4406
259,2631399,69,33,4411
260,2631790,69,33,4411
261,2632177,21,57,4368
262,2632547,21,57,4368
263,2632923,21,57,4368
264,2633322,7,61,4344
265,2633709,7,61,4344
266,2634115,37,62,4396
267,2634496,37,62,4396
268,2634896,37,62,4396
269,2635294,42,54,4373
270,2635693,42,54,4373
271,2636086,34,49,4361
272,2636479,34,49,4361
273,2636872,34,49,4361
274,2637271,30,76,4394
275,2637663,30,76,4394
276,2638066,31,80,4376
277,2638441,31,80,4376
278,2638841,31,80,4376
279,2639234,35,58,4379
280,2639628,35,58,4379
281,2640024,35,58,4379
282,2640417,23,42,4369
283,2640808,23,42,4369
284,2641208,14,40,4365
285,2641601,14,40,4365
286,2642004,14,40,4365
287,2642391,35,67,4401
288,2642778,35,67,4401
289,2643171,62,70,4416
290,2643562,62,70,4416
291,2643924,62,70,4416
292,2644290,44,36,4375
293,2644677,44,36,4375
294,2645067,26,33,4362
295,2645460,26,33,4362
296,2645842,26,33,4362
297,2646238,41,57,4376
298,2646631,41,57,4376
299,2647036,41,57,4376
300,2647417,52,71,4336
301,2647814,52,71,4336
302,2648207,46,54,4333
303,2648607,46,54,4333
304,2649004,46,54,4333
305,2649396,47,45,4358
306,2649788,47,45,4358
307,2650187,34,46,4366
308,2650581,34,46,4366
309,2650983,34,46,4366
310,2651377,-5,52,4339
311,2651772,-5,52,4339
312,2652173,-1,52,4312
313,2652581,-1,52,4312
314,2652984,-1,52,4312
315,2653391,18,22,4327
316,2653772,18,22,4327
317,2654166,11,29,4318
318,2654560,11,29,4318
319,2654964,11,29,4318
320,2655344,11,50,4378
321,2655740,11,50,4378
322,2656133,-3,54,4399
323,2656542,-3,54,4399
324,2656943,-3,54,4399
325,2657353,-7,57,4388
326,2657749,-7,57,4388
327,2658148,30,47,4388
328,2658544,30,47,4388
329,2658938,30,47,4388
330,2659335,42,50,4377
331,2659728,42,50,4377
332,2660116,30,64,4393
333,2660494,30,64,4393
334,2660867,30,64,4393
335,2661253,22,48,4354
336,2661647,22,48,4354
337,2662051,29,60,4369
338,2662431,29,60,4369
339,2662820,29,60,4369
340,2663203,30,74,4365
341,2663594,30,74,4365
342,2663984,30,74,4365
343,2664382,63,59,4349
344,2664763,63,59,4349
345,2665149,99,58,4333
346,2665533,99,58,4333
347,2665932,99,58,4333
348,2666329,52,45,4306
349,2666723,52,45,4306
350,2667117,46,45,4336
351,2667513,46,45,4336
352,2667900,46,45,4336
353,2668303,56,61,4379
354,2668697,56,61,4379
355,2669096,32,62,4371
356,2669478,32,62,4371
357,2669872,32,62,4371
358,2670261,52,54,4336
359,2670658,52,54,4336
360,2671053,39,51,4333
361,2671433,39,51,4333
362,2671824,39,51,4333
363,2672224,9,37,4334
364,2672617,9,37,4334
365,2673015,9,37,4334
366,2673401,45,52,4337
367,2673797,45,52,4337
368,2674191,69,72,4361
369,2674590,69,72,4361
370,2674988,69,72,4361
371,2675388,59,63,4389
372,2675769,59,63,4389
373,2676167,72,49,4379
374,2676558,72,49,4379
375,2676949,72,49,4379
376,2677330,66,42,4370
377,2677697,66,42,4370
378,2678079,13,40,4386
379,2678472,13,40,4386
380,2678854,13,40,4386
381,2679254,4,47,4385
382,2679647,4,47,4385
383,2680050,48,43,4363
384,2680430,48,43,4363
385,2680834,48,43,4363
386,2681220,46,52,4375
387,2681619,46,52,4375
388,2682023,46,52,4375
389,2682408,52,53,4378
390,2682799,52,53,4378
391,2683199,60,39,4389
392,2683593,60,39,4389
393,2683996,60,39,4389
394,2684389,35,54,4407
395,2684777,35,54,4407
396,2685170,25,46,4388
397,2685570,25,46,4388
398,2685975,25,46,4388
399,2686368,39,28,4390
400,2686749,39,28,4390
401,2687147,53,20,4400
402,2687540,53,20,4400
403,2687940,53,20,4400
404,2688338,40,25,4387
405,2688731,40,25,4387
406,2689124,40,38,4384
407,2689523,40,38,4384
408,2689909,40,38,4384
409,2690301,22,51,4356
410,2690688,22,51,4356
411,2691088,38,46,4341
412,2691476,38,46,4341
413,2691875,38,46,4341
414,2692268,78,46,4357
415,2692667,78,46,4357
416,2693064,62,61,4363
417,2693460,62,61,4363
418,2693826,62,61,4363
419,2694207,40,53,4373
420,2694583,40,53,4373
421,2694974,40,53,4373
422,2695373,19,62,4391
423,2695753,19,62,4391
424,2696153,-1,49,4382
425,2696562,-1,49,4382
426,2696974,-1,49,4382
427,2697368,6,34,4333
428,2697755,6,34,4333
429,2698148,32,45,4339
430,2698547,32,45,4339
431,2698941,32,45,4339
432,2699344,20,25,4378
433,2699731,20,25,4378
434,2700130,13,33,4375
435,2700525,13,33,4375
436,2700924,13,33,4375
437,2701323,32,55,4349
438,2701717,32,55,4349
439,2702112,17,57,4301
440,2702511,17,57,4301
441,2702899,17,57,4301
442,2703302,16,58,4290
443,2703695,16,58,4290
444,2704094,39,69,4341
445,2704483,39,69,4341
446,2704882,39,69,4341
447,2705276,54,62,4356
448,2705675,54,62,4356
449,2706069,45,59,4335
450,2706463,45,59,4335
451,2706849,45,59,4335
452,2707249,42,60,4378
453,2707643,42,60,4378
454,2708045,70,46,4405
455,2708430,70,46,4405
456,2708833,70,46,4405
457,2709226,68,64,4387
458,2709625,68,64,4387
459,2710014,68,64,4387
460,2710403,59,80,4384
461,2710794,59,80,4384
462,2711201,55,74,4425
463,2711595,55,74,4425
464,2711998,55,74,4425
465,2712385,18,59,4424
466,2712771,18,59,4424
467,2713166,7,60,4356
468,2713568,7,60,4356
469,2713966,7,60,4356
470,2714364,30,46,4359
471,2714745,30,46,4359
472,2715144,54,11,4370
473,2715540,54,11,4370
474,2715942,54,11,4370
475,2716328,34,18,4358
476,2716722,34,18,4358
477,2717111,16,33,4343
478,2717511,16,33,4343
479,2717899,16,33,4343
480,2718301,15,26,4356
481,2718694,15,26,4356
482,2719093,10,39,4378
483,2719481,10,39,4378
484,2719880,10,39,4378
485,2720274,21,37,4374
486,2720672,21,37,4374
487,2721070,40,37,4367
488,2721465,40,37,4367
489,2721852,40,37,4367
490,2722252,19,50,4353
491,2722646,19,50,4353
492,2723048,9,37,4373
493,2723435,9,37,4373
494,2723836,9,37,4373
495,2724230,49,47,4410
496,2724628,49,47,4410
497,2725024,49,63,4351
498,2725417,49,63,4351
499,2725805,49,63,4351
500,2726204,27,61,4350
501,2726597,27,61,4350
502,2726989,27,61,4350
503,2727350,33,59,4373
504,2727711,33,59,4373
505,2728108,44,52,4369
506,2728496,44,52,4369
507,2728897,44,52,4369
508,2729293,51,52,4369
509,2729685,51,52,4369
510,2730075,61,48,4375
511,2730465,61,48,4375
512,2730852,61,48,4375
513,2731251,47,45,4390
514,2731640,47,45,4390
515,2732043,23,66,4387
516,2732422,23,66,4387
517,2732820,23,66,4387
518,2733213,23,55,4418
519,2733612,23,55,4418
520,2734011,23,55,4418
521,2734403,43,40,4415
522,2734793,43,40,4415
523,2735193,42,54,4394
524,2735587,42,54,4394
525,2735997,42,54,4394
526,2736382,41,76,4360
527,2736769,41,76,4360
528,2737162,54,47,4359
529,2737562,54,47,4359
530,2737967,54,47,4359
531,2738360,41,29,4385
532,2738748,41,29,4385
533,2739146,41,61,4393
534,2739540,41,61,4393
535,2739940,41,61,4393
536,2740337,34,33,4385
537,2740730,34,33,4385
538,2741124,3,16,4369
539,2741513,3,16,4369
540,2741893,3,16,4369
541,2742295,-2,16,4367
542,2742692,-2,16,4367
543,2743087,19,27,4356
544,2743475,19,27,4356
545,2743850,19,27,4356
546,2744230,23,49,4334
547,2744614,23,49,4334
548,2745012,23,49,4334
549,2745403,10,38,4334
550,2745793,10,38,4334
551,2746193,23,42,4339
552,2746581,23,42,4339
553,2746985,23,42,4339
554,2747372,24,59,4347
555,2747759,24,59,4347
556,2748147,23,68,4358
557,2748542,23,68,4358
558,2748935,23,68,4358
559,2749339,28,76,4364
560,2749728,28,76,4364
561,2750127,40,69,4353
562,2750515,40,69,4353
563,2750909,40,69,4353
564,2751307,13,71,4342
565,2751707,13,71,4342
566,2752101,28,70,4343
567,2752495,28,70,4343
568,2752888,28,70,4343
569,2753291,83,75,4346
570,2753684,83,75,4346
571,2754083,48,71,4364
572,2754471,48,71,4364
573,2754864,48,71,4364
574,2755254,10,45,4367
575,2755653,10,45,4367
576,2756051,45,32,4379
577,2756437,45,32,4379
578,2756829,45,32,4379
579,2757216,61,30,4401
580,2757610,61,30,4401
581,2758020,61,30,4401
582,2758398,14,19,4404
583,2758787,14,19,4404
584,2759174,9,14,4398
585,2759569,9,14,4398
586,2759966,9,14,4398
587,2760357,39,37,4383
588,2760738,39,37,4383
589,2761105,50,31,4388
590,2761491,50,31,4388
591,2761898,50,31,4388
592,2762281,47,31,4382
593,2762664,47,31,4382
594,2763029,47,31,4382
595,2763391,52,36,4351
596,2763778,52,36,4351
597,2764165,47,22,4381
598,2764566,47,22,4381
599,2764964,47,22,4381
600,2765364,5,28,4346
601,2765751,5,28,4346
602,2766143,3,38,4310
603,2766544,3,38,4310
604,2766936,3,38,4310
605,2767333,13,34,4396
606,2767726,13,34,4396
607,2768119,11,44,4419
608,2768520,11,44,4419
609,2768913,11,44,4419
610,2769316,31,40,4369
611,2769709,31,40,4369
612,2770104,50,18,4346
613,2770493,50,18,4346
614,2770899,50,18,4346
615,2771289,51,35,4331
616,2771686,51,35,4331
617,2772075,25,39,4353
618,2772470,25,39,4353
619,2772850,25,39,4353
620,2773246,22,34,4377
621,2773639,22,34,4377
622,2774041,31,53,4359
623,2774428,31,53,4359
624,2774823,31,53,4359
625,2775216,23,40,4344
626,2775615,23,40,4344
627,2776014,23,40,4344
628,2776406,-7,36,4323
629,2776811,-7,36,4323
630,2777212,17,49,4324
631,2777592,17,49,4324
632,2777991,17,49,4324
633,2778377,43,53,4342
634,2778763,43,53,4342
635,2779157,18,52,4354
636,2779552,18,52,4354
637,2779933,18,52,4354
638,2780338,37,55,4342
639,2780725,37,55,4342
640,2781123,38,65,4330
641,2781518,38,65,4330
642,2781924,38,65,4330
643,2782315,12,54,4384
644,2782715,12,54,4384
645,2783104,8,34,4427
646,2783497,8,34,4427
647,2783890,8,34,4427
648,2784293,18,13,4388
649,2784688,18,13,4388
650,2785087,37,33,4367
651,2785476,37,33,4367
652,2785875,37,33,4367
653,2786269,56,52,4363
654,2786669,56,52,4363
655,2787065,60,29,4365
656,2787459,60,29,4365
657,2787846,60,29,4365
658,2788246,62,22,4355
659,2788634,62,22,4355
660,2789032,36,27,4355
661,2789417,36,27,4355
662,2789814,36,27,4355
663,2790208,18,43,4346
664,2790608,18,43,4346
665,2791000,18,43,4346
666,2791400,53,56,4343
667,2791780,53,56,4343
668,2792180,65,46,4372
669,2792574,65,46,4372
670,2792976,65,46,4372
671,2793369,63,29,4356
672,2793743,63,29,4356
673,2794117,63,15,4363
674,2794510,63,15,4363
675,2794897,63,15,4363
676,2795300,49,37,4402
677,2795693,49,37,4402
678,2796087,49,63,4400
679,2796470,49,63,4400
680,2796863,49,63,4400
681,2797256,57,49,4372
682,2797656,57,49,4372
683,2798039,52,38,4362
684,2798431,52,38,4362
685,2798823,52,38,4362
686,2799222,29,36,4375
687,2799616,29,36,4375
688,2800020,30,51,4377
689,2800406,30,51,4377
690,2800801,30,51,4377
691,2801194,46,39,4383
692,2801592,46,39,4383
693,2801989,46,39,4383
694,2802389,34,17,4408
695,2802770,34,17,4408
696,2803168,38,42,4423
697,2803562,38,42,4423
698,2803971,38,42,4423
699,2804358,63,52,4417
700,2804751,63,52,4417
701,2805145,60,45,4432
702,2805546,60,45,4432
703,2805939,60,45,4432
704,2806341,56,39,4417
705,2806729,56,39,4417
706,2807127,51,41,4393
707,2807522,51,41,4393
708,2807921,51,41,4393
709,2808320,12,23,4393
710,2808719,12,23,4393
711,2809114,13,14,4395
712,2809508,13,14,4395
713,2809895,13,14,4395
714,2810297,28,50,4396
715,2810685,28,50,4396
716,2811085,41,60,4398
717,2811472,41,60,4398
718,2811867,41,60,4398
719,2812261,29,65,4396
720,2812660,29,65,4396
721,2813058,18,89,4388
722,2813444,18,89,4388
723,2813840,18,89,4388
724,2814239,42,71,4396
725,2814633,42,71,4396
726,2815041,15,66,4372
727,2815420,15,66,4372
728,2815817,15,66,4372
729,2816210,-1,60,4363
730,2816624,-1,60,4363
731,2817030,38,51,4365
732,2817416,38,51,4365
733,2817806,38,51,4365
734,2818214,48,53,4389
735,2818601,48,53,4389
736,2819005,48,53,4389
737,2819398,11,45,4382
738,2819786,11,45,4382
739,2820180,30,76,4360
740,2820586,30,76,4360
741,2820977,30,76,4360
742,2821376,40,73,4367
743,2821757,40,73,4367
744,2822156,14,61,4374
745,2822552,14,61,4374
746,2822963,14,61,4374
747,2823349,39,62,4380
748,2823744,39,62,4380
749,2824137,35,67,4365
750,2824536,35,67,4365
751,2824929,35,67,4365
752,2825332,20,61,4338
753,2825719,20,61,4338
754,2826118,27,46,4338
755,2826513,27,46,4338
756,2826907,27,46,4338
757,2827291,34,54,4358
758,2827688,34,54,4358
759,2828057,19,34,4366
760,2828430,19,34,4366
761,2828827,19,34,4366
762,2829226,20,37,4342
763,2829626,20,37,4342
764,2830018,34,55,4350
765,2830410,34,55,4350
766,2830799,34,55,4350
767,2831193,32,42,4385
768,2831587,32,42,4385
769,2831989,32,42,4385
770,2832382,34,30,4378
771,2832777,34,30,4378
772,2833162,21,20,4369
773,2833562,21,20,4369
774,2833954,21,20,4369
775,2834352,40,33,4353
776,2834739,40,33,4353
777,2835134,50,53,4358
778,2835528,50,53,4358
779,2835928,50,53,4358
780,2836326,49,45,4391
781,2836720,49,45,4391
782,2837108,78,38,4416
783,2837496,78,38,4416
784,2837885,78,38,4416
785,2838280,62,50,4408
786,2838669,62,50,4408
787,2839070,29,64,4404
788,2839445,29,64,4404
789,2839841,29,64,4404
790,2840229,15,58,4400
791,2840624,15,58,4400
792,2841018,41,61,4374
793,2841409,41,61,4374
794,2841799,41,61,4374
795,2842194,65,57,4349
796,2842582,65,57,4349
797,2842979,65,57,4349
798,2843373,30,57,4354
799,2843752,30,57,4354
800,2844127,40,48,4386
801,2844527,40,48,4386
802,2844914,40,48,4386
803,2845318,51,30,4376
804,2845705,51,30,4376
805,2846099,0,25,4376
806,2846482,0,25,4376
807,2846877,0,25,4376
808,2847264,-1,13,4376
809,2847672,-1,13,4376
810,2848076,31,30,4384
811,2848471,31,30,4384
812,2848859,31,30,4384
813,2849258,25,38,4401
814,2849647,25,38,4401
815,2850044,29,35,4382
816,2850430,29,35,4382
817,2850826,29,35,4382
818,2851220,33,56,4363
819,2851628,33,56,4363
820,2852019,42,62,4352
821,2852411,42,62,4352
822,2852802,42,62,4352
823,2853201,27,55,4384
824,2853594,27,55,4384
825,2853998,27,55,4384
826,2854391,18,54,4368
827,2854777,18,54,4368
828,2855171,15,47,4346
829,2855573,15,47,4346
830,2855971,15,47,4346
831,2856371,-13,53,4376
832,2856766,-13,53,4376
833,2857174,34,71,4375
834,2857562,34,71,4375
835,2857966,34,71,4375
836,2858360,77,42,4348
837,2858748,77,42,4348
838,2859142,42,25,4335
839,2859536,42,25,4335
840,2859929,42,25,4335
841,2860332,28,46,4370
842,2860719,28,46,4370
843,2861119,16,41,4383
844,2861513,16,41,4383
845,2861907,16,41,4383
846,2862307,-14,35,4363
847,2862707,-14,35,4363
848,2863110,1,51,4374
849,2863503,1,51,4374
850,2863890,1,51,4374
851,2864292,13,63,4389
852,2864685,13,63,4389
853,2865084,0,52,4374
854,2865473,0,52,4374
855,2865866,0,52,4374
856,2866260,-11,51,4340
857,2866660,-11,51,4340
858,2867066,8,61,4334
859,2867445,8,61,4334
860,2867840,8,61,4334
861,2868238,41,41,4352
862,2868632,41,41,4352
863,2869040,49,30,4344
864,2869419,49,30,4344
865,2869816,49,30,4344
866,2870209,37,37,4350
867,2870609,37,37,4350
868,2871007,37,37,4350
869,2871399,33,31,4387
870,2871780,33,31,4387
871,2872180,33,44,4405
872,2872573,33,44,4405
873,2872978,33,44,4405
874,2873365,53,61,4378
875,2873752,53,61,4378
876,2874146,45,44,4361
877,2874546,45,44,4361
878,2874940,45,44,4361
879,2875343,3,27,4384
880,2875731,3,27,4384
881,2876130,15,45,4373
882,2876523,15,45,4373
883,2876922,15,45,4373
884,2877317,38,43,4363
885,2877716,38,43,4363
886,2878102,34,36,4379
887,2878495,34,36,4379
888,2878889,34,36,4379
889,2879292,37,24,4385
890,2879685,37,24,4385
891,2880086,42,35,4393
892,2880471,42,35,4393
893,2880865,42,35,4393
894,2881258,40,66,4378
895,2881658,40,66,4378
896,2882056,33,56,4374
897,2882436,33,56,4374
898,2882827,33,56,4374
899,2883218,38,21,4376
900,2883593,38,21,4376
901,2883996,38,21,4376
902,2884384,64,28,4359
903,2884771,64,28,4359
904,2885159,27,51,4353
905,2885554,27,51,4353
906,2885943,27,51,4353
907,2886347,25,39,4360
908,2886736,25,39,4360
909,2887135,47,35,4381
910,2887525,47,35,4381
911,2887918,47,35,4381
912,2888311,-4,30,4360
913,2888712,-4,30,4360
914,2889113,11,27,4340
915,2889516,11,27,4340
916,2889904,11,27,4340
917,2890308,60,53,4369
918,2890698,60,53,4369
919,2891091,60,67,4398
920,2891474,60,67,4398
921,2891868,60,67,4398
922,2892262,64,50,4377
923,2892657,64,50,4377
924,2893054,69,61,4353
925,2893440,69,61,4353
926,2893823,69,61,4353
927,2894205,31,55,4367
928,2894599,31,55,4367
929,2895003,31,55,4367
930,2895390,-18,40,4355
931,2895785,-18,40,4355
932,2896186,14,39,4349
933,2896581,14,39,4349
934,2896972,14,39,4349
935,2897366,73,37,4359
936,2897747,73,37,4359
937,2898142,58,19,4367
938,2898532,58,19,4367
939,2898930,58,19,4367
940,2899328,37,4,4344
941,2899722,37,4,4344
942,2900115,74,26,4343
943,2900508,74,26,4343
944,2900902,74,26,4343
945,2901305,72,42,4378
946,2901699,72,42,4378
947,2902104,16,53,4384
948,2902486,16,53,4384
949,2902885,16,53,4384
950,2903285,54,47,4385
951,2903683,54,47,4385
952,2904077,64,34,4388
953,2904472,64,34,4388
954,2904860,64,34,4388
955,2905259,9,55,4381
956,2905652,9,55,4381
957,2906056,59,58,4401
958,2906436,59,58,4401
959,2906829,59,58,4401
960,2907221,88,44,4422
961,2907626,88,44,4422
962,2908024,24,43,4402
963,2908410,24,43,4402
964,2908800,24,43,4402
965,2909200,4,40,4376
966,2909593,4,40,4376
967,2909996,4,40,4376
968,2910390,51,31,4365
969,2910777,51,31,4365
970,2911170,51,25,4392
971,2911570,51,25,4392
972,2911975,51,25,4392
973,2912367,16,31,4372
974,2912748,16,31,4372
975,2913148,48,32,4369
976,2913537,48,32,4369
977,2913931,48,32,4369
978,2914328,64,40,4371
979,2914727,64,40,4371
980,2915121,16,37,4367
981,2915525,16,37,4367
982,2915917,16,37,4367
983,2916320,7,42,4384
984,2916707,7,42,4384
985,2917106,34,50,4357
986,2917494,34,50,4357
987,2917894,34,50,4357
988,2918291,45,66,4364
989,2918690,45,66,4364
990,2919084,27,50,4370
991,2919481,27,50,4370
992,2919870,27,50,4370
993,2920269,21,18,4389
994,2920661,21,18,4389
995,2921071,45,34,4400
996,2921445,45,34,4400
997,2921843,45,34,4400
998,2922237,53,37,4386
999,2922634,53,37,4386
1000,2923030,34,50,4416
1001,2923421,34,50,4416
1002,2923812,34,50,4416
1003,2924211,50,76,4415
1004,2924605,50,76,4415
1005,2925010,80,65,4365
1006,2925395,80,65,4365
1007,2925783,80,65,4365
1008,2926177,39,45,4337
1009,2926577,39,45,4337
1010,2926975,39,45,4337
1011,2927354,18,56,4361
1012,2927735,18,56,4361
1013,2928133,63,62,4388
1014,2928531,63,62,4388
1015,2928918,63,62,4388
1016,2929310,56,55,4355
1017,2929705,56,55,4355
1018,2930093,30,48,4316
1019,2930482,30,48,4316
1020,2930870,30,48,4316
1021,2931264,49,30,4348
1022,2931653,49,30,4348
1023,2932051,53,21,4388
1024,2932432,53,21,4388
1025,2932830,53,21,4388
1026,2933219,25,23,4347
1027,2933619,25,23,4347
1028,2934013,10,40,4312
1029,2934404,10,40,4312
1030,2934796,10,40,4312
1031,2935190,56,48,4344
1032,2935578,56,48,4344
1033,2935975,56,48,4344
1034,2936363,70,44,4358
1035,2936750,70,44,4358
1036,2937138,24,26,4380
1037,2937535,24,26,4380
1038,2937924,24,26,4380
1039,2938326,16,14,4376
1040,2938715,16,14,4376
1041,2939110,17,47,4350
1042,2939493,17,47,4350
1043,2939888,17,47,4350
1044,2940276,19,63,4395
1045,2940671,19,63,4395
1046,2941063,32,59,4392
1047,2941444,32,59,4392
1048,2941835,32,59,4392
1049,2942229,60,74,4365
1050,2942617,60,74,4365
1051,2943016,65,77,4382
1052,2943397,65,77,4382
1053,2943777,65,77,4382
1054,2944155,58,55,4384
1055,2944550,58,55,4384
1056,2944949,58,55,4384
1057,2945343,59,59,4380
1058,2945730,59,59,4380
1059,2946131,33,53,4350
1060,2946515,33,53,4350
1061,2946915,33,53,4350
1062,2947313,24,40,4364
1063,2947712,24,40,4364
1064,2948106,30,41,4385
1065,2948497,30,41,4385
1066,2948884,30,41,4385
1067,2949280,32,39,4376
1068,2949669,32,39,4376
1069,2950072,33,54,4378
1070,2950447,33,54,4378
1071,2950843,33,54,4378
1072,2951232,49,47,4396
1073,2951632,49,47,4396
1074,2952025,58,48,4416
1075,2952417,58,48,4416
1076,2952809,58,48,4416
1077,2953208,41,48,4379
1078,2953596,41,48,4379
1079,2954001,41,48,4379
1080,2954387,58,32,4361
1081,2954774,58,32,4361
1082,2955163,48,29,4350
1083,2955560,48,29,4350
1084,2955954,48,29,4350
1085,2956354,-16,35,4353
1086,2956749,-16,35,4353
1087,2957156,2,44,4355
1088,2957552,2,44,4355
1089,2957950,2,44,4355
1090,2958344,51,37,4358
1091,2958737,51,37,4358
1092,2959132,20,41,4362
1093,2959521,20,41,4362
1094,2959908,20,41,4362
1095,2960310,16,52,4362
1096,2960679,16,52,4362
1097,2961063,61,54,4384
1098,2961436,61,54,4384
1099,2961834,61,54,4384
1100,2962234,28,67,4359
1101,2962628,28,67,4359
1102,2963024,-5,49,4329
1103,2963423,-5,49,4329
1104,2963820,-5,49,4329
1105,2964232,18,42,4368
1106,2964618,18,42,4368
1107,2965029,49,56,4400
1108,2965409,49,56,4400
1109,2965806,49,56,4400
1110,2966199,26,42,4390
1111,2966598,26,42,4390
1112,2966996,26,42,4390
1113,2967396,11,51,4377
1114,2967777,11,51,4377
1115,2968176,54,64,4400
1116,2968572,54,64,4400
1117,2968976,54,64,4400
1118,2969370,20,41,4432
1119,2969758,20,41,4432
1120,2970151,8,31,4405
1121,2970546,8,31,4405
1122,2970940,8,31,4405
1123,2971341,69,42,4388
1124,2971730,69,42,4388
1125,2972128,46,64,4416
1126,2972524,46,64,4416
1127,2972923,46,64,4416
1128,2973321,25,75,4413
1129,2973727,25,75,4413
1130,2974114,25,57,4409
1131,2974516,25,57,4409
1132,2974904,25,57,4409
1133,2975309,2,28,4392
1134,2975701,2,28,4392
1135,2976102,37,21,4378
1136,2976486,37,21,4378
1137,2976886,37,21,4378
1138,2977285,80,55,4401
1139,2977684,80,55,4401
1140,2978078,34,56,4396
1141,2978474,34,56,4396
1142,2978862,34,56,4396
1143,2979262,2,49,4412
1144,2979655,2,49,4412
1145,2980060,33,62,4407
1146,2980440,33,62,4407
1147,2980837,33,62,4407
1148,2981231,35,54,4396
1149,2981631,35,54,4396
1150,2982028,54,61,4358
1151,2982419,54,61,4358
1152,2982810,54,61,4358
1153,2983209,55,64,4340
1154,2983603,55,64,4340
1155,2984006,39,45,4395
1156,2984400,39,45,4395
1157,2984787,39,45,4395
1158,2985180,38,45,4391
1159,2985580,38,45,4391
1160,2985978,38,45,4391
1161,2986378,66,54,4377
1162,2986760,66,54,4377
1163,2987159,75,66,4353
1164,2987556,75,66,4353
1165,2987967,75,66,4353
1166,2988354,6,66,4353
1167,2988748,6,66,4353
1168,2989141,-10,49,4339
1169,2989557,-10,49,4339
1170,2989963,-10,49,4339
1171,2990370,16,41,4292
1172,2990751,16,41,4292
1173,2991150,0,35,4342
1174,2991544,0,35,4342
1175,2991954,0,35,4342
1176,2992341,24,29,4413
1177,2992735,24,29,4413
1178,2993129,61,45,4408
1179,2993531,61,45,4408
1180,2993917,61,45,4408
1181,2994309,57,58,4365
1182,2994698,57,58,4365
1183,2995097,46,52,4380
1184,2995487,46,52,4380
1185,2995887,46,52,4380
1186,2996286,28,33,4390
1187,2996685,28,33,4390
1188,2997078,51,45,4391
1189,2997473,51,45,4391
1190,2997860,51,45,4391
1191,2998254,36,51,4359
1192,2998648,36,51,4359
1193,2999052,26,20,4338
1194,2999433,26,20,4338
1195,2999830,26,20,4338
1196,3000224,73,31,4371
1197,3000624,73,31,4371
1198,3001022,63,68,4372
1199,3001412,63,68,4372
1200,3001803,63,68,4372
1201,3002203,43,75,4357
1202,3002596,43,75,4357
1203,3003002,52,63,4330
1204,3003395,52,63,4330
1205,3003783,52,63,4330
1206,3004175,57,65,4347
1207,3004578,57,65,4347
1208,3004976,57,65,4347
1209,3005377,48,50,4376
1210,3005758,48,50,4376
1211,3006157,26,40,4371
1212,3006552,26,40,4371
1213,3006939,26,40,4371
1214,3007337,18,72,4350
1215,3007733,18,72,4350
1216,3008119,54,56,4352
1217,3008520,54,56,4352
1218,3008907,54,56,4352
1219,3009311,42,28,4392
1220,3009705,42,28,4392
1221,3010104,11,50,4385
1222,3010494,11,50,4385
1223,3010894,11,50,4385
1224,3011292,41,47,4379
1225,3011690,41,47,4379
1226,3012085,31,39,4359
1227,3012481,31,39,4359
1228,3012869,31,39,4359
1229,3013269,17,43,4342
1230,3013662,17,43,4342
1231,3014065,57,41,4361
1232,3014445,57,41,4361
1233,3014844,57,41,4361
1234,3015238,60,42,4341
1235,3015638,60,42,4341
1236,3016035,31,39,4331
1237,3016428,31,39,4331
1238,3016820,31,39,4331
1239,3017219,36,47,4352
1240,3017613,36,47,4352
1241,3018017,30,66,4369
1242,3018403,30,66,4369
1243,3018799,30,66,4369
1244,3019193,17,49,4385
1245,3019593,17,49,4385
1246,3019990,17,49,4385
1247,3020388,34,32,4379
1248,3020769,34,32,4379
1249,3021168,44,56,4376
1250,3021563,44,56,4376
1251,3021967,44,56,4376
1252,3022361,34,63,4404
1253,3022754,34,63,4404
1254,3023142,36,47,4390
1255,3023542,36,47,4390
1256,3023936,36,47,4390
1257,3024336,49,35,4384
1258,3024726,49,35,4384
1259,3025125,41,53,4398
1260,3025522,41,53,4398
1261,3025916,41,53,4398
1262,3026314,13,64,4393
1263,3026713,13,64,4393
1264,3027108,3,55,4378
1265,3027488,3,55,4378
1266,3027875,3,55,4378
1267,3028274,21,61,4364
1268,3028669,21,61,4364
1269,3029070,18,53,4363
1270,3029464,18,53,4363
1271,3029856,18,53,4363
1272,3030249,16,47,4360
1273,3030649,16,47,4360
1274,3031047,43,52,4348
1275,3031438,43,52,4348
1276,3031830,43,52,4348
1277,3032229,45,48,4385
1278,3032624,45,48,4385
1279,3033026,42,41,4381
1280,3033413,42,41,4381
1281,3033810,42,41,4381
1282,3034204,62,58,4369
1283,3034604,62,58,4369
1284,3035002,58,70,4364
1285,3035403,58,70,4364
1286,3035783,58,70,4364
1287,3036183,35,52,4340
1288,3036576,35,52,4340
1289,3036980,35,52,4340
1290,3037373,21,51,4367
1291,3037760,21,51,4367
1292,3038156,29,64,4384
1293,3038549,29,64,4384
1294,3038942,29,64,4384
1295,3039345,40,81,4365
1296,3039734,40,81,4365
1297,3040134,42,61,4363
1298,3040528,42,61,4363
1299,3040928,42,61,4363
1300,3041325,37,49,4387
1301,3041719,37,49,4387
1302,3042114,27,46,4399
1303,3042517,27,46,4399
1304,3042903,27,46,4399
1305,3043308,5,43,4400
1306,3043701,5,43,4400
1307,3044076,1,94,4373
1308,3044463,1,94,4373
1309,3044851,1,94,4373
1310,3045245,25,99,4410
1311,3045645,25,99,4410
1312,3046041,38,69,4429
1313,3046432,38,69,4429
1314,3046824,38,69,4429
1315,3047223,26,59,4363
1316,3047616,26,59,4363
1317,3048020,26,40,4305
1318,3048406,26,40,4305
1319,3048801,26,40,4305
1320,3049191,27,41,4314
1321,3049591,27,41,4314
1322,3049988,27,41,4314
1323,3050388,12,49,4348
1324,3050769,12,49,4348
1325,3051168,25,56,4339
1326,3051562,25,56,4339
1327,3051966,25,56,4339
1328,3052360,29,47,4336
1329,3052754,29,47,4336
1330,3053149,29,40,4357
1331,3053550,29,40,4357
1332,3053938,29,40,4357
1333,3054336,50,49,4369
1334,3054723,50,49,4369
1335,3055123,81,52,4354
1336,3055519,81,52,4354
1337,3055911,81,52,4354
1338,3056310,85,61,4367
1339,3056709,85,61,4367
1340,3057103,66,55,4363
1341,3057498,66,55,4363
1342,3057892,66,55,4363
1343,3058295,42,34,4392
1344,3058684,42,34,4392
1345,3059078,25,46,4395
1346,3059463,25,46,4395
1347,3059851,25,46,4395
1348,3060239,9,50,4327
1349,3060639,9,50,4327
1350,3061029,-12,43,4315
1351,3061429,-12,43,4315
1352,3061828,-12,43,4315
1353,3062230,9,49,4332
1354,3062618,9,49,4332
1355,3063016,20,47,4345
1356,3063403,20,47,4345
1357,3063800,20,47,4345
1358,3064188,16,42,4334
1359,3064582,16,42,4334
1360,3064971,16,42,4334
1361,3065368,47,24,4322
1362,3065749,47,24,4322
1363,3066144,78,35,4348
1364,3066532,78,35,4348
1365,3066919,78,35,4348
1366,3067305,81,46,4382
1367,3067692,81,46,4382
1368,3068080,76,30,4372
1369,3068473,76,30,4372
1370,3068853,76,30,4372
1371,3069250,54,13,4373
1372,3069637,54,13,4373
1373,3070036,69,20,4337
1374,3070416,69,20,4337
1375,3070793,69,20,4337
1376,3071173,77,32,4290
1377,3071574,77,32,4290
1378,3071980,77,32,4290
1379,3072380,67,37,4309
1380,3072761,67,37,4309
1381,3073160,62,54,4305
1382,3073557,62,54,4305
1383,3073956,62,54,4305
1384,3074350,34,68,4312
1385,3074744,34,68,4312
1386,3075137,15,94,4332
1387,3075540,15,94,4332
1388,3075933,15,94,4332
1389,3076336,10,82,4318
1390,3076725,10,82,4318
1391,3077126,14,33,4313
1392,3077516,14,33,4313
1393,3077911,14,33,4313
1394,3078309,25,44,4333
1395,3078702,25,44,4333
1396,3079096,34,58,4370
1397,3079490,34,58,4370
1398,3079878,34,58,4370
1399,3080277,28,39,4368
1400,3080671,28,39,4368
1401,3081072,61,34,4360
1402,3081463,61,34,4360
1403,3081856,61,34,4360
1404,3082250,100,70,4369
1405,3082649,100,70,4369
1406,3083048,116,81,4378
1407,3083440,116,81,4378
1408,3083831,116,81,4378
1409,3084231,95,50,4384
1410,3084626,95,50,4384
1411,3085021,78,43,4353
1412,3085404,78,43,4353
1413,3085801,78,43,4353
1414,3086195,67,51,4344
1415,3086594,67,51,4344
1416,3087000,21,52,4378
1417,3087393,21,52,4378
1418,3087774,21,52,4378
1419,3088173,-12,50,4366
1420,3088583,-12,50,4366
1421,3088995,-12,50,4366
1422,3089390,-7,42,4347
1423,3089784,-7,42,4347
1424,3090182,0,49,4371
1425,3090576,0,49,4371
1426,3090969,0,49,4371
1427,3091362,0,61,4358
1428,3091743,0,61,4358
1429,3092138,7,37,4340
1430,3092526,7,37,4340
1431,3092925,7,37,4340
1432,3093321,16,36,4347
1433,3093715,16,36,4347
1434,3094084,47,37,4362
1435,3094479,47,37,4362
1436,3094865,47,37,4362
1437,3095265,61,29,4351
1438,3095659,61,29,4351
1439,3096062,46,37,4347
1440,3096443,46,37,4347
1441,3096840,46,37,4347
1442,3097234,49,44,4372
1443,3097634,49,44,4372
1444,3098030,54,39,4358
1445,3098423,54,39,4358
1446,3098814,54,39,4358
1447,3099213,56,21,4347
1448,3099602,56,21,4347
1449,3100002,54,10,4383
1450,3100396,54,10,4383
1451,3100782,54,10,4383
1452,3101170,25,23,4375
1453,3101568,25,23,4375
1454,3101962,25,23,4375
1455,3102361,5,40,4346
1456,3102742,5,40,4346
1457,3103142,0,45,4343
1458,3103533,0,45,4343
1459,3103926,0,45,4343
1460,3104324,-13,54,4353
1461,3104726,-13,54,4353
1462,3105127,-22,53,4376
1463,3105536,-22,53,4376
1464,3105937,-22,53,4376
1465,3106354,-10,43,4399
1466,3106749,-10,43,4399
1467,3107156,-1,42,4410
1468,3107550,-1,42,4410
1469,3107970,-1,42,4410
1470,3108364,22,62,4373
1471,3108759,22,62,4373
1472,3109147,53,76,4344
1473,3109546,53,76,4344
1474,3109940,53,76,4344
1475,3110344,52,53,4344
1476,3110732,52,53,4344
1477,3111126,68,45,4373
1478,3111517,68,45,4373
1479,3111911,68,45,4373
1480,3112310,71,61,4416
1481,3112708,71,61,4416
1482,3113102,62,74,4415
1483,3113497,62,74,4415
1484,3113891,62,74,4415
1485,3114293,64,55,4388
1486,3114688,64,55,4388
1487,3115087,63,29,4374
1488,3115479,63,29,4374
1489,3115868,63,29,4374
1490,3116260,75,44,4366
1491,3116659,75,44,4366
1492,3117057,66,60,4345
1493,3117444,66,60,4345
1494,3117845,66,60,4345
1495,3118244,27,44,4344
1496,3118638,27,44,4344
1497,3119041,25,42,4348
1498,3119428,25,42,4348
1499,3119824,25,42,4348
1500,3120218,63,54,4311
1501,3120618,63,54,4311
1502,3121016,52,47,4291
1503,3121408,52,47,4291
1504,3121798,52,47,4291
1505,3122197,22,42,4335
1506,3122590,22,42,4335
1507,3122994,46,40,4390
1508,3123387,46,40,4390
1509,3124010,65,49,4404
1510,3125010,60,54,4375
1511,3126009,68,49,4390
1512,3127010,69,63,4394
1513,3128010,52,69,4372
1514,3129010,34,59,4379
1515,3130010,29,50,4380
1516,3131010,9,49,4369
1517,3132009,18,61,4371
1518,3133010,36,60,4371
1519,3134010,27,58,4398
1520,3135010,30,59,4416
1521,3136010,22,50,4397
1522,3137010,38,57,4401
1523,3138010,62,66,4389
1524,3139010,54,60,4391
1525,3140010,64,58,4357
1526,3141010,57,57,4343
1527,3142009,47,60,4373
1528,3143010,41,57,4376
1529,3144010,39,53,4365
1530,3145010,54,54,4374
1531,3146009,46,46,4377
1532,3147010,47,43,4355
1533,3148009,47,56,4346
1534,3149010,25,43,4377
1535,3150010,16,30,4400
1536,3151010,36,47,4375
1537,3152010,40,49,4377
1538,3153010,55,41,4359
1539,3154010,62,47,4342
1540,3155010,37,65,4355
1541,3156010,19,45,4366
1542,3157010,22,33,4396
1543,3158010,39,39,4419
1544,3159010,46,32,4407
1545,3160010,40,36,4404
1546,3161010,9,41,4392
1547,3162010,14,56,4343
1548,3163010,48,52,4337
1549,3164010,49,48,4364
1550,3165010,36,50,4366
1551,3166010,30,41,4358
1552,3167010,32,42,4369
1553,3168010,35,63,4378
1554,3169010,48,64,4401
1555,3170010,52,44,4408
1556,3171010,51,30,4388
1557,3172010,37,42,4393
1558,3173010,19,61,4389
1559,3174009,38,51,4379
1560,3175010,35,34,4383
1561,3176009,32,36,4391
1562,3177010,42,62,4395
1563,3178010,30,47,4379
1564,3179010,30,27,4397
1565,3180010,37,33,4414
1566,3181010,43,38,4386
1567,3182010,32,54,4366
1568,3183010,38,66,4380
1569,3184010,53,64,4394
1570,3185010,44,53,4381
1571,3186010,49,42,4369
1572,3187010,50,45,4395
1573,3188010,38,52,4413
1574,3189010,34,49,4390
1575,3190010,46,52,4394
1576,3191010,63,46,4384
1577,3192010,67,43,4360
1578,3193010,57,46,4353
1579,3194010,43,54,4350
1580,3195010,44,60,4385
1581,3196010,47,69,4403
1582,3197009,45,60,4372
1583,3198010,33,35,4373
1584,3199010,34,35,4396
1585,3200010,31,48,4421
1586,3201010,5,56,4406
1587,3202009,21,46,4358
1588,3203010,27,44,4362
1589,3204010,5,35,4382
1590,3205010,18,24,4372
1591,3206010,32,44,4373
1592,3207010,41,62,4368
1593,3208009,51,62,4350
1594,3209010,38,51,4382
1595,3210010,40,59,4415
1596,3211010,45,67,4397
1597,3212010,31,41,4386
1598,3213010,32,40,4401
1599,3214010,30,59,4367
1600,3215010,21,40,4333
1601,3216009,6,21,4350
1602,3217010,20,45,4399
1603,3218010,65,64,4403
1604,3219010,64,62,4350
1605,3220010,40,63,4362
1606,3221010,32,71,4383
1607,3222010,50,74,4373
1608,3223009,55,57,4400
1609,3224010,49,46,4398
1610,3225010,60,50,4346
1611,3226010,53,58,4360
1612,3227010,38,61,4393
1613,3228010,47,62,4379
1614,3229009,46,55,4377
1615,3230010,22,46,4387
1616,3231010,21,51,4373
1617,3232010,35,56,4359
1618,3233010,29,49,4377
1619,3234010,44,40,4399
1620,3235009,49,49,4391
1621,3236010,42,58,4374
1622,3237010,52,63,4350
1623,3238010,33,66,4356
1624,3239010,42,63,4386
1625,3240010,55,61,4388
1626,3241010,43,56,4390
1627,3242010,31,57,4395
1628,3243010,23,66,4370
1629,3244010,29,47,4340
1630,3245010,33,29,4356
1631,3246010,27,27,4379
1632,3247010,11,28,4390
1633,3248010,12,43,4401
1634,3249010,27,60,4390
1635,3250010,41,44,4382
1636,3251010,29,31,4388
1637,3252010,19,56,4372
1638,3253010,31,48,4368
1639,3254010,33,23,4370
1640,3255010,27,49,4363
1641,3256010,30,76,4360
1642,3257010,34,70,4375
1643,3258010,25,68,4363
1644,3259010,26,67,4346
1645,3260010,32,59,4341
1646,3261010,41,50,4350
1647,3262009,53,48,4384
1648,3263010,50,58,4385
1649,3264010,57,55,4383
1650,3265010,60,47,4387
1651,3266010,61,47,4371
1652,3267010,59,45,4353
1653,3268010,60,36,4350
1654,3269009,64,31,4385
1655,3270010,45,47,4392
1656,3271010,31,60,4354
1657,3272010,33,54,4367
1658,3273010,45,46,4385
1659,3274009,40,64,4392
1660,3275010,35,63,4383
1661,3276010,46,43,4359
1662,3277010,47,48,4357
1663,3278010,40,53,4390
1664,3279010,50,54,4408
1665,3280009,51,40,4384
1666,3281010,52,44,4374
1667,3282009,55,70,4382
1668,3283010,44,61,4393
1669,3284010,42,50,4400
1670,3285010,53,46,4389
1671,3286010,55,43,4369
1672,3287010,35,50,4387
1673,3288010,34,54,4403
1674,3289010,35,48,4384
1675,3290010,24,27,4359
1676,3291010,15,30,4341
1677,3292010,22,51,4351
1678,3293010,41,34,4378
1679,3294010,50,7,4389
1680,3295010,57,19,4368
1681,3296010,40,54,4360
1682,3297009,29,67,4372
1683,3298010,51,58,4357
1684,3299010,49,58,4368
1685,3300010,42,63,4367
1686,3301010,46,59,4352
1687,3302010,37,54,4375
1688,3303010,38,36,4393
1689,3304010,35,37,4396
1690,3305009,43,51,4386
1691,3306010,58,45,4375
1692,3307010,53,38,4364
1693,3308009,35,44,4375
1694,3309010,36,45,4378
1695,3310010,57,54,4355
1696,3311009,39,75,4357
1697,3312009,34,50,4366
1698,3313010,43,16,4374
1699,3314010,57,37,4407
1700,3315010,62,65,4404
1701,3316010,46,62,4363
1702,3317010,54,51,4340
1703,3318010,47,52,4328
1704,3319010,43,47,4350
1705,3320010,31,36,4387
1706,3321010,32,43,4383
1707,3322010,47,42,4398
1708,3323010,48,42,4404
1709,3324010,52,45,4372
1710,3325010,52,44,4358
1711,3326009,49,61,4378
1712,3327010,54,75,4405
1713,3328010,39,61,4394
1714,3329010,23,56,4377
1715,3330010,49,57,4363
1716,3331010,51,57,4373
1717,3332010,32,55,4391
1718,3333010,28,63,4399
1719,3334010,53,61,4419
1720,3335010,51,48,4416
1721,3336009,12,49,4374
1722,3337010,19,57,4346
1723,3338010,16,50,4349
1724,3339010,17,52,4366
1725,3340009,49,69,4369
1726,3341010,80,48,4375
1727,3342010,71,33,4367
1728,3343010,45,50,4356
1729,3344009,38,55,4393
1730,3345010,34,41,4382
1731,3346010,45,49,4338
1732,3347010,58,51,4379
1733,3348010,50,46,4404
1734,3349010,43,49,4351
1735,3350010,50,23,4335
1736,3351009,49,26,4371
1737,3352010,40,61,4399
1738,3353009,34,67,4382
1739,3354010,46,56,4369
1740,3355010,29,43,4377
1741,3356010,32,47,4396
1742,3357010,49,47,4399
1743,3358010,52,32,4376
1744,3359010,60,42,4374
1745,3360009,49,54,4367
1746,3361010,45,54,4361
1747,3362010,48,36,4397
1748,3363009,36,23,4395
1749,3364010,49,43,4394
1750,3365010,71,54,4409
1751,3366010,41,57,4371
1752,3367009,22,68,4378
1753,3368010,26,62,4395
1754,3369010,33,54,4377
1755,3370010,62,53,4384
1756,3371010,49,45,4403
1757,3372010,45,47,4382
1758,3373010,48,66,4368
1759,3374010,27,73,4386
1760,3375010,42,64,4379
1761,3376010,45,49,4366
1762,3377009,32,39,4363
1763,3378010,40,42,4383
1764,3379009,42,47,4381
1765,3380010,23,53,4348
1766,3381010,37,64,4340
1767,3382010,61,49,4347
1768,3383010,40,39,4349
1769,3384010,24,55,4376
1770,3385010,30,56,4374
1771,3386010,36,58,4362
1772,3387009,43,66,4384
1773,3388010,43,49,4374
1774,3389010,44,46,4367
1775,3390010,43,66,4370
1776,3391010,50,49,4369
1777,3392010,46,32,4380
1778,3393010,26,33,4383
1779,3394010,40,35,4373
1780,3395010,61,38,4367
1781,3396010,58,49,4367
1782,3397010,55,60,4375
1783,3398010,57,53,4383
1784,3399010,48,14,4366
1785,3400010,48,14,4361
1786,3401010,45,43,4361
1787,3402010,45,45,4361
1788,3403010,40,38,4358
1789,3404010,25,34,4360
1790,3405010,37,26,4365
1791,3406010,35,20,4371
1792,3407010,23,29,4354
1793,3408010,19,40,4345
1794,3409010,26,57,4361
1795,3410010,52,51,4372
1796,3411010,54,35,4407
1797,3412010,46,44,4425
1798,3413010,48,67,4404
1799,3414010,25,72,4378
1800,3415010,27,51,4388
1801,3416010,44,42,4376
1802,3417010,39,45,4365
1803,3418010,26,47,4381
1804,3419010,9,52,4382
1805,3420010,12,62,4389
1806,3421010,37,48,4399
1807,3422010,33,31,4385
1808,3423010,17,54,4364
1809,3424010,40,71,4362
1810,3425010,34,61,4363
1811,3426010,24,40,4376
1812,3427010,40,42,4380
1813,3428010,55,44,4419
1814,3429010,42,26,4425
1815,3430010,26,44,4384
1816,3431010,44,54,4388
1817,3432010,52,56,4365
1818,3433010,47,53,4393
1819,3434010,50,43,4436
1820,3435010,41,56,4402
1821,3436009,35,52,4376
1822,3437010,32,57,4396
1823,3438010,26,71,4415
1824,3439010,33,60,4417
1825,3440010,42,49,4402
1826,3441009,51,43,4389
1827,3442009,33,28,4390
1828,3443009,35,26,4395
1829,3444010,56,49,4384
1830,3445010,44,75,4373
1831,3446010,17,64,4373
1832,3447010,13,53,4383
1833,3448010,29,56,4394
1834,3449010,26,48,4386
1835,3450010,18,59,4379
1836,3451010,47,53,4388
1837,3452010,51,47,4396
1838,3453009,47,52,4397
1839,3454010,43,52,4411
1840,3455010,25,54,4413
1841,3456009,37,47,4385
1842,3457010,40,43,4370
1843,3458009,36,40,4376
1844,3459010,29,27,4372
1845,3460010,22,32,4356
1846,3461010,20,53,4354
1847,3462010,27,54,4366
1848,3463009,26,46,4385
1849,3464010,24,39,4420
1850,3465010,29,48,4387
1851,3466010,49,45,4350
1852,3467010,63,48,4372
1853,3468010,47,63,4371
1854,3469010,46,52,4387
1855,3470010,39,46,4379
1856,3471009,36,49,4386
1857,3472010,37,42,4417
1858,3473010,34,35,4410
1859,3474010,42,22,4393
1860,3475010,34,36,4375
1861,3476010,23,52,4362
1862,3477010,48,35,4380
1863,3478010,58,40,4379
1864,3479009,42,57,4363
1865,3480010,37,57,4396
1866,3481010,39,63,4401
1867,3482010,41,58,4377
1868,3483009,30,49,4338
1869,3484010,36,55,4349
1870,3485010,46,58,4373
1871,3486010,37,63,4386
1872,3487010,46,58,4393
1873,3488010,64,44,4372
1874,3489010,43,16,4373
1875,3490010,36,27,4364
1876,3491010,45,60,4378
1877,3492010,41,49,4370
1878,3493010,47,49,4380
1879,3494009,45,39,4389
1880,3495009,50,52,4380
1881,3496010,47,88,4405
1882,3497010,37,79,4385
1883,3498010,53,61,4383
1884,3499010,52,47,4408
1885,3500010,50,43,4372
1886,3501010,58,49,4336
1887,3502010,33,62,4370
1888,3503010,28,74,4387
1889,3504010,55,62,4377
1890,3505010,50,34,4369
1891,3506010,36,26,4365
1892,3507010,39,32,4374
1893,3508010,50,26,4388
1894,3509010,49,28,4379
1895,3510010,46,46,4369
1896,3511010,55,46,4380
1897,3512010,48,50,4356
1898,3513009,34,52,4358
1899,3514010,33,51,4387
1900,3515010,33,50,4379
1901,3516010,16,57,4381
1902,3517010,29,60,4390
1903,3518009,37,61,4378
1904,3519010,19,67,4362
1905,3520010,23,55,4356
1906,3521009,36,46,4355
1907,3522010,47,55,4335
1908,3523010,36,66,4343
1909,3524010,39,63,4354
1910,3525010,48,57,4345
1911,3526010,48,62,4377
1912,3527009,41,50,4383
1913,3528010,34,27,4387
1914,3529010,35,33,4391
1915,3530010,26,49,4368
1916,3531010,22,48,4361
1917,3532010,10,71,4374
1918,3533010,23,80,4384
1919,3534010,34,57,4391
1920,3535010,51,55,4405
1921,3536010,67,39,4400
1922,3537010,63,38,4406
1923,3538010,67,60,4382
1924,3539010,43,59,4319
1925,3540010,43,50,4344
1926,3541010,65,39,4378
1927,3542010,67,30,4375
1928,3543010,60,42,4381
1929,3544010,39,57,4385
1930,3545010,25,72,4407
1931,3546010,34,70,4423
1932,3547010,32,54,4417
1933,3548010,20,42,4400
1934,3549010,31,59,4393
1935,3550010,41,52,4401
1936,3551010,37,32,4411
1937,3552010,24,48,4412
1938,3553010,35,47,4397
1939,3554010,42,61,4370
1940,3555010,8,83,4364
1941,3556009,-13,80,4368
1942,3557009,9,74,4367
1943,3558010,16,57,4406
1944,3559009,21,60,4424
1945,3560010,30,61,4377
1946,3561010,17,54,4359
1947,3562010,9,45,4383
1948,3563010,32,57,4365
1949,3564010,51,77,4349
1950,3565010,47,61,4367
1951,3566009,58,48,4369
1952,3567010,60,33,4370
1953,3568010,51,39,4369
1954,3569009,64,48,4380
1955,3570010,53,45,4405
1956,3571009,26,34,4415
1957,3572010,41,17,4386
1958,3573010,35,10,4356
1959,3574010,21,20,4371
1960,3575010,26,31,4375
1961,3576010,39,37,4374
1962,3577010,69,40,4382
1963,3578010,69,23,4384
1964,3579010,38,32,4389
1965,3580010,54,57,4349
1966,3581010,57,56,4344
1967,3582010,38,51,4373
1968,3583010,59,58,4374
1969,3584010,52,65,4383
1970,3585010,42,52,4389
1971,3586010,64,42,4389
1972,3587010,59,46,4392
1973,3588010,20,57,4400
1974,3589010,17,61,4373
1975,3590010,24,52,4365
1976,3591010,22,52,4381
1977,3592010,30,64,4402
1978,3593010,31,71,4401
1979,3594010,49,67,4366
1980,3595010,63,65,4364
1981,3596010,52,43,4368
1982,3597010,27,30,4368
1983,3598010,9,43,4354
1984,3599010,14,54,4369
1985,3600010,32,55,4387
1986,3601010,18,37,4351
1987,3602010,8,42,4367
1988,3603010,25,46,4365
1989,3604010,32,47,4337
1990,3605010,27,54,4376
1991,3606010,11,41,4372
1992,3607010,-1,40,4371
1993,3608010,24,36,4379
1994,3609010,29,43,4349
1995,3610009,16,54,4361
1996,3611010,23,39,4381
1997,3612010,20,22,4387
1998,3613010,30,37,4396
1999,3614010,49,58,4400
2000,3615010,64,45,4390
2001,3616009,38,53,4376
2002,3617010,20,77,4355
2003,3618010,43,62,4357
2004,3619010,53,51,4390
2005,3620010,54,34,4391
2006,3621010,58,28,4376
2007,3622010,62,60,4361
2008,3623010,46,75,4356
2009,3624010,48,69,4365
2010,3625010,71,57,4384
2011,3626010,61,53,4381
2012,3627009,65,46,4375
2013,3628010,73,36,4392
2014,3629010,50,37,4379
2015,3630009,41,31,4389
2016,3631010,34,55,4416
2017,3632010,14,58,4405
2018,3633010,12,39,4383
2019,3634010,15,44,4366
2020,3635010,31,41,4368
2021,3636010,32,42,4378
2022,3637010,12,57,4346
2023,3638010,16,72,4361
2024,3639010,14,68,4389
2025,3640010,21,56,4355
2026,3641010,48,36,4365
2027,3642009,34,36,4376
2028,3643009,31,41,4392
2029,3644010,47,38,4371
2030,3645009,37,49,4346
2031,3646010,47,51,4382
2032,3647010,38,55,4422
2033,3648010,38,48,4429
2034,3649010,61,41,4401
2035,3650009,48,45,4398
2036,3651010,55,38,4376
2037,3652010,57,30,4368
2038,3653010,47,38,4383
2039,3654010,48,60,4378
2040,3655010,51,72,4393
2041,3656009,62,62,4395
2042,3657010,38,46,4373
2043,3658010,29,47,4378
2044,3659009,42,60,4381
2045,3660010,48,58,4356
2046,3661010,43,53,4364
2047,3662010,44,44,4383
2048,3663010,42,39,4383
2049,3664010,10,60,4361
2050,3665010,7,61,4352
2051,3666010,21,52,4354
2052,3667010,24,64,4360
2053,3668009,23,75,4377
2054,3669010,27,53,4372
2055,3670010,29,53,4388
2056,3671010,52,63,4437
2057,3672010,51,52,4455
2058,3673010,23,39,4437
2059,3674010,46,36,4405
2060,3675010,55,62,4396
2061,3676010,59,62,4416
2062,3677010,58,71,4391
2063,3678010,33,73,4349
2064,3679010,26,57,4365
2065,3680010,42,55,4387
2066,3681009,53,38,4376
2067,3682009,60,40,4387
2068,3683010,65,41,4403
2069,3684010,54,37,4388
2070,3685010,28,35,4377
2071,3686010,15,42,4392
2072,3687010,29,52,4373
2073,3688009,46,30,4365
2074,3689009,41,22,4374
2075,3690010,30,52,4396
2076,3691010,28,60,4413
2077,3692010,13,67,4398
2078,3693010,0,86,4372
2079,3694010,4,64,4356
2080,3695010,7,36,4368
2081,3696010,8,40,4387
2082,3697010,13,44,4407
2083,3698010,19,45,4396
2084,3699010,42,39,4385
2085,3700010,45,41,4376
2086,3701010,33,68,4377
2087,3702010,44,56,4375
2088,3703009,67,54,4381
2089,3704010,54,57,4389
2090,3705010,41,40,4374
2091,3706010,62,48,4374
2092,3707010,57,44,4392
2093,3708010,46,45,4382
2094,3709009,51,53,4344
2095,3710010,46,48,4354
2096,3711010,58,23,4385
2097,3712010,67,24,4368
2098,3713010,47,47,4355
2099,3714010,46,49,4363
2100,3715010,51,63,4378
2101,3716010,36,64,4388
2102,3717010,23,47,4385
2103,3718010,29,51,4375
2104,3719010,24,53,4379
2105,3720010,26,34,4372
2106,3721010,46,29,4375
2107,3722010,35,57,4416
2108,3723010,19,61,4391
2109,3724010,32,37,4365
2110,3725010,37,31,4384
2111,3726010,24,47,4380
2112,3727010,28,54,4376
2113,3728010,44,44,4367
2114,3729010,53,34,4356
2115,3730010,52,40,4374
2116,3731010,42,53,4380
2117,3732010,48,41,4381
2118,3733010,44,30,4381
2119,3734010,26,49,4389
2120,3735010,23,58,4379
2121,3736009,33,52,4368
2122,3737010,41,52,4395
2123,3738010,48,44,4395
2124,3739009,33,39,4349
2125,3740010,13,42,4361
2126,3741009,43,53,4392
2127,3742010,55,64,4381
2128,3743010,36,56,4385
2129,3744010,43,40,4395
2130,3745010,40,51,4398
2131,3746010,27,67,4380
2132,3747010,40,54,4383
2133,3748010,32,37,4399
2134,3749010,25,51,4378
2135,3750010,27,76,4371
2136,3751010,16,64,4378
2137,3752010,18,48,4372
2138,3753010,28,41,4384
2139,3754010,47,27,4390
2140,3755010,39,39,4391
2141,3756010,34,48,4383
2142,3757009,44,56,4374
2143,3758009,37,69,4376
2144,3759010,37,51,4368
2145,3760010,41,42,4370
2146,3761010,29,33,4394
2147,3762010,10,28,4412
2148,3763010,25,56,4396
2149,3764010,61,67,4384
2150,3765010,51,50,4381
2151,3766010,23,34,4374
2152,3767009,31,41,4381
2153,3768010,31,39,4393
2154,3769010,25,37,4415
2155,3770010,22,57,4419
2156,3771010,16,74,4420
2157,3772009,21,80,4422
2158,3773010,29,64,4399
2159,3774009,28,47,4370
2160,3775009,28,45,4351
2161,3776010,26,44,4347
2162,3777010,34,42,4350
2163,3778010,33,51,4365
2164,3779010,32,65,4368
2165,3780010,37,52,4390
2166,3781010,34,30,4409
2167,3782009,61,36,4356
2168,3783010,59,38,4322
2169,3784010,15,42,4368
2170,3785009,27,60,4395
2171,3786010,42,69,4397
2172,3787010,32,72,4396
2173,3788010,41,69,4394
2174,3789010,57,60,4393
2175,3790010,51,58,4403
2176,3791010,27,43,4433
2177,3792010,41,35,4406
2178,3793009,42,51,4392
2179,3794010,23,48,4395
2180,3795010,24,57,4358
2181,3796010,48,55,4345
2182,3797009,38,30,4348
2183,3798010,32,16,4358
2184,3799010,47,20,4374
2185,3800009,53,47,4374
2186,3801010,48,52,4349
2187,3802010,26,51,4343
2188,3803010,34,58,4366
2189,3804010,24,50,4397
2190,3805010,4,50,4376
2191,3806010,9,51,4352
2192,3807010,16,54,4373
2193,3808010,32,70,4383
2194,3809010,35,49,4397
2195,3810010,39,34,4393
2196,3811009,53,52,4402
2197,3812010,35,62,4417
2198,3813010,32,64,4381
2199,3814010,55,57,4361
2200,3815010,46,41,4380
2201,3816010,34,56,4385
2202,3817010,45,61,4397
2203,3818010,51,37,4408
2204,3819010,46,39,4395
2205,3820010,37,32,4366
2206,3821010,44,30,4341
2207,3822010,44,43,4346
2208,3823010,31,46,4371
2209,3824010,43,47,4384
2210,3825009,64,41,4371
2211,3826010,53,40,4375
2212,3827010,15,62,4384
2213,3828010,12,68,4373
2214,3829010,36,70,4373
2215,3830009,37,56,4378
2216,3831010,21,41,4392
2217,3832010,18,41,4416
2218,3833010,15,40,4415
2219,3834010,17,40,4385
2220,3835010,32,31,4367
2221,3836010,59,37,4391
2222,3837010,37,39,4404
2223,3838010,31,44,4397
2224,3839010,62,66,4409
2225,3840010,60,67,4384
2226,3841010,64,55,4345
2227,3842010,57,55,4356
2228,3843009,59,41,4369
2229,3844010,54,31,4353
2230,3845010,64,37,4367
2231,3846010,59,52,4399
2232,3847010,24,56,4373
2233,3848010,29,34,4358
2234,3849010,41,22,4362
2235,3850010,29,28,4363
2236,3851010,17,61,4368
2237,3852010,18,76,4378
2238,3853009,33,52,4382
2239,3854009,48,38,4373
2240,3855010,54,39,4369
2241,3856010,40,50,4359
2242,3857010,52,57,4365
2243,3858010,59,61,4370
2244,3859010,43,66,4389
2245,3860010,39,65,4384
2246,3861010,43,63,4355
2247,3862010,41,53,4357
2248,3863010,22,44,4366
2249,3864010,37,45,4379
2250,3865010,37,49,4383
2251,3866009,37,69,4388
2252,3867010,50,65,4388
2253,3868010,49,48,4372
2254,3869010,38,43,4346
2255,3870010,31,46,4347
2256,3871009,41,44,4364
2257,3872010,58,34,4379
2258,3873010,61,24,4363
2259,3874010,39,26,4356
2260,3875010,32,48,4368
2261,3876010,37,53,4366
2262,3877010,42,46,4371
2263,3878010,49,41,4384
2264,3879010,44,44,4418
2265,3880010,43,50,4415
2266,3881010,43,56,4404
2267,3882009,19,59,4414
2268,3883010,11,53,4422
2269,3884010,19,57,4420
2270,3885010,14,61,4384
2271,3886010,16,67,4367
2272,3887010,33,69,4361
2273,3888010,51,44,4344
2274,3889010,56,52,4361
2275,3890010,26,50,4387
2276,3891010,22,32,4399
2277,3892010,51,39,4387
2278,3893009,60,31,4400
2279,3894010,62,34,4382
2280,3895009,58,47,4332
2281,3896010,55,54,4339
2282,3897010,35,44,4366
2283,3898010,29,50,4370
2284,3899010,55,54,4366
2285,3900010,54,58,4377
2286,3901010,47,54,4364
2287,3902010,41,49,4359
2288,3903009,48,59,4397
2289,3904010,48,55,4405
2290,3905010,37,64,4374
2291,3906010,44,57,4344
2292,3907009,48,27,4337
2293,3908010,63,15,4365
2294,3909010,48,27,4373
2295,3910010,31,30,4355
2296,3911009,44,48,4360
2297,3912010,21,55,4354
2298,3913010,15,45,4376
2299,3914009,48,51,4382
2300,3915010,50,57,4365
2301,3916010,22,53,4387
2302,3917010,22,28,4388
2303,3918010,46,35,4366
2304,3919010,36,62,4361
2305,3920010,28,83,4368
2306,3921009,34,77,4374
2307,3922010,22,56,4384
2308,3923010,4,57,4392
2309,3924010,3,61,4398
2310,3925010,25,57,4386
2311,3926010,35,42,4388
2312,3927010,26,37,4408
2313,3928010,20,47,4398
2314,3929010,20,56,4367
2315,3930010,28,77,4367
2316,3931010,48,61,4366
2317,3932010,57,41,4376
2318,3933010,43,50,4396
2319,3934010,41,42,4386
2320,3935010,35,37,4368
2321,3936010,29,34,4377
2322,3937010,38,37,4381
2323,3938010,37,48,4353
2324,3939010,46,47,4371
2325,3940010,50,51,4384
2326,3941010,18,75,4374
2327,3942009,11,74,4383
2328,3943010,43,60,4391
2329,3944010,44,39,4396
2330,3945010,42,44,4380
2331,3946010,36,60,4370
2332,3947010,43,53,4363
2333,3948010,42,36,4375
2334,3949010,19,39,4401
2335,3950010,22,61,4391
2336,3951010,35,67,4386
2337,3952010,45,62,4379
2338,3953010,30,43,4370
2339,3954010,37,33,4379
2340,3955010,52,54,4392
2341,3956010,38,48,4380
2342,3957010,31,45,4375
2343,3958010,33,54,4392
2344,3959010,44,47,4370
2345,3960010,45,62,4364
2346,3961010,50,55,4384
2347,3962010,52,35,4380
2348,3963010,39,40,4383
2349,3964010,41,39,4405
2350,3965010,23,42,4389
2351,3966010,22,49,4379
2352,3967010,43,50,4387
2353,3968009,44,73,4389
2354,3969010,39,73,4399
2355,3970010,27,59,4364
2356,3971010,38,58,4328
2357,3972010,53,58,4350
2358,3973010,35,61,4396
2359,3974010,27,62,4397
2360,3975010,38,69,4375
2361,3976010,33,69,4362
2362,3977009,36,50,4365
2363,3978010,28,34,4369
2364,3979010,27,44,4383
2365,3980010,57,42,4414
2366,3981010,52,36,4407
2367,3982010,56,38,4384
2368,3983010,36,33,4373
2369,3984010,16,50,4338
2370,3985010,41,60,4326
2371,3986010,35,59,4356
2372,3987010,32,44,4380
2373,3988010,45,31,4376
2374,3989010,50,54,4367
2375,3990010,50,65,4366
2376,3991009,34,66,4385
2377,3992010,25,77,4403
2378,3993010,28,65,4386
2379,3994009,28,36,4378
2380,3995010,12,38,4402
2381,3996010,11,55,4400
2382,3997010,34,65,4379
2383,3998010,48,67,4386
2384,3999010,47,52,4425
2385,4000010,31,29,4438
2386,4001010,34,31,4390
2387,4002010,38,52,4363
2388,4003010,30,59,4373
2389,4004010,44,64,4372
2390,4005010,52,69,4368
2391,4006010,39,45,4407
2392,4007009,33,26,4387
2393,4008010,43,37,4353
2394,4009010,46,43,4369
2395,4010010,29,40,4377
2396,4011009,36,38,4380
2397,4012010,53,38,4374
2398,4013010,48,35,4376
2399,4014010,53,46,4373
2400,4015010,57,47,4367
2401,4016010,50,43,4396
2402,4017010,47,36,4406
2403,4018009,48,20,4380
2404,4019010,37,33,4360
2405,4020010,26,40,4366
2406,4021010,20,34,4370
2407,4022009,11,40,4352
2408,4023010,30,42,4364
2409,4024009,68,32,4368
2410,4025010,69,38,4336
2411,4026009,50,54,4348
2412,4027010,44,64,4361
2413,4028010,38,64,4359
2414,4029010,19,57,4356
2415,4030010,29,58,4384
2416,4031010,17,45,4422
2417,4032010,11,34,4416
2418,4033009,45,34,4381
2419,4034009,56,48,4379
2420,4035010,52,76,4402
2421,4036010,36,77,4380
2422,4037009,54,55,4346
2423,4038010,58,46,4345
2424,4039010,41,42,4385
2425,4040010,56,46,4376
2426,4041010,50,47,4358
2427,4042010,32,49,4370
2428,4043010,39,50,4367
2429,4044010,41,49,4372
2430,4045010,51,55,4380
2431,4046010,53,42,4387
2432,4047010,47,35,4381
2433,4048010,74,60,4372
2434,4049010,64,69,4370
2435,4050010,38,46,4397
2436,4051010,43,36,4410
2437,4052010,30,36,4374
2438,4053010,14,31,4376
2439,4054010,34,29,4392
2440,4055009,33,32,4380
2441,4056010,6,49,4354
2442,4057010,29,53,4363
2443,4058009,51,31,4363
2444,4059010,54,29,4364
2445,4060009,50,44,4387
2446,4061010,40,37,4368
2447,4062010,55,30,4375
2448,4063010,47,53,4405
2449,4064009,27,52,4382
2450,4065009,39,50,4361
2451,4066010,59,53,4383
2452,4067009,58,56,4390
2453,4068010,32,77,4386
2454,4069010,40,71,4390
2455,4070010,53,57,4397
2456,4071010,40,59,4389
2457,4072010,23,61,4380
2458,4073009,32,44,4398
2459,4074010,37,51,4406
2460,4075010,26,63,4387
2461,4076010,34,48,4391
2462,4077009,50,58,4376
2463,4078009,38,68,4332
2464,4079010,32,43,4352
2465,4080010,57,18,4379
2466,4081010,62,21,4381
2467,4082010,46,43,4375
2468,4083010,39,52,4362
2469,4084010,28,47,4377
2470,4085010,28,55,4383
2471,4086010,43,55,4380
2472,4087009,39,56,4389
2473,4088009,54,57,4364
2474,4089010,29,53,4363
2475,4090010,7,47,4340
2476,4091010,41,56,4318
2477,4092010,31,62,4352
2478,4093010,19,39,4361
2479,4094010,31,22,4356
2480,4095010,31,17,4352
2481,4096010,34,13,4354
2482,4097010,26,33,4371
2483,4098010,31,54,4389
2484,4099010,54,56,4368
2485,4100009,43,60,4361
2486,4101009,46,58,4361
2487,4102010,37,56,4339
2488,4103010,39,43,4356
2489,4104010,58,35,4388
2490,4105009,35,48,4372
2491,4106009,42,45,4362
2492,4107010,53,48,4380
2493,4108010,35,48,4388
2494,4109010,37,28,4384
2495,4110010,40,33,4396
2496,4111009,23,43,4406
2497,4112010,30,47,4369
2498,4113009,47,36,4386
2499,4114010,60,31,4401
2500,4115009,58,28,4356
2501,4116010,40,40,4370
2502,4117010,16,63,4385
2503,4118010,12,55,4381
2504,4119010,21,49,4370
2505,4120010,4,43,4352
2506,4121010,-3,48,4372
2507,4122009,22,62,4378
2508,4123010,19,67,4392
2509,4124010,2,46,4398
2510,4125009,38,51,4405
2511,4126010,52,69,4411
2512,4127010,36,48,4380
2513,4128010,36,35,4358
2514,4129010,35,44,4330
2515,4130010,34,43,4330
2516,4131010,50,38,4360
2517,4132010,71,51,4373
2518,4133010,84,64,4376
2519,4134010,69,77,4357
2520,4135010,43,66,4347
2521,4136010,46,49,4360
2522,4137010,44,49,4377
2523,4138010,42,62,4406
2524,4139010,38,59,4407
2525,4140010,30,47,4378
2526,4141010,18,43,4387
2527,4142010,21,39,4371
2528,4143010,27,38,4360
2529,4144010,31,53,4386
2530,4145010,43,49,4379
2531,4146010,28,39,4369
2532,4147010,32,54,4370
2533,4148010,43,59,4375
2534,4149009,37,72,4362
2535,4150010,58,72,4355
2536,4151010,52,61,4365
2537,4152010,43,58,4379
2538,4153009,37,46,4370
2539,4154010,40,44,4359
2540,4155010,43,50,4371
2541,4156009,28,36,4372
2542,4157010,53,47,4385
2543,4158010,42,64,4388
2544,4159010,13,54,4391
2545,4160010,19,47,4402
2546,4161010,46,35,4367
2547,4162010,53,41,4371
2548,4163010,45,52,4408
2549,4164010,41,54,4417
2550,4165010,23,50,4392
2551,4166010,13,40,4366
2552,4167010,19,27,4399
2553,4168010,39,29,4396
2554,4169010,38,46,4383
2555,4170010,26,42,4387
2556,4171010,50,41,4362
2557,4172009,55,40,4382
2558,4173010,34,36,4409
2559,4174009,35,61,4394
2560,4175010,47,84,4377
2561,4176010,42,52,4392
2562,4177010,30,37,4409
2563,4178010,28,58,4411
2564,4179010,41,73,4396
2565,4180010,21,54,4381
2566,4181010,17,43,4381
2567,4182010,46,65,4382
2568,4183010,47,58,4377
2569,4184010,44,49,4369
2570,4185010,13,50,4385
2571,4186009,13,45,4379
2572,4187010,60,60,4370
2573,4188010,51,68,4356
2574,4189010,20,62,4373
2575,4190009,23,54,4396
2576,4191009,30,48,4371
2577,4192010,18,58,4369
2578,4193009,13,58,4366
2579,4194010,21,43,4390
2580,4195010,32,37,4405
2581,4196010,44,55,4377
2582,4197009,34,50,4381
2583,4198010,26,43,4363
2584,4199010,19,35,4361
2585,4200010,34,35,4384
2586,4201010,45,55,4374
2587,4202009,38,71,4362
2588,4203010,55,64,4360
2589,4204010,54,45,4344
2590,4205009,52,46,4356
2591,4206010,59,43,4376
2592,4207010,52,35,4349
2593,4208010,53,39,4339
2594,4209010,47,43,4334
2595,4210010,29,34,4376
2596,4211010,28,35,4414
2597,4212009,46,44,4398
2598,4213010,58,66,4380
2599,4214010,52,75,4359
2600,4215010,27,60,4353
2601,4216009,16,54,4335
2602,4217010,28,52,4327
2603,4218009,28,59,4359
2604,4219009,34,65,4368
2605,4220010,52,60,4374
2606,4221010,31,36,4386
2607,4222010,26,32,4384
2608,4223010,35,45,4389
2609,4224010,24,43,4386
2610,4225010,39,63,4355
2611,4226009,40,65,4364
2612,4227010,28,42,4374
2613,4228010,39,26,4354
2614,4229010,21,55,4346
2615,4230010,0,78,4344
2616,4231010,32,65,4369
2617,4232009,51,62,4410
2618,4233010,48,51,4409
2619,4234010,32,54,4389
2620,4235010,23,52,4379
2621,4236010,42,36,4368
2622,4237009,44,38,4360
2623,4238010,31,34,4375
2624,4239010,29,58,4392
2625,4240009,33,60,4384
2626,4241010,18,46,4401
2627,4242010,7,54,4408
2628,4243010,26,39,4403
2629,4244010,34,39,4414
2630,4245010,36,54,4400
2631,4246010,63,67,4375
2632,4247010,65,52,4364
2633,4248010,68,39,4381
2634,4249010,63,38,4391
2635,4250010,38,36,4394
2636,4251010,34,46,4369
2637,4252010,28,51,4325
2638,4253010,36,56,4346
2639,4254010,48,45,4363
2640,4255009,50,48,4368
2641,4256010,33,51,4388
2642,4257010,18,54,4399
2643,4258009,34,70,4389
2644,4259010,39,59,4363
2645,4260010,24,49,4329
2646,4261010,27,47,4327
2647,4262010,34,47,4367
2648,4263010,41,59,4433
2649,4264010,52,50,4415
2650,4265010,54,40,4357
2651,4266010,48,47,4366
2652,4267010,46,50,4376
2653,4268010,49,41,4370
2654,4269010,37,34,4337
2655,4270010,40,46,4323
2656,4271010,40,55,4349
2657,4272010,31,56,4390
2658,4273010,20,48,4416
2659,4274010,16,39,4399
2660,4275010,41,48,4395
2661,4276010,52,49,4371
2662,4277010,54,47,4343
2663,4278010,50,58,4357
2664,4279010,32,47,4381
2665,4280010,21,57,4380
2666,4281010,39,62,4369
2667,4282010,51,39,4369
2668,4283010,44,21,4372
2669,4284010,46,32,4365
2670,4285009,62,59,4357
2671,4286010,55,64,4376
2672,4287010,42,71,4376
2673,4288010,31,71,4382
2674,4289010,18,63,4375
2675,4290010,12,67,4375
2676,4291010,13,67,4371
2677,4292010,41,62,4344
2678,4293010,57,62,4373
2679,4294010,45,47,4389
2680,4295010,45,43,4382
2681,4296010,61,53,4384
2682,4297010,66,48,4393
2683,4298010,43,38,4383
2684,4299010,20,35,4362
2685,4300009,45,43,4383
2686,4301010,56,42,4397
2687,4302010,43,47,4366
2688,4303010,47,60,4354
2689,4304009,42,49,4378
2690,4305010,32,39,4390
2691,4306010,25,45,4390
2692,4307010,16,56,4395
2693,4308010,31,63,4406
2694,4309010,57,57,4386
2695,4310010,41,46,4353
2696,4311010,26,44,4332
2697,4312010,25,50,4346
2698,4313010,37,60,4374
2699,4314010,47,46,4381
2700,4315009,27,29,4368
2701,4316009,46,37,4361
2702,4317009,63,39,4363
2703,4318009,50,36,4365
2704,4319010,52,32,4377
2705,4320010,71,33,4385
2706,4321010,63,44,4402
2707,4322010,47,37,4400
2708,4323009,38,30,4373
2709,4324010,48,36,4371
2710,4325009,52,43,4369
2711,4326010,42,61,4373
2712,4327010,49,66,4379
2713,4328010,40,49,4380
2714,4329010,49,31,4410
2715,4330010,56,35,4422
2716,4331009,43,49,4423
2717,4332010,32,50,4405
2718,4333010,31,50,4367
2719,4334009,41,47,4370
2720,4335010,40,42,4386
2721,4336010,37,44,4394
2722,4337010,38,49,4386
2723,4338010,30,47,4357
2724,4339010,33,52,4378
2725,4340010,40,58,4413
2726,4341010,32,59,4397
2727,4342009,43,60,4363
2728,4343010,54,40,4367
2729,4344010,39,26,4378
2730,4345010,29,31,4378
2731,4346010,36,49,4370
2732,4347010,43,58,4362
2733,4348010,42,48,4385
2734,4349010,57,34,4378
2735,4350010,62,26,4359
2736,4351010,44,43,4368
2737,4352009,49,53,4384
2738,4353010,51,48,4376
2739,4354010,30,54,4371
2740,4355009,36,53,4372
2741,4356010,60,59,4356
2742,4357010,70,47,4354
2743,4358010,58,41,4362
2744,4359010,17,57,4401
2745,4360010,23,61,4409
2746,4361009,58,63,4365
2747,4362010,49,66,4369
2748,4363010,36,66,4382
2749,4364010,39,40,4389
2750,4365009,43,45,4396
2751,4366010,40,50,4375
2752,4367010,52,44,4364
2753,4368010,50,48,4377
2754,4369010,42,48,4393
2755,4370010,46,71,4397
2756,4371010,31,71,4396
2757,4372010,27,54,4394
2758,4373010,26,48,4370
2759,4374010,17,50,4360
2760,4375010,41,59,4381
2761,4376010,48,52,4411
2762,4377010,32,40,4400
2763,4378010,46,47,4363
2764,4379010,46,45,4353
2765,4380010,37,39,4372
2766,4381010,24,60,4372
2767,4382010,21,71,4341
2768,4383010,47,61,4360
2769,4384009,63,45,4359
2770,4385010,62,32,4353
2771,4386010,54,46,4363
2772,4387010,49,52,4369
2773,4388010,32,37,4384
2774,4389010,7,33,4391
2775,4390009,8,48,4377
2776,4391010,26,73,4388
2777,4392010,28,62,4400
2778,4393010,32,46,4390
2779,4394010,38,58,4388
2780,4395010,38,56,4378
2781,4396010,25,65,4373
2782,4397010,31,66,4347
2783,4398010,39,45,4341
2784,4399010,19,51,4380
2785,4400010,24,49,4381
2786,4401010,33,32,4367
2787,4402010,19,26,4383
2788,4403009,24,35,4399
2789,4404010,55,43,4409
2790,4405009,47,47,4374
2791,4406010,20,51,4359
2792,4407010,33,43,4389
2793,4408010,43,35,4373
2794,4409010,18,37,4376
2795,4410010,30,35,4401
2796,4411010,42,34,4386
2797,4412010,34,30,4380
2798,4413010,42,40,4394
2799,4414010,43,64,4374
2800,4415009,39,54,4370
2801,4416010,30,42,4387
2802,4417010,45,30,4374
2803,4418010,62,19,4368
2804,4419010,48,35,4366
2805,4420010,38,51,4404
2806,4421010,47,53,4379
2807,4422010,58,54,4350
2808,4423010,38,53,4395
2809,4424010,18,48,4390
2810,4425010,26,59,4390
2811,4426010,13,61,4391
2812,4427009,18,63,4361
2813,4428010,37,79,4380
2814,4429010,42,64,4393
2815,4430010,42,46,4382
2816,4431010,48,60,4384
2817,4432010,38,68,4402
2818,4433010,30,59,4410
2819,4434010,42,50,4382
2820,4435010,41,55,4374
2821,4436010,29,63,4365
2822,4437010,35,70,4352
2823,4438009,49,67,4360
2824,4439010,45,46,4371
2825,4440010,46,35,4372
2826,4441010,59,35,4369
2827,4442010,50,42,4387
2828,4443010,16,54,4386
2829,4444010,23,65,4387
2830,4445010,33,74,4409
2831,4446009,44,53,4393
2832,4447009,56,38,4372
2833,4448010,50,42,4376
2834,4449010,44,38,4400
2835,4450010,48,47,4382
2836,4451010,41,51,4356
2837,4452009,24,48,4375
2838,4453010,35,48,4381
2839,4454009,33,60,4375
2840,4455010,24,36,4356
2841,4456010,27,4,4332
2842,4457010,37,22,4324
2843,4458010,49,41,4354
2844,4459010,34,44,4376
2845,4460010,23,50,4363
2846,4461010,37,53,4395
2847,4462010,59,40,4412
2848,4463010,64,49,4396
2849,4464010,44,60,4388
2850,4465010,34,62,4362
2851,4466010,38,48,4362
2852,4467009,29,30,4414
2853,4468010,36,30,4430
2854,4469010,39,31,4391
2855,4470010,23,63,4379
2856,4471010,27,63,4364
2857,4472009,39,42,4359
2858,4473010,37,59,4360
2859,4474009,19,62,4373
2860,4475010,34,43,4407
2861,4476010,51,34,4401
2862,4477010,28,45,4388
2863,4478010,12,60,4379
2864,4479010,18,50,4366
2865,4480010,32,39,4371
2866,4481010,45,44,4388
2867,4482010,58,49,4389
2868,4483010,65,62,4371
2869,4484010,49,66,4352
2870,4485010,41,63,4378
2871,4486009,46,51,4381
2872,4487010,38,38,4375
2873,4488010,34,29,4405
2874,4489010,30,32,4406
2875,4490010,33,60,4384
2876,4491010,28,54,4371
2877,4492010,26,36,4403
2878,4493010,29,46,4400
2879,4494010,22,61,4372
2880,4495010,31,56,4366
2881,4496010,18,44,4359
2882,4497009,6,44,4385
2883,4498010,49,46,4392
2884,4499009,62,54,4397
2885,4500009,43,43,4399
2886,4501010,46,39,4393
2887,4502010,38,44,4403
2888,4503010,25,40,4386
2889,4504010,25,44,4392
2890,4505010,29,56,4395
2891,4506010,26,62,4391
2892,4507009,34,70,4383
2893,4508010,33,74,4372
2894,4509010,26,61,4374
2895,4510010,36,53,4367
2896,4511009,40,51,4396
2897,4512009,34,50,4396
2898,4513010,28,48,4380
2899,4514010,54,62,4387
2900,4515010,54,43,4383
2901,4516010,33,37,4392
2902,4517010,42,54,4373
2903,4518010,34,51,4378
2904,4519009,34,54,4388
2905,4520009,37,44,4370
2906,4521010,25,34,4376
2907,4522010,28,41,4359
2908,4523009,45,49,4377
2909,4524009,48,39,4394
2910,4525009,35,34,4356
2911,4526010,22,33,4348
2912,4527010,32,34,4354
2913,4528010,56,54,4357
2914,4529010,41,56,4388
2915,4530010,7,45,4395
2916,4531010,1,51,4382
2917,4532010,13,52,4405
2918,4533009,24,70,4407
2919,4534010,37,76,4372
2920,4535009,42,42,4355
2921,4536010,40,48,4371
2922,4537010,47,50,4372
2923,4538010,40,53,4359
2924,4539010,22,76,4350
2925,4540010,23,64,4352
2926,4541010,17,45,4356
2927,4542010,5,68,4365
2928,4543010,23,71,4378
2929,4544010,18,40,4387
2930,4545010,20,39,4385
2931,4546010,36,45,4383
2932,4547009,19,46,4390
2933,4548010,15,44,4365
2934,4549010,38,54,4370
2935,4550009,51,57,4388
2936,4551010,27,46,4376
2937,4552010,35,28,4376
2938,4553010,50,40,4376
2939,4554010,45,61,4364
2940,4555010,46,64,4352
2941,4556010,46,56,4355
2942,4557010,44,42,4363
2943,4558010,23,36,4367
2944,4559010,15,48,4372
2945,4560009,40,43,4376
2946,4561010,51,26,4368
2947,4562010,37,32,4357
2948,4563010,33,29,4352
2949,4564009,34,59,4361
2950,4565010,27,71,4371
2951,4566010,13,61,4338
2952,4567010,22,75,4339
2953,4568009,34,58,4365
2954,4569010,44,43,4363
2955,4570010,61,55,4362
2956,4571010,50,52,4366
2957,4572010,42,56,4368
2958,4573010,56,54,4365
2959,4574010,51,49,4369
2960,4575010,49,52,4379
2961,4576010,60,56,4385
2962,4577009,44,62,4397
2963,4578010,26,48,4378
2964,4579010,25,30,4393
2965,4580010,46,45,4415
2966,4581010,66,52,4395
2967,4582010,58,33,4378
2968,4583009,41,41,4365
2969,4584010,28,57,4381
2970,4585010,22,53,4375
2971,4586010,21,38,4358
2972,4587010,32,72,4363
2973,4588010,41,77,4382
2974,4589010,50,30,4375
2975,4590010,52,39,4363
2976,4591010,41,50,4378
2977,4592010,19,34,4374
2978,4593010,12,29,4361
2979,4594010,23,39,4372
2980,4595010,29,54,4410
2981,4596010,38,50,4418
2982,4597010,39,37,4407
2983,4598010,37,36,4420
2984,4599010,48,54,4398
2985,4600009,62,42,4357
2986,4601010,34,26,4370
2987,4602009,23,46,4394
2988,4603010,40,67,4378
2989,4604010,34,68,4358
2990,4605009,25,59,4369
2991,4606010,51,71,4388
2992,4607010,55,46,4387
2993,4608010,48,36,4380
2994,4609010,50,49,4377
2995,4610010,22,59,4379
2996,4611009,21,63,4381
2997,4612010,25,35,4367
2998,4613010,22,17,4367
2999,4614010,26,22,4401
3000,4615010,44,25,4398
3001,4616010,34,14,4390
3002,4617010,17,34,4393
3003,4618010,35,43,4412
3004,4619009,28,33,4419
3005,4620009,14,32,4392
3006,4621010,23,39,4386
3007,4622009,36,50,4363
3008,4623010,52,41,4351
3009,4624010,51,38,4363
3010,4625010,43,37,4359
3011,4626010,47,41,4372
3012,4627010,33,36,4377
3013,4628010,50,29,4370
3014,4629010,68,46,4364
3015,4630010,55,56,4363
3016,4631010,63,58,4366
3017,4632010,41,69,4376
3018,4633010,33,70,4359
3019,4634010,43,56,4378
3020,4635009,22,35,4420
3021,4636010,18,22,4377
3022,4637010,32,14,4370
3023,4638010,45,31,4390
3024,4639010,49,66,4403
3025,4640010,32,59,4389
3026,4641010,19,46,4361
3027,4642010,41,42,4376
3028,4643010,49,31,4374
3029,4644010,42,33,4364
3030,4645010,40,34,4380
3031,4646010,32,36,4372
3032,4647010,39,59,4391
3033,4648010,48,60,4407
3034,4649009,32,55,4391
3035,4650010,20,56,4380
3036,4651010,39,33,4368
3037,4652010,49,23,4380
3038,4653010,24,39,4382
3039,4654010,12,58,4359
3040,4655009,24,63,4373
3041,4656010,20,61,4385
3042,4657010,28,62,4349
3043,4658010,24,61,4365
3044,4659009,7,68,4373
3045,4660010,27,59,4351
3046,4661010,46,40,4366
3047,4662010,26,49,4386
3048,4663010,-2,38,4403
3049,4664009,4,43,4395
3050,4665009,24,55,4373
3051,4666010,44,44,4379
3052,4667010,56,56,4377
3053,4668010,67,58,4390
3054,4669010,56,56,4386
3055,4670010,43,55,4351
3056,4671010,41,39,4360
3057,4672010,34,37,4363
3058,4673010,36,44,4347
3059,4674010,36,36,4358
3060,4675010,39,30,4380
3061,4676010,23,38,4356
3062,4677018,14,40,4321
3063,4678010,22,53,4332
3064,4679010,44,48,4359
3065,4680010,61,28,4393
3066,4681010,52,40,4412
3067,4682010,38,38,4405
3068,4683010,35,39,4377
3069,4684009,39,48,4374
3070,4685010,39,40,4371
3071,4686010,46,21,4365
3072,4687009,34,20,4351
3073,4688009,31,54,4347
3074,4689009,49,69,4398
3075,4690009,37,63,4401
3076,4691010,31,59,4381
3077,4692010,57,50,4388
3078,4693010,45,73,4367
3079,4694010,22,77,4348
3080,4695010,52,60,4348
3081,4696010,79,64,4365
3082,4697009,54,53,4374
3083,4698010,31,56,4369
3084,4699010,47,51,4376
3085,4700010,48,25,4356
3086,4701010,39,55,4366
3087,4702010,39,56,4391
3088,4703009,32,38,4397
3089,4704010,19,67,4397
3090,4705010,28,67,4401
3091,4706010,42,62,4405
3092,4707010,23,69,4394
3093,4708010,28,71,4398
3094,4709010,38,65,4402
3095,4710010,19,40,4400
3096,4711010,24,31,4399
3097,4712010,38,45,4395
3098,4713010,42,54,4366
3099,4714010,49,49,4371
3100,4715010,50,69,4386
3101,4716010,31,76,4369
3102,4717010,18,60,4372
3103,4718009,25,55,4364
3104,4719009,37,50,4345
3105,4720010,43,52,4343
3106,4721010,47,51,4358
3107,4722010,50,37,4374
3108,4723010,41,22,4379
3109,4724010,38,24,4372
3110,4725010,39,40,4374
3111,4726010,43,46,4376
3112,4727010,49,48,4371
3113,4728009,39,45,4384
3114,4729010,49,42,4379
3115,4730010,60,50,4369
3116,4731010,39,48,4382
3117,4732010,37,49,4400
3118,4733010,32,53,4396
3119,4734009,36,57,4389
3120,4735009,40,61,4394
3121,4736009,36,49,4389
3122,4737010,40,38,4380
3123,4738009,40,34,4383
3124,4739010,42,37,4404
3125,4740010,31,43,4401
3126,4741010,27,45,4364
3127,4742010,22,63,4351
3128,4743010,18,48,4377
3129,4744010,37,29,4385
3130,4745010,37,31,4383
3131,4746010,28,52,4423
3132,4747010,37,49,4424
3133,4748009,51,34,4358
3134,4749010,43,55,4335
3135,4750010,36,51,4357
3136,4751010,53,47,4390
3137,4752010,62,41,4395
3138,4753010,44,35,4367
3139,4754010,30,58,4358
3140,4755010,30,54,4371
3141,4756010,27,38,4390
3142,4757010,30,41,4392
3143,4758010,39,45,4354
3144,4759010,62,50,4352
3145,4760010,53,53,4376
3146,4761010,29,58,4379
3147,4762010,12,58,4381
3148,4763009,0,81,4386
3149,4764010,17,72,4376
3150,4765010,29,35,4334
3151,4766009,17,49,4357
3152,4767010,23,75,4412
3153,4768010,31,79,4407
3154,4769009,9,66,4418
3155,4770009,5,50,4396
3156,4771009,9,64,4376
3157,4772010,4,52,4400
3158,4773010,25,20,4384
3159,4774010,48,43,4384
3160,4775009,61,59,4405
3161,4776010,63,48,4409
3162,4777010,46,48,4403
3163,4778010,31,50,4397
3164,4779010,22,56,4375
3165,4780010,32,61,4380
3166,4781010,43,53,4395
3167,4782010,36,62,4387
3168,4783010,30,66,4367
3169,4784010,16,67,4351
3170,4785010,14,55,4378
3171,4786010,27,35,4381
3172,4787010,22,43,4354
3173,4788010,12,50,4363
3174,4789009,8,51,4353
3175,4790009,22,54,4343
3176,4791010,37,46,4384
3177,4792010,27,52,4383
3178,4793010,22,49,4358
3179,4794009,53,38,4355
3180,4795009,41,46,4381
3181,4796010,20,55,4394
3182,4797010,40,62,4400
3183,4798010,35,71,4404
3184,4799010,34,59,4366
3185,4800010,47,30,4350
3186,4801010,46,19,4354
3187,4802010,43,12,4359
3188,4803010,65,19,4381
3189,4804010,62,43,4397
3190,4805010,34,56,4389
3191,4806010,44,40,4356
3192,4807010,51,37,4340
3193,4808010,41,47,4365
3194,4809010,28,50,4385
3195,4810010,34,56,4398
3196,4811010,44,41,4381
3197,4812010,37,36,4389
3198,4813010,37,39,4399
3199,4814009,22,57,4377
3200,4815010,18,55,4367
3201,4816010,33,36,4369
3202,4817010,32,45,4382
3203,4818010,38,50,4395
3204,4819010,52,45,4396
3205,4820010,37,36,4380
3206,4821009,26,50,4375
3207,4822010,40,58,4383
3208,4823010,41,64,4383
3209,4824010,37,61,4347
3210,4825010,36,53,4364
3211,4826010,49,67,4392
3212,4827009,57,54,4381
3213,4828010,57,43,4376
3214,4829010,63,47,4360
3215,4830010,22,34,4359
3216,4831009,17,14,4377
3217,4832009,59,15,4382
3218,4833010,60,33,4375
3219,4834010,67,51,4361
3220,4835010,44,52,4380
3221,4836009,19,31,4366
3222,4837009,23,33,4347
3223,4838010,28,55,4377
3224,4839009,48,47,4367
3225,4840010,41,31,4381
3226,4841010,9,45,4391
3227,4842009,16,40,4361
3228,4843010,26,36,4358
3229,4844010,30,57,4385
3230,4845010,45,61,4413
3231,4846010,23,53,4391
3232,4847010,14,49,4377
3233,4848010,42,48,4393
3234,4849010,51,35,4396
3235,4850010,55,44,4387
3236,4851010,67,62,4377
3237,4852009,51,55,4374
3238,4853010,46,49,4379
3239,4854010,46,45,4360
3240,4855010,48,44,4348
3241,4856010,55,34,4384
3242,4857010,58,52,4400
3243,4858010,76,54,4391
3244,4859010,63,45,4378
3245,4860010,44,62,4376
3246,4861010,53,64,4382
3247,4862010,43,66,4371
3248,4863010,29,57,4346
3249,4864010,36,41,4325
3250,4865010,43,25,4347
3251,4866010,53,24,4375
3252,4867010,53,43,4377
3253,4868010,38,41,4383
3254,4869010,33,21,4355
3255,4870010,20,17,4350
3256,4871010,20,22,4391
3257,4872010,42,25,4394
3258,4873010,47,52,4374
3259,4874010,47,66,4397
3260,4875010,33,62,4410
3261,4876009,27,59,4399
3262,4877010,41,52,4383
3263,4878010,35,47,4360
3264,4879010,28,45,4378
3265,4880010,17,53,4379
3266,4881010,22,58,4383
3267,4882010,25,66,4404
3268,4883010,24,58,4376
3269,4884010,45,62,4373
3270,4885010,37,72,4384
3271,4886010,22,59,4360
3272,4887010,37,41,4356
3273,4888010,46,26,4369
3274,4889009,40,46,4383
3275,4890010,53,54,4382
3276,4891010,61,44,4387
3277,4892009,47,47,4360
3278,4893010,35,32,4331
3279,4894010,41,35,4361
3280,4895010,42,45,4383
3281,4896010,29,54,4413
3282,4897010,28,51,4407
3283,4898010,33,36,4359
3284,4899010,35,45,4360
3285,4900010,32,64,4395
3286,4901010,29,69,4400
3287,4902010,46,63,4378
3288,4903010,68,42,4355
3289,4904010,53,45,4362
3290,4905010,45,66,4388
3291,4906010,63,56,4365
3292,4907010,64,61,4343
3293,4908010,44,53,4375
3294,4909009,40,42,4375
3295,4910010,49,38,4366
3296,4911010,37,41,4390
3297,4912010,23,56,4393
3298,4913010,30,63,4381
3299,4914010,39,53,4392
3300,4915009,54,49,4391
3301,4916010,56,52,4374
3302,4917010,45,32,4381
3303,4918010,50,31,4382
3304,4919010,47,48,4385
3305,4920010,47,58,4383
3306,4921010,47,56,4405
3307,4922009,20,53,4424
3308,4923010,10,42,4389
3309,4924010,19,24,4368
3310,4925010,30,46,4367
3311,4926010,36,58,4365
3312,4927010,40,32,4338
3313,4928010,52,35,4351
3314,4929010,45,40,4380
3315,4930009,57,50,4382
3316,4931010,58,52,4390
3317,4932010,39,43,4393
3318,4933009,56,45,4406
3319,4934010,67,41,4408
3320,4935010,48,48,4400
3321,4936010,34,54,4388
3322,4937010,34,34,4386
3323,4938010,42,25,4404
3324,4939010,33,32,4398
3325,4940010,22,46,4377
3326,4941010,22,51,4377
3327,4942010,16,56,4386
3328,4943010,10,58,4361
3329,4944010,24,36,4357
3330,4945010,40,43,4359
3331,4946010,33,60,4372
3332,4947010,24,49,4378
3333,4948010,37,37,4369
3334,4949010,45,32,4399
3335,4950010,34,43,4398
3336,4951010,23,50,4387
3337,4952010,19,36,4368
3338,4953010,24,46,4360
3339,4954009,47,49,4381
3340,4955010,56,36,4400
3341,4956010,52,23,4374
3342,4957010,53,26,4362
3343,4958009,57,44,4386
3344,4959010,60,56,4377
3345,4960010,39,55,4376
3346,4961010,30,40,4375
3347,4962010,46,27,4371
3348,4963010,45,35,4364
3349,4964010,39,37,4342
3350,4965010,44,48,4337
3351,4966010,37,62,4344
3352,4967010,44,44,4360
3353,4968010,44,40,4379
3354,4969010,21,43,4385
3355,4970010,10,46,4383
3356,4971009,24,45,4406
3357,4972010,30,34,4402
3358,4973010,28,37,4376
3359,4974010,22,40,4370
3360,4975010,7,46,4367
3361,4976010,6,57,4387
3362,4977010,25,40,4376
3363,4978010,23,48,4363
3364,4979010,14,55,4399
3365,4980010,22,45,4402
3366,4981010,34,49,4391
3367,4982010,45,56,4380
3368,4983010,41,56,4354
3369,4984010,39,36,4369
3370,4985009,37,23,4389
3371,4986009,47,35,4382
3372,4987010,54,35,4394
3373,4988010,43,32,4383
3374,4989010,37,33,4377
3375,4990010,26,49,4385
3376,4991010,24,68,4402
3377,4992010,30,61,4395
3378,4993010,39,55,4351
3379,4994010,37,50,4367
3380,4995010,27,46,4383
3381,4996010,37,40,4356
3382,4997010,45,38,4371
3383,4998010,49,33,4398
3384,4999010,34,25,4387
3385,5000010,20,36,4369
3386,5001010,40,50,4349
3387,5002010,53,47,4351
3388,5003010,53,56,4373
3389,5004010,43,67,4404
3390,5005010,27,58,4402
3391,5006009,55,42,4392
3392,5007010,64,51,4382
3393,5008010,44,65,4355
3394,5009009,44,53,4355
3395,5010009,39,40,4383
3396,5011010,30,49,4401
3397,5012009,12,60,4383
3398,5013010,18,67,4361
3399,5014010,37,77,4373
3400,5015009,48,67,4361
3401,5016010,55,59,4361
3402,5017010,46,48,4377
3403,5018010,45,41,4356
3404,5019010,39,44,4361
3405,5020009,14,38,4382
3406,5021010,15,32,4393
3407,5022010,29,42,4378
3408,5023010,27,53,4362
3409,5024010,35,60,4362
3410,5025009,27,55,4364
3411,5026010,-2,30,4377
3412,5027009,9,41,4391
3413,5028009,20,43,4379
3414,5029010,12,48,4380
3415,5030010,14,61,4409
3416,5031009,16,51,4393
3417,5032010,16,43,4368
3418,5033010,37,25,4363
3419,5034010,50,13,4389
3420,5035010,35,30,4374
3421,5036009,35,40,4346
3422,5037010,56,57,4358
3423,5038010,57,66,4365
3424,5039010,51,61,4390
3425,5040010,56,58,4393
3426,5041010,66,55,4402
3427,5042009,73,62,4398
3428,5043010,67,60,4391
3429,5044010,64,63,4413
3430,5045010,54,68,4413
3431,5046010,50,81,4424
3432,5047010,59,64,4422
3433,5048009,65,65,4402
3434,5049010,43,83,4375
3435,5050010,17,60,4367
3436,5051010,24,50,4390
3437,5052010,45,57,4378
3438,5053010,34,63,4360
3439,5054010,25,52,4358
3440,5055010,23,56,4372
3441,5056010,22,47,4403
3442,5057010,30,32,4372
3443,5058010,18,28,4353
3444,5059010,22,26,4374
3445,5060010,25,43,4378
3446,5061010,31,57,4397
3447,5062010,36,56,4395
3448,5063009,31,44,4363
3449,5064010,52,50,4346
3450,5065010,58,52,4359
3451,5066010,57,41,4356
3452,5067010,68,47,4379
3453,5068010,58,36,4396
3454,5069010,36,42,4388
3455,5070010,29,60,4367
3456,5071010,46,61,4345
3457,5072010,74,57,4344
3458,5073009,85,32,4364
3459,5074010,69,27,4399
3460,5075010,63,24,4412
3461,5076009,57,20,4397
3462,5077010,26,14,4397
3463,5078010,19,21,4423
3464,5079010,6,58,4401
3465,5080010,-29,67,4354
3466,5081010,-36,56,4351
3467,5082010,-20,55,4376
3468,5083010,5,56,4356
3469,5084010,21,33,4326
3470,5085010,17,22,4344
3471,5086010,21,34,4364
3472,5087010,22,46,4365
3473,5088010,39,50,4361
3474,5089010,65,35,4384
3475,5090010,55,33,4381
3476,5091010,48,31,4369
3477,5092009,51,26,4396
3478,5093010,63,41,4394
3479,5094010,63,63,4383
3480,5095009,55,56,4384
3481,5096010,52,66,4415
3482,5097010,22,74,4437
3483,5098009,16,62,4415
3484,5099010,38,72,4383
3485,5100010,52,53,4382
3486,5101010,47,27,4368
3487,5102010,45,34,4359
3488,5103010,57,49,4379
3489,5104010,74,29,4352
3490,5105010,74,23,4354
3491,5106010,29,40,4385
3492,5107010,10,30,4355
3493,5108009,38,23,4328
3494,5109010,52,38,4331
3495,5110010,40,40,4321
3496,5111010,33,27,4307
3497,5112010,19,34,4333
3498,5113010,7,31,4378
3499,5114010,7,53,4402
3500,5115010,0,76,4406
3501,5116010,8,55,4424
3502,5117010,11,62,4427
3503,5118009,0,87,4425
3504,5119010,40,81,4435
3505,5120010,89,53,4410
3506,5121010,83,57,4378
3507,5122010,68,74,4388
3508,5123010,37,74,4419
3509,5124010,15,65,4383
3510,5125010,36,53,4344
3511,5126010,33,52,4322
3512,5127010,27,50,4332
3513,5128009,25,54,4353
3514,5129010,16,56,4357
3515,5130009,30,39,4372
3516,5131010,59,37,4368
3517,5132010,78,41,4367
3518,5133010,80,50,4377
3519,5134010,65,77,4377
3520,5135010,39,66,4393
3521,5136009,23,39,4413
3522,5137010,15,42,4394
3523,5138010,-15,53,4395
3524,5139010,3,62,4405
3525,5140010,26,61,4392
3526,5141010,6,42,4397
3527,5142010,13,53,4402
3528,5143010,15,48,4371
3529,5144010,20,31,4345
3530,5145009,59,42,4362
3531,5146010,83,51,4383
3532,5147009,63,35,4407
3533,5148010,60,45,4406
3534,5149010,75,66,4372
3535,5150010,70,47,4372
3536,5151010,57,47,4378
3537,5152010,36,49,4372
3538,5153010,31,43,4384
3539,5154010,48,43,4395
3540,5155010,29,44,4378
3541,5156009,23,42,4390
3542,5157009,38,30,4380
3543,5158010,48,51,4360
3544,5159009,44,76,4389
3545,5160009,38,76,4384
3546,5161010,56,69,4368
3547,5162010,61,48,4349
3548,5163010,43,56,4352
3549,5164010,2,59,4382
3550,5165010,8,39,4395
3551,5166010,11,31,4394
3552,5167010,7,38,4403
3553,5168010,25,33,4406
3554,5169009,17,42,4376
3555,5170010,11,75,4357
3556,5171010,41,82,4392
3557,5172010,69,71,4414
3558,5173009,22,51,4386
3559,5174010,16,33,4371
3560,5175010,46,39,4382
3561,5176010,37,53,4398
3562,5177010,31,46,4372
3563,5178010,20,36,4356
3564,5179009,2,33,4350
3565,5180009,18,34,4361
3566,5181010,41,35,4387
3567,5182010,53,42,4397
3568,5183010,58,56,4389
3569,5184009,48,61,4372
3570,5185010,42,50,4382
3571,5186009,57,49,4369
3572,5187009,71,63,4363
3573,5188010,60,49,4392
3574,5189010,47,38,4388
3575,5190010,42,43,4365
3576,5191010,24,48,4361
3577,5192010,1,52,4376
3578,5193010,18,62,4382
3579,5194010,38,63,4387
3580,5195010,23,56,4404
3581,5196010,42,64,4412
3582,5197010,53,51,4390
3583,5198010,34,38,4362
3584,5199010,39,36,4354
3585,5200010,42,36,4332
3586,5201010,52,52,4345
3587,5202010,44,52,4366
3588,5203010,42,54,4370
3589,5204010,52,65,4396
3590,5205010,46,61,4387
3591,5206009,40,53,4374
3592,5207010,21,44,4381
3593,5208010,14,49,4371
3594,5209009,41,59,4372
3595,5210010,71,52,4376
3596,5211009,45,44,4387
3597,5212010,28,55,4396
3598,5213010,59,43,4391
3599,5214010,52,24,4389
3600,5215010,52,37,4341
3601,5216010,45,41,4340
3602,5217010,24,46,4374
3603,5218010,33,57,4393
3604,5219010,27,58,4400
3605,5220010,25,39,4362
3606,5221010,39,35,4362
3607,5222010,51,42,4369
3608,5223009,51,49,4350
3609,5224010,34,57,4337
3610,5225010,33,36,4365
3611,5226009,38,36,4382
3612,5227009,15,58,4366
3613,5228009,24,58,4359
3614,5229010,48,47,4368
3615,5230010,27,44,4337
3616,5231009,18,56,4335
3617,5232010,48,73,4377
3618,5233009,61,56,4370
3619,5234010,50,33,4351
3620,5235010,43,38,4354
3621,5236010,50,50,4342
3622,5237010,53,53,4341
3623,5238009,36,67,4380
3624,5239010,44,84,4378
3625,5240010,36,73,4363
3626,5241010,29,57,4379
3627,5242010,51,49,4407
3628,5243010,54,34,4395
3629,5244010,36,28,4376
3630,5245009,14,44,4396
3631,5246010,12,66,4393
3632,5247010,33,68,4383
3633,5248009,56,59,4383
3634,5249010,37,57,4374
3635,5250009,34,61,4376
3636,5251010,50,52,4391
3637,5252010,26,40,4371
3638,5253010,13,45,4347
3639,5254010,38,48,4351
3640,5255009,44,46,4371
3641,5256010,44,49,4391
3642,5257010,48,52,4385
3643,5258010,48,54,4371
3644,5259010,40,61,4374
3645,5260010,33,63,4367
3646,5261010,49,53,4365
3647,5262010,47,45,4388
3648,5263010,55,29,4391
3649,5264010,52,21,4398
3650,5265010,35,28,4407
3651,5266010,38,40,4397
3652,5267010,43,52,4377
3653,5268009,38,49,4384
3654,5269010,31,57,4384
3655,5270009,26,68,4369
3656,5271010,26,59,4386
3657,5272010,27,44,4385
3658,5273009,20,51,4365
3659,5274009,28,46,4365
3660,5275010,40,37,4369
3661,5276010,25,52,4376
3662,5277010,32,57,4363
3663,5278010,64,55,4353
3664,5279010,59,60,4384
3665,5280010,43,46,4413
3666,5281010,43,38,4414
3667,5282010,40,41,4420
3668,5283010,27,48,4432
3669,5284010,37,67,4410
3670,5285010,53,59,4393
3671,5286010,45,45,4391
3672,5287010,51,42,4368
3673,5288009,61,40,4358
3674,5289009,48,45,4349
3675,5290010,43,55,4355
3676,5291010,42,60,4374
3677,5292010,52,50,4402
3678,5293010,50,37,4413
3679,5294009,46,49,4366
3680,5295010,55,58,4345
3681,5296010,25,46,4365
3682,5297010,7,56,4394
3683,5298010,15,58,4397
3684,5299010,19,41,4392
3685,5300010,27,48,4383
3686,5301010,31,47,4361
3687,5302010,20,27,4364
3688,5303010,32,34,4385
3689,5304010,53,43,4380
3690,5305009,54,30,4376
3691,5306010,49,26,4387
3692,5307009,37,35,4379
3693,5308010,17,51,4372
3694,5309010,14,70,4375
3695,5310010,29,70,4396
3696,5311010,33,49,4393
3697,5312010,53,44,4398
3698,5313009,51,58,4415
3699,5314010,48,65,4399
3700,5315010,59,64,4392
3701,5316010,33,69,4381
3702,5317010,26,72,4374
3703,5318010,44,43,4374
3704,5319009,41,31,4369
3705,5320009,31,43,4347
3706,5321010,32,42,4366
3707,5322010,43,40,4385
3708,5323009,68,40,4356
3709,5324010,74,42,4374
3710,5325010,57,41,4372
3711,5326009,36,25,4347
3712,5327010,19,25,4374
3713,5328010,36,46,4386
3714,5329010,56,55,4382
3715,5330010,31,58,4391
3716,5331010,6,44,4393
3717,5332009,14,35,4383
3718,5333010,41,55,4400
3719,5334010,42,56,4417
3720,5335010,31,56,4396
3721,5336010,54,58,4385
3722,5337010,52,53,4381
3723,5338010,32,53,4371
3724,5339010,27,35,4378
3725,5340010,39,40,4394
3726,5341010,58,52,4397
3727,5342010,67,57,4372
3728,5343010,49,47,4359
3729,5344010,15,40,4360
3730,5345010,16,51,4372
3731,5346009,50,48,4384
3732,5347010,64,46,4377
3733,5348009,42,42,4399
3734,5349009,44,30,4397
3735,5350010,38,38,4377
3736,5351009,33,49,4372
3737,5352010,51,51,4376
3738,5353009,37,52,4392
3739,5354010,10,57,4373
3740,5355010,-4,57,4381
3741,5356010,2,59,4399
3742,5357010,37,65,4382
3743,5358010,53,56,4401
3744,5359009,51,52,4402
3745,5360009,41,40,4371
3746,5361009,17,30,4353
3747,5362010,23,45,4333
3748,5363010,27,57,4333
3749,5364010,23,73,4374
3750,5365010,22,86,4389
3751,5366010,41,71,4382
3752,5367010,71,64,4382
3753,5368010,60,56,4382
3754,5369010,58,36,4363
3755,5370010,58,23,4372
3756,5371010,25,20,4378
3757,5372009,16,29,4383
3758,5373010,34,52,4408
3759,5374010,58,44,4386
3760,5375010,55,34,4369
3761,5376010,19,31,4377
3762,5377009,7,22,4376
3763,5378010,20,30,4393
3764,5379010,25,55,4408
3765,5380010,18,61,4397
3766,5381010,21,46,4405
3767,5382010,36,43,4389
3768,5383009,30,38,4379
3769,5384010,21,45,4397
3770,5385010,15,56,4398
3771,5386010,27,54,4388
3772,5387010,36,36,4386
3773,5388010,16,34,4375
3774,5389010,22,54,4362
3775,5390010,52,53,4372
3776,5391010,50,48,4381
3777,5392010,27,54,4403
3778,5393010,33,36,4382
3779,5394010,46,47,4360
3780,5395009,35,67,4372
3781,5396010,24,56,4375
3782,5397010,27,58,4367
3783,5398010,34,45,4361
3784,5399010,40,31,4366
3785,5400009,34,50,4361
3786,5401010,34,60,4378
3787,5402010,48,40,4379
3788,5403010,49,30,4385
3789,5404010,47,44,4396
3790,5405010,44,50,4375
3791,5406010,30,49,4370
3792,5407009,18,45,4405
3793,5408009,29,40,4416
3794,5409010,34,46,4396
3795,5410010,23,43,4386
3796,5411009,20,60,4362
3797,5412010,25,76,4359
3798,5413010,31,76,4377
3799,5414010,41,63,4358
3800,5415010,39,45,4359
3801,5416010,37,39,4375
3802,5417010,44,30,4360
3803,5418010,48,26,4376
3804,5419010,60,34,4394
3805,5420009,73,35,4403
3806,5421010,62,25,4410
3807,5422010,47,47,4390
3808,5423010,64,51,4384
3809,5424010,64,46,4401
3810,5425009,49,49,4406
3811,5426010,36,45,4409
3812,5427010,23,54,4413
3813,5428010,28,53,4384
3814,5429010,30,50,4333
3815,5430010,21,51,4353
3816,5431010,27,44,4401
3817,5432010,40,51,4381
3818,5433009,24,54,4358
3819,5434010,21,48,4369
3820,5435010,44,53,4384
3821,5436009,40,47,4390
3822,5437010,41,55,4377
3823,5438010,36,43,4389
3824,5439010,23,30,4402
3825,5440010,23,34,4385
3826,5441010,24,25,4364
3827,5442009,8,27,4344
3828,5443010,19,46,4363
3829,5444010,39,58,4376
3830,5445010,43,51,4375
3831,5446010,52,53,4403
3832,5447010,56,76,4404
3833,5448009,40,63,4397
3834,5449010,30,36,4398
3835,5450010,38,40,4397
3836,5451010,27,38,4392
3837,5452010,35,39,4372
3838,5453010,54,42,4351
3839,5454010,63,32,4376
3840,5455009,64,26,4404
3841,5456010,55,38,4385
3842,5457010,54,59,4373
3843,5458010,47,47,4373
3844,5459009,48,22,4345
3845,5460010,46,42,4319
3846,5461009,17,56,4362
3847,5462010,24,53,4393
3848,5463009,26,42,4399
3849,5464009,19,22,4381
3850,5465010,37,26,4367
3851,5466010,32,50,4363
3852,5467010,12,56,4368
3853,5468010,0,62,4365
3854,5469010,0,46,4348
3855,5470010,34,26,4383
3856,5471010,60,43,4393
3857,5472009,50,58,4398
3858,5473010,53,66,4400
3859,5474009,49,68,4387
3860,5475010,35,53,4384
3861,5476009,43,45,4355
3862,5477010,50,59,4354
3863,5478010,42,75,4369
3864,5479010,39,73,4349
3865,5480010,41,50,4351
3866,5481010,46,57,4376
3867,5482010,53,58,4368
3868,5483010,51,47,4375
3869,5484009,29,39,4369
3870,5485009,20,20,4373
3871,5486010,24,38,4386
3872,5487010,34,51,4365
3873,5488010,41,43,4363
3874,5489009,42,34,4364
3875,5490010,52,28,4347
3876,5491010,37,42,4362
3877,5492010,17,52,4387
3878,5493010,23,48,4391
3879,5494010,38,43,4394
3880,5495009,31,42,4384
3881,5496010,18,40,4374
3882,5497010,31,31,4366
3883,5498010,49,26,4369
3884,5499010,33,38,4382
3885,5500010,32,48,4390
3886,5501009,46,50,4383
3887,5502010,19,41,4407
3888,5503010,23,33,4398
3889,5504010,49,49,4356
3890,5505010,35,51,4356
3891,5506010,13,31,4377
3892,5507010,14,26,4378
3893,5508010,28,40,4366
3894,5509009,20,48,4373
3895,5510010,33,49,4377
3896,5511010,50,48,4372
3897,5512010,33,44,4388
3898,5513010,35,55,4414
3899,5514010,47,55,4416
3900,5515010,38,54,4400
3901,5516009,27,59,4396
3902,5517010,44,46,4391
3903,5518010,59,45,4394
3904,5519009,57,63,4402
3905,5520010,45,67,4394
3906,5521010,38,43,4377
3907,5522010,28,23,4370
3908,5523010,19,23,4361
3909,5524010,37,19,4364
3910,5525009,36,28,4382
3911,5526010,39,34,4377
3912,5527010,62,35,4378
3913,5528010,59,46,4357
3914,5529010,24,54,4358
3915,5530010,33,65,4369
3916,5531009,44,59,4356
3917,5532010,24,46,4369
3918,5533009,23,41,4385
3919,5534010,20,54,4362
3920,5535009,32,64,4350
3921,5536009,41,70,4368
3922,5537010,40,64,4376
3923,5538010,55,52,4398
3924,5539010,48,68,4390
3925,5540010,25,81,4355
3926,5541009,37,60,4348
3927,5542010,39,52,4364
3928,5543010,27,59,4374
3929,5544010,66,47,4377
3930,5545010,70,32,4376
3931,5546010,43,14,4376
3932,5547010,52,4,4394
3933,5548010,57,20,4402
3934,5549010,59,30,4386
3935,5550010,61,17,4355
3936,5551010,47,25,4351
3937,5552010,33,50,4366
3938,5553010,23,59,4371
3939,5554010,23,45,4382
3940,5555010,20,50,4391
3941,5556009,9,53,4387
3942,5557009,17,30,4393
3943,5558010,11,40,4402
3944,5559010,18,49,4398
3945,5560009,37,37,4386
3946,5561010,40,57,4396
3947,5562010,51,61,4395
3948,5563010,55,44,4379
3949,5564010,35,44,4359
3950,5565010,32,40,4362
3951,5566010,38,44,4387
3952,5567010,42,50,4368
3953,5568010,42,43,4353
3954,5569010,43,34,4371
3955,5570010,39,30,4359
3956,5571010,51,35,4362
3957,5572010,58,47,4392
3958,5573009,25,38,4419
3959,5574010,8,51,4411
3960,5575009,21,61,4380
3961,5576010,43,37,4371
3962,5577010,47,51,4372
3963,5578010,57,48,4374
3964,5579010,50,46,4358
3965,5580010,41,44,4383
3966,5581010,55,34,4390
3967,5582010,41,52,4375
3968,5583010,24,47,4376
3969,5584010,42,37,4369
3970,5585010,57,44,4381
3971,5586010,46,46,4394
3972,5587010,34,41,4393
3973,5588010,29,47,4373
3974,5589010,43,52,4368
3975,5590010,43,67,4390
3976,5591010,19,83,4379
3977,5592010,14,80,4367
3978,5593010,11,57,4372
3979,5594010,18,55,4373
3980,5595009,34,53,4386
3981,5596010,47,37,4393
3982,5597010,53,49,4392
3983,5598009,42,55,4390
3984,5599009,50,62,4374
3985,5600010,59,64,4337
3986,5601010,34,45,4329
3987,5602010,41,47,4365
3988,5603010,48,63,4379
3989,5604009,42,53,4364
3990,5605009,60,58,4370
3991,5606010,49,70,4382
3992,5607010,42,65,4387
3993,5608010,41,67,4383
3994,5609010,43,66,4383
3995,5610009,54,64,4393
3996,5611010,52,60,4392
3997,5612010,40,46,4391
3998,5613010,32,38,4387
3999,5614010,48,34,4394
4000,5615010,43,34,4414
4001,5616010,31,32,4411
4002,5617010,43,37,4384
4003,5618009,47,46,4391
4004,5619010,26,46,4394
4005,5620010,12,55,4364
4006,5621010,20,67,4367
4007,5622010,25,59,4387
4008,5623009,40,37,4385
4009,5624010,57,40,4355
4010,5625010,53,39,4362
4011,5626010,32,38,4390
4012,5627010,26,50,4402
4013,5628010,43,42,4412
4014,5629010,46,39,4426
4015,5630009,45,52,4397
4016,5631010,47,49,4378
4017,5632009,43,46,4387
4018,5633010,56,69,4394
4019,5634009,59,79,4406
4020,5635010,40,57,4368
4021,5636010,31,35,4350
4022,5637010,38,32,4366
4023,5638010,40,39,4391
4024,5639009,42,38,4387
4025,5640010,49,37,4367
4026,5641009,37,52,4386
4027,5642010,24,58,4394
4028,5643010,35,45,4377
4029,5644010,27,51,4361
4030,5645010,7,55,4372
4031,5646010,16,42,4367
4032,5647010,8,49,4360
4033,5648009,-4,49,4367
4034,5649010,13,33,4364
4035,5650010,31,24,4387
4036,5651010,25,22,4388
4037,5652009,25,28,4386
4038,5653010,35,33,4382
4039,5654010,31,48,4372
4040,5655009,37,55,4381
4041,5656010,44,46,4406
4042,5657010,40,46,4389
4043,5658009,35,42,4360
4044,5659010,37,50,4378
4045,5660010,42,36,4364
4046,5661010,46,27,4352
4047,5662010,33,58,4380
4048,5663010,44,68,4395
4049,5664010,56,60,4392
4050,5665010,51,56,4364
4051,5666010,48,58,4355
4052,5667010,36,48,4358
4053,5668010,39,30,4357
4054,5669010,49,35,4358
4055,5670010,38,47,4369
4056,5671010,32,54,4386
4057,5672010,48,57,4379
4058,5673009,55,58,4381
4059,5674010,43,69,4370
4060,5675010,36,54,4355
4061,5676010,33,45,4371
4062,5677010,21,65,4386
4063,5678010,27,67,4380
4064,5679010,34,70,4382
4065,5680010,17,67,4395
4066,5681010,22,50,4378
4067,5682009,46,57,4338
4068,5683010,47,77,4342
4069,5684010,75,75,4357
4070,5685010,46,45,4387
4071,5686010,2,21,4384
4072,5687010,22,22,4352
4073,5688010,40,38,4372
4074,5689010,45,57,4374
4075,5690010,20,51,4374
4076,5691010,17,44,4385
4077,5692009,34,49,4393
4078,5693010,37,44,4390
4079,5694010,39,38,4383
4080,5695009,35,40,4371
4081,5696010,35,48,4359
4082,5697010,57,42,4383
4083,5698010,52,43,4391
4084,5699009,40,54,4383
4085,5700010,48,46,4364
4086,5701010,29,42,4358
4087,5702010,6,45,4362
4088,5703010,3,54,4335
4089,5704010,23,61,4332
4090,5705010,51,55,4344
4091,5706010,57,44,4352
4092,5707010,39,38,4372
4093,5708010,52,48,4372
4094,5709010,55,52,4371
4095,5710010,25,51,4382
4096,5711010,34,55,4383
4097,5712010,45,58,4392
4098,5713010,54,44,4392
4099,5714010,58,29,4374
4100,5715010,49,44,4370
4101,5716010,66,43,4377
4102,5717010,59,47,4378
4103,5718010,41,78,4367
4104,5719010,50,66,4373
4105,5720010,46,44,4404
4106,5721010,35,46,4391
4107,5722010,38,48,4360
4108,5723009,51,44,4336
4109,5724010,45,48,4337
4110,5725009,33,44,4351
4111,5726010,31,31,4361
4112,5727010,29,25,4368
4113,5728010,32,29,4372
4114,5729010,30,49,4380
4115,5730010,21,51,4371
4116,5731010,13,40,4371
4117,5732010,19,36,4398
4118,5733010,26,49,4394
4119,5734010,50,50,4367
4120,5735010,47,30,4361
4121,5736010,14,41,4367
4122,5737010,22,57,4360
4123,5738010,43,68,4360
4124,5739010,61,63,4386
4125,5740009,54,52,4389
4126,5741010,18,57,4391
4127,5742010,35,51,4377
4128,5743009,63,47,4357
4129,5744010,43,47,4371
4130,5745010,42,55,4381
4131,5746010,42,49,4381
4132,5747009,41,28,4394
4133,5748010,34,34,4349
4134,5749010,26,46,4342
4135,5750010,34,46,4378
4136,5751010,37,44,4360
4137,5752009,34,46,4373
4138,5753009,35,50,4394
4139,5754010,43,34,4393
4140,5755010,38,35,4389
4141,5756010,30,51,4382
4142,5757010,32,44,4381
4143,5758010,31,63,4356
4144,5759010,31,70,4336
4145,5760010,29,50,4359
4146,5761010,33,51,4372
4147,5762010,45,52,4378
4148,5763010,33,62,4403
4149,5764010,15,59,4401
4150,5765009,41,35,4368
4151,5766009,46,37,4362
4152,5767010,19,44,4388
4153,5768010,31,51,4383
4154,5769010,39,59,4360
4155,5770010,38,50,4354
4156,5771010,24,52,4365
4157,5772009,16,57,4365
4158,5773010,32,47,4360
4159,5774010,33,44,4376
4160,5775010,31,56,4377
4161,5776009,39,55,4370
4162,5777009,51,34,4364
4163,5778010,49,36,4368
4164,5779010,31,57,4388
4165,5780010,18,63,4401
4166,5781010,28,62,4381
4167,5782010,48,43,4359
4168,5783010,37,35,4359
4169,5784009,18,45,4352
4170,5785009,13,65,4345
4171,5786010,-1,75,4366
4172,5787010,1,53,4389
4173,5788010,13,49,4415
4174,5789010,14,55,4418
4175,5790010,28,41,4370
4176,5791009,37,47,4371
4177,5792010,39,56,4401
4178,5793010,34,42,4381
4179,5794009,29,35,4367
4180,5795009,37,43,4377
4181,5796010,31,63,4364
4182,5797010,19,59,4379
4183,5798010,30,46,4397
4184,5799010,35,45,4377
4185,5800010,40,48,4357
4186,5801009,48,55,4345
4187,5802010,46,50,4366
4188,5803009,32,50,4388
4189,5804009,12,53,4375
4190,5805010,21,43,4358
4191,5806010,37,29,4364
4192,5807010,41,28,4368
4193,5808010,46,43,4359
4194,5809010,52,49,4365
4195,5810010,62,54,4391
4196,5811010,56,33,4413
4197,5812010,41,33,4401
4198,5813010,35,56,4369
4199,5814010,23,57,4377
4200,5815010,21,59,4392
4201,5816010,11,65,4368
4202,5817010,9,64,4360
4203,5818010,19,45,4364
4204,5819009,31,40,4364
4205,5820010,41,49,4391
4206,5821009,38,58,4391
4207,5822009,25,52,4367
4208,5823009,13,42,4366
4209,5824010,15,47,4374
4210,5825009,19,53,4382
4211,5826009,44,49,4366
4212,5827010,61,31,4364
4213,5828010,53,21,4396
4214,5829010,39,52,4411
4215,5830010,37,66,4423
4216,5831010,49,54,4420
4217,5832010,48,50,4376
4218,5833010,46,43,4361
4219,5834010,37,41,4366
4220,5835010,38,37,4370
4221,5836009,62,22,4372
4222,5837010,73,30,4365
4223,5838010,66,60,4366
4224,5839010,49,65,4369
4225,5840010,36,66,4374
4226,5841010,44,59,4395
4227,5842010,38,45,4420
4228,5843010,28,43,4401
4229,5844010,26,40,4382
4230,5845010,38,41,4389
4231,5846010,51,36,4375
4232,5847010,45,42,4347
4233,5848010,51,49,4355
4234,5849010,50,50,4356
4235,5850010,50,54,4340
4236,5851010,56,46,4362
4237,5852009,45,38,4389
4238,5853010,42,44,4404
4239,5854010,33,68,4405
4240,5855010,31,71,4390
4241,5856010,64,67,4381
4242,5857010,71,64,4357
4243,5858010,49,52,4346
4244,5859010,19,72,4368
4245,5860010,19,72,4390
4246,5861010,26,62,4368
4247,5862010,33,64,4364
4248,5863010,50,54,4380
4249,5864009,44,51,4388
4250,5865010,59,55,4392
4251,5866010,61,57,4396
4252,5867009,43,64,4393
4253,5868010,32,46,4347
4254,5869010,18,31,4352
4255,5870010,26,46,4373
4256,5871009,51,49,4365
4257,5872010,38,54,4389
4258,5873010,21,44,4423
4259,5874010,42,55,4409
4260,5875010,57,73,4383
4261,5876010,38,54,4355
4262,5877010,22,37,4365
4263,5878010,24,39,4383
4264,5879010,28,42,4375
4265,5880010,42,44,4380
4266,5881010,63,49,4392
4267,5882010,62,55,4392
4268,5883009,61,51,4372
4269,5884010,61,51,4389
4270,5885009,50,52,4395
4271,5886010,51,43,4404
4272,5887010,40,34,4392
4273,5888010,33,24,4371
4274,5889010,39,27,4383
4275,5890010,39,23,4375
4276,5891010,20,23,4371
4277,5892010,10,32,4379
4278,5893009,36,36,4399
4279,5894010,57,52,4375
4280,5895010,39,60,4375
4281,5896010,33,44,4386
4282,5897010,27,49,4366
4283,5898010,28,58,4371
4284,5899010,42,51,4372
4285,5900010,49,51,4373
4286,5901009,54,63,4376
4287,5902010,42,61,4362
4288,5903010,44,35,4356
4289,5904009,19,42,4373
4290,5905010,-1,60,4370
4291,5906010,24,61,4380
4292,5907010,49,60,4399
4293,5908010,64,49,4393
4294,5909010,52,37,4394
4295,5910010,31,47,4399
4296,5911010,39,52,4362
4297,5912010,52,46,4362
4298,5913010,39,61,4408
4299,5914010,21,67,4404
4300,5915010,21,60,4379
4301,5916010,29,50,4389
4302,5917010,30,47,4404
4303,5918010,34,57,4372
4304,5919010,33,67,4364
4305,5920010,28,68,4369
4306,5921010,15,67,4365
4307,5922010,26,59,4363
4308,5923010,32,38,4355
4309,5924009,8,36,4392
4310,5925009,26,50,4392
4311,5926009,51,53,4378
4312,5927010,35,44,4380
4313,5928010,20,40,4360
4314,5929009,31,49,4372
4315,5930010,37,48,4381
4316,5931010,33,49,4367
4317,5932010,40,61,4381
4318,5933009,27,60,4378
4319,5934010,21,54,4361
4320,5935010,58,44,4363
4321,5936009,67,44,4357
4322,5937010,43,39,4358
4323,5938009,35,47,4376
4324,5939010,52,44,4385
4325,5940009,65,29,4383
4326,5941010,39,38,4383
4327,5942010,21,44,4356
4328,5943010,49,58,4353
4329,5944010,59,43,4381
4330,5945009,43,31,4389
4331,5946010,45,52,4381
4332,5947010,42,54,4378
4333,5948009,44,46,4371
4334,5949010,36,53,4372
4335,5950010,25,62,4373
4336,5951009,22,62,4357
4337,5952010,30,50,4368
4338,5953009,55,42,4395
4339,5954010,45,46,4402
4340,5955010,36,43,4393
4341,5956010,38,29,4386
4342,5957009,37,25,4397
4343,5958010,42,23,4421
4344,5959010,35,12,4390
4345,5960010,21,23,4361
4346,5961010,33,43,4370
4347,5962009,55,51,4368
4348,5963010,44,55,4370
4349,5964010,22,56,4362
4350,5965010,23,57,4376
4351,5966010,29,57,4392
4352,5967010,18,51,4374
4353,5968010,23,50,4371
4354,5969010,38,43,4374
4355,5970010,44,55,4382
4356,5971010,41,61,4404
4357,5972010,18,35,4414
4358,5973009,24,54,4393
4359,5974010,54,63,4380
4360,5975010,52,42,4370
4361,5976010,35,38,4372
4362,5977010,26,51,4401
4363,5978010,30,57,4398
4364,5979010,48,46,4374
4365,5980010,35,44,4370
4366,5981010,24,33,4380
4367,5982009,38,31,4385
4368,5983010,38,53,4366
4369,5984010,29,59,4350
4370,5985010,22,52,4361
4371,5986010,24,52,4370
4372,5987009,20,55,4374
4373,5988010,32,60,4384
4374,5989010,43,57,4377
4375,5990010,42,55,4374
4376,5991009,38,43,4395
4377,5992010,27,34,4397
4378,5993010,29,49,4374
4379,5994010,30,48,4347
4380,5995010,28,49,4362
4381,5996010,38,68,4384
4382,5997010,58,60,4376
4383,5998010,66,43,4370
4384,5999010,42,41,4357
4385,6000010,22,41,4341
4386,6001010,41,41,4379
4387,6002009,54,42,4396
4388,6003009,43,55,4374
4389,6004009,18,45,4367
4390,6005010,25,24,4345
4391,6006010,43,45,4351
4392,6007010,27,57,4378
4393,6008010,7,55,4376
4394,6009010,9,47,4380
4395,6010010,18,56,4403
4396,6011010,21,67,4409
4397,6012010,23,50,4373
4398,6013010,31,57,4379
4399,6014010,42,68,4416
4400,6015010,46,59,4403
4401,6016010,49,51,4370
4402,6017010,49,54,4363
4403,6018009,47,40,4358
4404,6019009,43,27,4362
4405,6020010,42,43,4375
4406,6021010,31,56,4332
4407,6022010,7,62,4336
4408,6023009,17,55,4363
4409,6024010,45,48,4379
4410,6025010,43,54,4362
4411,6026010,38,39,4331
4412,6027010,24,47,4357
4413,6028010,13,54,4357
4414,6029009,31,47,4363
4415,6030010,46,51,4393
4416,6031010,38,46,4381
4417,6032010,30,60,4373
4418,6033010,33,68,4376
4419,6034009,36,63,4371
4420,6035010,47,54,4370
4421,6036010,41,37,4353
4422,6037010,33,44,4353
4423,6038010,51,52,4346
4424,6039010,43,61,4351
4425,6040010,41,74,4376
4426,6041010,45,42,4394
4427,6042010,38,26,4403
4428,6043010,35,67,4374
4429,6044010,25,70,4373
4430,6045009,31,37,4396
4431,6046010,32,20,4393
4432,6047010,25,17,4382
4433,6048010,37,33,4370
4434,6049010,45,27,4366
4435,6050010,47,42,4379
4436,6051010,58,65,4376
4437,6052009,54,52,4363
4438,6053010,26,54,4374
4439,6054010,35,60,4397
4440,6055009,41,64,4388
4441,6056010,28,66,4352
4442,6057010,39,59,4355
4443,6058010,36,45,4389
4444,6059009,38,41,4411
4445,6060010,42,48,4413
4446,6061010,25,61,4393
4447,6062010,29,53,4364
4448,6063009,32,36,4353
4449,6064010,21,50,4378
4450,6065010,28,59,4398
4451,6066010,32,52,4371
4452,6067010,34,52,4381
4453,6068010,31,50,4411
4454,6069010,47,36,4371
4455,6070010,51,45,4335
4456,6071010,26,59,4357
4457,6072010,33,55,4372
4458,6073010,37,44,4385
4459,6074010,35,51,4390
4460,6075010,34,57,4392
4461,6076009,35,51,4407
4462,6077010,37,55,4369
4463,6078010,40,42,4366
4464,6079010,59,49,4397
4465,6080010,48,59,4393
4466,6081010,22,49,4381
4467,6082010,3,48,4382
4468,6083010,18,46,4417
4469,6084010,41,45,4409
4470,6085010,33,51,4384
4471,6086010,35,59,4371
4472,6087010,46,60,4365
4473,6088010,55,65,4372
4474,6089010,53,64,4354
4475,6090010,41,45,4346
4476,6091009,34,37,4359
4477,6092009,41,37,4366
4478,6093010,54,49,4341
4479,6094010,53,58,4349
4480,6095010,49,59,4400
4481,6096010,18,63,4373
4482,6097009,18,66,4345
4483,6098010,39,56,4373
4484,6099010,52,47,4378
4485,6100010,52,48,4394
4486,6101010,30,65,4415
4487,6102010,38,71,4378
4488,6103010,36,49,4348
4489,6104010,44,53,4364
4490,6105009,50,57,4363
4491,6106009,17,49,4356
4492,6107009,20,63,4367
4493,6108009,36,59,4373
4494,6109010,25,40,4354
4495,6110010,29,51,4363
4496,6111010,41,53,4405
4497,6112010,49,48,4427
4498,6113010,39,51,4416
4499,6114010,42,41,4369
4500,6115009,42,44,4365
4501,6116010,31,48,4378
4502,6117010,25,49,4369
4503,6118010,19,62,4379
4504,6119010,35,62,4403
4505,6120010,46,53,4400
4506,6121010,52,65,4369
4507,6122010,56,72,4364
4508,6123010,48,61,4371
4509,6124010,54,57,4383
4510,6125010,49,59,4398
4511,6126010,25,52,4406
4512,6127010,13,29,4388
4513,6128010,4,39,4380
4514,6129010,18,65,4396
4515,6130009,37,50,4384
4516,6131010,36,42,4379
4517,6132010,35,47,4387
4518,6133010,30,39,4400
4519,6134010,36,53,4404
4520,6135010,26,61,4365
4521,6136010,23,59,4352
4522,6137010,32,65,4394
4523,6138010,36,59,4407
4524,6139009,37,60,4383
4525,6140009,25,77,4362
4526,6141009,38,70,4377
4527,6142010,38,34,4391
4528,6143009,40,37,4386
4529,6144010,51,64,4374
4530,6145009,44,64,4366
4531,6146010,42,52,4401
4532,6147009,44,45,4397
4533,6148009,47,53,4366
4534,6149009,32,56,4402
4535,6150009,40,54,4424
4536,6151010,44,40,4413
4537,6152010,44,57,4395
4538,6153010,47,75,4360
4539,6154010,38,46,4342
4540,6155010,34,47,4370
4541,6156009,28,48,4402
4542,6157009,34,34,4380
4543,6158010,40,50,4379
4544,6159009,45,61,4387
4545,6160009,45,51,4391
4546,6161010,25,58,4381
4547,6162010,1,70,4373
4548,6163010,2,64,4397
4549,6164010,23,60,4378
4550,6165010,40,58,4364
4551,6166009,41,50,4363
4552,6167010,33,36,4358
4553,6168010,33,37,4381
4554,6169010,32,49,4374
4555,6170010,29,62,4357
4556,6171010,35,78,4369
4557,6172010,27,70,4360
4558,6173010,22,44,4371
4559,6174010,25,41,4379
4560,6175010,31,51,4370
4561,6176010,40,50,4386
4562,6177010,41,38,4403
4563,6178010,37,26,4388
4564,6179010,37,34,4356
4565,6180009,33,49,4355
4566,6181010,41,59,4365
4567,6182010,49,49,4353
4568,6183009,50,54,4364
4569,6184010,48,81,4396
4570,6185009,25,79,4398
4571,6186010,30,51,4386
4572,6187010,32,44,4369
4573,6188010,28,46,4374
4574,6189009,43,42,4390
4575,6190009,42,48,4386
4576,6191010,31,50,4377
4577,6192010,27,58,4384
4578,6193009,39,60,4373
4579,6194010,51,41,4376
4580,6195010,56,37,4373
4581,6196010,39,51,4358
4582,6197010,43,48,4362
4583,6198010,54,44,4371
4584,6199010,35,58,4361
4585,6200010,32,58,4330
4586,6201010,51,43,4347
4587,6202010,60,48,4394
4588,6203009,51,50,4413
4589,6204010,48,44,4400
4590,6205010,42,48,4396
4591,6206010,36,63,4395
4592,6207010,22,49,4387
4593,6208010,20,38,4369
4594,6209010,41,57,4362
4595,6210010,45,51,4382
4596,6211010,33,57,4391
4597,6212010,37,52,4371
4598,6213010,37,43,4356
4599,6214010,18,65,4355
4600,6215010,12,62,4369
4601,6216010,8,49,4370
4602,6217010,34,54,4372
4603,6218010,60,59,4373
4604,6219010,56,57,4356
4605,6220010,49,48,4373
4606,6221010,47,45,4394
4607,6222010,37,51,4376
4608,6223010,20,42,4365
4609,6224010,26,46,4377
4610,6225010,31,33,4378
4611,6226010,43,33,4378
4612,6227010,53,56,4380
4613,6228010,55,51,4389
4614,6229010,49,51,4410
4615,6230010,36,65,4379
4616,6231009,35,62,4353
4617,6232010,36,44,4381
4618,6233010,33,47,4362
4619,6234010,32,46,4360
4620,6235010,46,39,4401
4621,6236010,57,38,4377
4622,6237010,56,49,4351
4623,6238010,45,54,4351
4624,6239010,39,58,4355
4625,6240010,38,50,4374
4626,6241009,32,40,4388
4627,6242010,23,43,4388
4628,6243009,18,46,4393
4629,6244010,21,63,4391
4630,6245010,41,69,4378
4631,6246010,56,48,4380
4632,6247010,40,25,4384
4633,6248010,20,32,4376
4634,6249010,20,43,4377
4635,6250010,35,57,4378
4636,6251010,22,63,4364
4637,6252010,21,61,4370
4638,6253010,41,62,4357
4639,6254010,39,50,4345
4640,6255010,27,55,4384
4641,6256010,21,67,4423
4642,6257010,32,55,4403
4643,6258010,42,47,4382
4644,6259009,55,43,4387
4645,6260010,56,41,4396
4646,6261010,31,43,4391
4647,6262010,30,55,4376
4648,6263009,51,60,4392
4649,6264010,45,60,4394
4650,6265010,41,78,4363
4651,6266010,48,72,4347
4652,6267010,51,49,4369
4653,6268010,43,43,4397
4654,6269009,31,42,4383
4655,6270009,29,39,4363
4656,6271010,25,54,4390
4657,6272009,40,65,4403
4658,6273009,40,61,4390
4659,6274010,14,52,4416
4660,6275010,28,55,4430
4661,6276009,41,52,4408
4662,6277010,42,53,4376
4663,6278010,50,54,4362
4664,6279010,39,34,4361
4665,6280010,32,31,4356
4666,6281009,37,33,4358
4667,6282010,43,35,4368
4668,6283010,43,52,4375
4669,6284009,51,51,4372
4670,6285010,41,42,4375
4671,6286010,26,58,4376
4672,6287010,37,58,4356
4673,6288010,17,43,4346
4674,6289010,15,35,4368
4675,6290010,48,41,4377
4676,6291010,58,53,4362
4677,6292009,35,51,4371
4678,6293010,30,59,4361
4679,6294010,46,52,4348
4680,6295010,42,55,4388
4681,6296010,37,73,4391
4682,6297010,21,61,4373
4683,6298010,15,52,4373
4684,6299010,21,50,4374
4685,6300010,20,47,4395
4686,6301010,33,41,4402
4687,6302010,44,37,4398
4688,6303010,48,50,4405
4689,6304010,41,64,4408
4690,6305010,27,56,4397
4691,6306010,31,58,4374
4692,6307010,53,51,4369
4693,6308010,51,38,4369
4694,6309010,40,48,4380
4695,6310010,42,47,4377
4696,6311010,29,33,4364
4697,6312009,18,35,4359
4698,6313010,18,59,4363
4699,6314010,40,63,4361
4700,6315010,50,69,4345
4701,6316010,40,55,4347
4702,6317010,36,29,4348
4703,6318010,41,41,4371
4704,6319010,24,45,4406
4705,6320009,26,32,4407
4706,6321010,47,33,4409
4707,6322010,27,53,4385
4708,6323010,26,74,4355
4709,6324010,32,76,4379
4710,6325010,32,55,4385
4711,6326010,39,55,4372
4712,6327010,40,63,4354
4713,6328010,34,58,4363
4714,6329010,25,51,4390
4715,6330010,40,42,4380
4716,6331010,33,51,4386
4717,6332010,18,54,4399
4718,6333010,27,52,4378
4719,6334009,36,50,4366
4720,6335010,40,24,4371
4721,6336010,52,32,4378
4722,6337010,41,61,4378
4723,6338009,30,60,4350
4724,6339010,41,64,4345
4725,6340010,45,61,4366
4726,6341010,45,52,4354
4727,6342010,35,45,4359
4728,6343010,41,37,4389
4729,6344010,43,44,4375
4730,6345010,39,40,4380
4731,6346010,49,41,4392
4732,6347010,47,45,4374
4733,6348010,49,34,4373
4734,6349010,51,42,4364
4735,6350010,36,50,4367
4736,6351010,40,49,4401
4737,6352010,60,63,4406
4738,6353009,62,73,4394
4739,6354010,29,74,4392
4740,6355010,11,69,4395
4741,6356010,27,48,4388
4742,6357010,42,35,4371
4743,6358009,32,44,4370
4744,6359010,33,51,4393
4745,6360010,36,48,4400
4746,6361010,22,50,4393
4747,6362010,13,54,4366
4748,6363010,5,61,4348
4749,6364010,4,44,4364
4750,6365010,19,44,4381
4751,6366010,41,58,4386
4752,6367010,35,56,4364
4753,6368010,36,65,4362
4754,6369009,37,58,4360
4755,6370010,28,58,4354
4756,6371010,21,58,4371
4757,6372010,13,53,4393
4758,6373010,27,63,4380
4759,6374010,32,61,4346
4760,6375010,23,45,4351
4761,6376010,22,43,4387
4762,6377010,38,48,4395
4763,6378010,40,65,4417
4764,6379010,43,67,4427
4765,6380010,48,42,4410
4766,6381010,26,31,4411
4767,6382010,17,51,4395
4768,6383010,33,58,4367
4769,6384010,41,53,4376
4770,6385010,31,56,4390
4771,6386010,44,47,4387
4772,6387010,52,43,4392
4773,6388009,34,49,4389
4774,6389010,27,58,4398
4775,6390010,34,56,4383
4776,6391010,42,51,4367
4777,6392010,39,42,4364
4778,6393010,29,31,4338
4779,6394010,27,50,4338
4780,6395010,40,71,4375
4781,6396010,46,52,4400
4782,6397010,49,39,4397
4783,6398010,39,49,4369
4784,6399010,37,57,4360
4785,6400010,48,47,4355
4786,6401010,32,36,4365
4787,6402010,21,37,4382
4788,6403009,23,52,4396
4789,6404009,35,67,4378
4790,6405010,36,61,4349
4791,6406009,21,47,4391
4792,6407010,13,30,4401
4793,6408010,30,26,4364
4794,6409009,44,33,4372
4795,6410010,43,59,4395
4796,6411010,40,68,4382
4797,6412010,43,46,4383
4798,6413010,50,57,4373
4799,6414010,34,69,4392
4800,6415010,27,61,4408
4801,6416010,24,70,4372
4802,6417010,31,82,4373
4803,6418010,42,77,4386
4804,6419010,35,65,4388
4805,6420009,39,47,4379
4806,6421010,35,45,4372
4807,6422010,41,42,4367
4808,6423010,51,33,4347
4809,6424010,60,30,4354
4810,6425010,52,38,4372
4811,6426010,29,51,4386
4812,6427009,27,45,4388
4813,6428010,24,52,4373
4814,6429009,39,55,4368
4815,6430010,50,42,4354
4816,6431010,47,61,4360
4817,6432010,56,54,4402
4818,6433010,42,32,4400
4819,6434009,35,50,4410
4820,6435010,42,49,4430
4821,6436010,34,46,4414
4822,6437010,19,44,4383
4823,6438010,9,42,4365
4824,6439009,28,42,4384
4825,6440010,40,48,4408
4826,6441010,43,64,4389
4827,6442009,46,56,4342
4828,6443010,47,45,4339
4829,6444010,54,56,4367
4830,6445010,48,51,4360
4831,6446010,36,48,4360
4832,6447010,35,62,4370
4833,6448010,55,50,4371
4834,6449010,69,36,4376
4835,6450009,47,58,4383
4836,6451010,39,65,4402
4837,6452010,35,48,4393
4838,6453010,40,37,4379
4839,6454010,48,42,4366
4840,6455010,35,43,4358
4841,6456010,34,53,4381
4842,6457010,35,69,4357
4843,6458010,30,53,4356
4844,6459009,28,52,4415
4845,6460010,33,49,4404
4846,6461010,32,42,4386
4847,6462010,17,55,4419
4848,6463010,21,57,4422
4849,6464010,50,53,4386
4850,6465010,63,43,4368
4851,6466009,58,52,4373
4852,6467009,46,61,4385
4853,6468010,17,44,4379
4854,6469009,8,30,4365
4855,6470010,35,22,4344
4856,6471010,40,36,4333
4857,6472010,32,50,4359
4858,6473010,27,46,4393
4859,6474009,35,44,4376
4860,6475010,46,64,4359
4861,6476010,52,71,4370
4862,6477010,40,52,4373
4863,6478009,32,47,4368
4864,6479010,43,44,4364
4865,6480010,41,39,4353
4866,6481010,40,47,4355
4867,6482010,37,50,4377
4868,6483010,34,42,4388
4869,6484010,29,47,4389
4870,6485010,45,60,4381
4871,6486010,44,57,4372
4872,6487010,18,46,4376
4873,6488010,18,50,4394
4874,6489010,28,51,4400
4875,6490010,35,43,4409
4876,6491010,24,37,4406
4877,6492010,17,36,4391
4878,6493010,11,38,4374
4879,6494010,25,39,4360
4880,6495010,36,52,4367
4881,6496009,31,65,4360
4882,6497010,36,64,4362
4883,6498010,35,54,4390
4884,6499010,38,52,4375
4885,6500010,49,48,4362
4886,6501010,52,29,4370
4887,6502009,37,33,4377
4888,6503010,33,50,4371
4889,6504010,21,47,4363
4890,6505010,23,43,4398
4891,6506010,38,37,4416
4892,6507010,34,41,4419
4893,6508010,30,57,4395
4894,6509009,30,75,4370
4895,6510010,27,79,4363
4896,6511010,24,66,4369
4897,6512010,35,58,4358
4898,6513010,29,51,4368
4899,6514009,24,42,4401
4900,6515010,36,62,4381
4901,6516010,27,73,4367
4902,6517010,27,55,4373
4903,6518010,40,45,4377
4904,6519010,56,40,4365
4905,6520010,60,39,4358
4906,6521009,41,44,4383
