row,seconds,esp32_index,micros,ax,ay,az
0,0.000000,76,283599896,-114,91,4383
1,0.000413,77,283600309,-114,91,4383
2,0.000808,78,283600704,-121,81,4366
3,0.001212,79,283601108,-121,81,4366
4,0.001609,80,283601505,-121,81,4366
5,0.002011,81,283601907,-109,53,4362
6,0.002417,82,283602313,-109,53,4362
7,0.002823,83,283602719,-137,53,4399
8,0.003218,84,283603114,-137,53,4399
9,0.003624,85,283603520,-137,53,4399
10,0.004026,86,283603922,-125,56,4409
11,0.004438,87,283604334,-125,56,4409
12,0.004839,88,283604735,-98,55,4390
13,0.005235,89,283605131,-98,55,4390
14,0.005639,90,283605535,-98,55,4390
15,0.006058,91,283605954,-107,64,4389
16,0.006460,92,283606356,-107,64,4389
17,0.006868,93,283606764,-98,57,4376
18,0.007264,94,283607160,-98,57,4376
19,0.007672,95,283607568,-98,57,4376
20,0.008084,96,283607980,-106,53,4358
21,0.008479,97,283608375,-106,53,4358
22,0.008890,98,283608786,-135,44,4368
23,0.009297,99,283609193,-135,44,4368
24,0.009699,100,283609595,-135,44,4368
25,0.010111,101,283610007,-129,26,4400
26,0.010501,102,283610397,-129,26,4400
27,0.010915,103,283610811,-115,38,4384
28,0.011317,104,283611213,-115,38,4384
29,0.011726,105,283611622,-115,38,4384
30,0.012126,106,283612022,-118,60,4373
31,0.012529,107,283612425,-118,60,4373
32,0.012932,108,283612828,-119,64,4401
33,0.013340,109,283613236,-119,64,4401
34,0.013742,110,283613638,-119,64,4401
35,0.014138,111,283614034,-102,67,4386
36,0.014527,112,283614423,-102,67,4386
37,0.014935,113,283614831,-103,54,4359
38,0.015337,114,283615233,-103,54,4359
39,0.015744,115,283615640,-103,54,4359
40,0.016141,116,283616037,-94,53,4382
41,0.016554,117,283616450,-94,53,4382
42,0.016943,118,283616839,-98,87,4366
43,0.017354,119,283617250,-98,87,4366
44,0.017750,120,283617646,-98,87,4366
45,0.018148,121,283618044,-107,82,4323
46,0.018538,122,283618434,-107,82,4323
47,0.018942,123,283618838,-122,80,4362
48,0.019329,124,283619225,-122,80,4362
49,0.019737,125,283619633,-122,80,4362
50,0.020137,126,283620033,-145,82,4386
51,0.020540,127,283620436,-145,82,4386
52,0.020943,128,283620839,-114,69,4351
53,0.021351,129,283621247,-114,69,4351
54,0.021753,130,283621649,-114,69,4351
55,0.022149,131,283622045,-116,56,4359
56,0.022544,132,283622440,-116,56,4359
57,0.022963,133,283622859,-113,45,4389
58,0.023365,134,283623261,-113,45,4389
59,0.023773,135,283623669,-113,45,4389
60,0.024164,136,283624060,-108,53,4374
61,0.024570,137,283624466,-108,53,4374
62,0.024965,138,283624861,-108,61,4351
63,0.025379,139,283625275,-108,61,4351
64,0.025782,140,283625678,-109,80,4350
65,0.026176,141,283626072,-109,80,4350
66,0.026582,142,283626478,-109,80,4350
67,0.026991,143,283626887,-132,73,4344
68,0.027392,144,283627288,-132,73,4344
69,0.027791,145,283627687,-115,66,4353
70,0.028180,146,283628076,-115,66,4353
71,0.028593,147,283628489,-115,66,4353
72,0.028988,148,283628884,-95,74,4378
73,0.029407,149,283629303,-95,74,4378
74,0.029808,150,283629704,-95,61,4377
75,0.030205,151,283630101,-95,61,4377
76,0.030607,152,283630503,-95,61,4377
77,0.031008,153,283630904,-91,51,4356
78,0.031413,154,283631309,-91,51,4356
79,0.031821,155,283631717,-86,46,4352
80,0.032217,156,283632113,-86,46,4352
81,0.032616,157,283632512,-86,46,4352
82,0.033020,158,283632916,-88,40,4377
83,0.033433,159,283633329,-88,40,4377
84,0.033828,160,283633724,-88,40,4379
85,0.034230,161,283634126,-88,40,4379
86,0.034630,162,283634526,-88,40,4379
87,0.035039,163,283634935,-106,62,4347
88,0.035444,164,283635340,-106,62,4347
89,0.035858,165,283635754,-114,79,4334
90,0.036255,166,283636151,-114,79,4334
91,0.036662,167,283636558,-114,79,4334
92,0.037069,168,283636965,-93,57,4327
93,0.037476,169,283637372,-93,57,4327
94,0.037878,170,283637774,-82,36,4320
95,0.038286,171,283638182,-82,36,4320
96,0.038691,172,283638587,-82,36,4320
97,0.039103,173,283638999,-98,50,4355
98,0.039493,174,283639389,-98,50,4355
99,0.039895,175,283639791,-108,55,4356
100,0.040292,176,283640188,-108,55,4356
101,0.040700,177,283640596,-108,55,4356
102,0.041107,178,283641003,-100,52,4357
103,0.041509,179,283641405,-100,52,4357
104,0.041912,180,283641808,-102,52,4363
105,0.042320,181,283642216,-102,52,4363
106,0.042722,182,283642618,-102,52,4363
107,0.043130,183,283643026,-94,65,4342
108,0.043519,184,283643415,-94,65,4342
109,0.043933,185,283643829,-88,81,4375
110,0.044320,186,283644216,-88,81,4375
111,0.044730,187,283644626,-88,81,4375
112,0.045136,188,283645032,-95,50,4382
113,0.045531,189,283645427,-95,50,4382
114,0.045935,190,283645831,-92,40,4371
115,0.046337,191,283646233,-92,40,4371
116,0.046738,192,283646634,-92,40,4371
117,0.047142,193,283647038,-85,47,4377
118,0.047533,194,283647429,-85,47,4377
119,0.047930,195,283647826,-75,42,4369
120,0.048316,196,283648212,-75,42,4369
121,0.048725,197,283648621,-75,42,4369
122,0.049112,198,283649008,-71,47,4358
123,0.049510,199,283649406,-71,47,4358
124,0.049912,200,283649808,-77,39,4360
125,0.050320,201,283650216,-77,39,4360
126,0.050724,202,283650620,-77,39,4360
127,0.051129,203,283651025,-83,56,4375
128,0.051526,204,283651422,-83,56,4375
129,0.051934,205,283651830,-77,60,4405
130,0.052336,206,283652232,-77,60,4405
131,0.052739,207,283652635,-77,60,4405
132,0.053138,208,283653034,-92,62,4416
133,0.053539,209,283653435,-92,62,4416
134,0.053934,210,283653830,-82,88,4361
135,0.054342,211,283654238,-82,88,4361
136,0.054744,212,283654640,-82,88,4361
137,0.055145,213,283655041,-80,84,4332
138,0.055543,214,283655439,-80,84,4332
139,0.055950,215,283655846,-110,54,4350
140,0.056361,216,283656257,-110,54,4350
141,0.056770,217,283656666,-110,54,4350
142,0.057162,218,283657058,-111,51,4366
143,0.057561,219,283657457,-111,51,4366
144,0.057930,220,283657826,-104,55,4382
145,0.058342,221,283658238,-104,55,4382
146,0.058735,222,283658631,-104,55,4382
147,0.059128,223,283659024,-103,63,4361
148,0.059531,224,283659427,-103,63,4361
149,0.059934,225,283659830,-116,85,4332
150,0.060342,226,283660238,-116,85,4332
151,0.060745,227,283660641,-116,85,4332
152,0.061151,228,283661047,-110,78,4338
153,0.061547,229,283661443,-110,78,4338
154,0.061956,230,283661852,-85,60,4382
155,0.062358,231,283662254,-85,60,4382
156,0.062766,232,283662662,-85,60,4382
157,0.063158,233,283663054,-85,58,4381
158,0.063561,234,283663457,-85,58,4381
159,0.063930,235,283663826,-104,57,4362
160,0.064327,236,283664223,-104,57,4362
161,0.064703,237,283664599,-104,57,4362
162,0.065102,238,283664998,-111,40,4392
163,0.065503,239,283665399,-111,40,4392
164,0.065886,240,283665782,-85,44,4394
165,0.066261,241,283666157,-85,44,4394
166,0.066675,242,283666571,-85,44,4394
167,0.067087,243,283666983,-78,38,4395
168,0.067489,244,283667385,-78,38,4395
169,0.067891,245,283667787,-83,41,4383
170,0.068294,246,283668190,-83,41,4383
171,0.068695,247,283668591,-83,41,4383
172,0.069096,248,283668992,-101,73,4387
173,0.069504,249,283669400,-101,73,4387
174,0.069907,250,283669803,-109,68,4375
175,0.070314,251,283670210,-109,68,4375
176,0.070717,252,283670613,-109,68,4375
177,0.071122,253,283671018,-83,35,4384
178,0.071510,254,283671406,-83,35,4384
179,0.071925,255,283671821,-108,53,4391
180,0.072320,256,283672216,-108,53,4391
181,0.072734,257,283672630,-108,53,4391
182,0.073133,258,283673029,-124,64,4345
183,0.073536,259,283673432,-124,64,4345
184,0.073932,260,283673828,-115,46,4331
185,0.074347,261,283674243,-115,46,4331
186,0.074742,262,283674638,-115,46,4331
187,0.075153,263,283675049,-105,49,4347
188,0.075542,264,283675438,-105,49,4347
189,0.075947,265,283675843,-101,57,4375
190,0.076357,266,283676253,-101,57,4375
191,0.076766,267,283676662,-101,57,4375
192,0.077158,268,283677054,-115,71,4381
193,0.077566,269,283677462,-115,71,4381
194,0.077975,270,283677871,-112,56,4364
195,0.078369,271,283678265,-112,56,4364
196,0.078768,272,283678664,-91,46,4350
197,0.079171,273,283679067,-91,46,4350
198,0.079572,274,283679468,-91,46,4350
199,0.079986,275,283679882,-76,48,4361
200,0.080388,276,283680284,-76,48,4361
201,0.080790,277,283680686,-74,66,4391
202,0.081178,278,283681074,-74,66,4391
203,0.081592,279,283681488,-74,66,4391
204,0.081985,280,283681881,-110,61,4386
205,0.082400,281,283682296,-110,61,4386
206,0.082796,282,283682692,-131,37,4327
207,0.083200,283,283683096,-131,37,4327
208,0.083590,284,283683486,-131,37,4327
209,0.083998,285,283683894,-112,41,4335
210,0.084404,286,283684300,-112,41,4335
211,0.084807,287,283684703,-93,61,4399
212,0.085205,288,283685101,-93,61,4399
213,0.085613,289,283685509,-93,61,4399
214,0.086007,290,283685903,-79,71,4377
215,0.086420,291,283686316,-79,71,4377
216,0.086828,292,283686724,-81,55,4357
217,0.087224,293,283687120,-81,55,4357
218,0.087627,294,283687523,-81,55,4357
219,0.088038,295,283687934,-79,60,4387
220,0.088438,296,283688334,-79,60,4387
221,0.088852,297,283688748,-74,67,4406
222,0.089241,298,283689137,-74,67,4406
223,0.089653,299,283689549,-74,67,4406
224,0.090060,300,283689956,-83,70,4412
225,0.090470,301,283690366,-83,70,4412
226,0.090865,302,283690761,-79,69,4391
227,0.091272,303,283691168,-79,69,4391
228,0.091682,304,283691578,-79,69,4391
229,0.092095,305,283691991,-95,49,4376
230,0.092491,306,283692387,-95,49,4376
231,0.092891,307,283692787,-118,44,4386
232,0.093301,308,283693197,-118,44,4386
233,0.093710,309,283693606,-118,44,4386
234,0.094101,310,283693997,-97,52,4389
235,0.094504,311,283694400,-97,52,4389
236,0.094900,312,283694796,-97,64,4369
237,0.095308,313,283695204,-97,64,4369
238,0.095717,314,283695613,-97,64,4369
239,0.096129,315,283696025,-117,74,4359
240,0.096518,316,283696414,-117,74,4359
241,0.096932,317,283696828,-131,46,4352
242,0.097336,318,283697232,-131,46,4352
243,0.097737,319,283697633,-131,46,4352
244,0.098143,320,283698039,-121,27,4345
245,0.098546,321,283698442,-121,27,4345
246,0.098941,322,283698837,-126,57,4348
247,0.099349,323,283699245,-126,57,4348
248,0.099760,324,283699656,-126,57,4348
249,0.100158,325,283700054,-120,69,4357
250,0.100565,326,283700461,-120,69,4357
251,0.100974,327,283700870,-91,40,4368
252,0.101376,328,283701272,-91,40,4368
253,0.101784,329,283701680,-102,26,4372
254,0.102174,330,283702070,-102,26,4372
255,0.102583,331,283702479,-102,26,4372
256,0.102985,332,283702881,-93,51,4375
257,0.103389,333,283703285,-93,51,4375
258,0.103758,334,283703654,-93,51,4375
259,0.104132,335,283704028,-75,68,4365
260,0.104519,336,283704415,-75,68,4365
261,0.104898,337,283704794,-71,68,4355
262,0.105287,338,283705183,-71,68,4355
263,0.105666,339,283705562,-71,68,4355
264,0.106038,340,283705934,-53,51,4344
265,0.106418,341,283706314,-53,51,4344
266,0.106787,342,283706683,-53,66,4325
267,0.107164,343,283707060,-53,66,4325
268,0.107533,344,283707429,-53,66,4325
269,0.107909,345,283707805,-78,87,4331
270,0.108291,346,283708187,-78,87,4331
271,0.108661,347,283708557,-78,87,4331
272,0.109036,348,283708932,-106,72,4365
273,0.109416,349,283709312,-106,72,4365
274,0.109805,350,283709701,-117,71,4387
275,0.110174,351,283710070,-117,71,4387
276,0.110560,352,283710456,-117,71,4387
277,0.110935,353,283710831,-138,70,4386
278,0.111317,354,283711213,-138,70,4386
279,0.111692,355,283711588,-138,70,4386
280,0.112067,356,283711963,-140,72,4376
281,0.112459,357,283712355,-140,72,4376
282,0.112828,358,283712724,-87,78,4384
283,0.113206,359,283713102,-87,78,4384
284,0.113583,360,283713479,-87,78,4384
285,0.113952,361,283713848,-73,60,4384
286,0.114327,362,283714223,-73,60,4384
287,0.114711,363,283714607,-73,60,4384
288,0.115108,364,283715004,-93,31,4363
289,0.115511,365,283715407,-93,31,4363
290,0.115914,366,283715810,-80,31,4372
291,0.116323,367,283716219,-80,31,4372
292,0.116718,368,283716614,-80,31,4372
293,0.117130,369,283717026,-48,43,4398
294,0.117526,370,283717422,-48,43,4398
295,0.117929,371,283717825,-61,65,4363
296,0.118331,372,283718227,-61,65,4363
297,0.118738,373,283718634,-61,65,4363
298,0.119136,374,283719032,-89,65,4337
299,0.119538,375,283719434,-89,65,4337
300,0.119941,376,283719837,-88,62,4390
301,0.120342,377,283720238,-88,62,4390
302,0.120739,378,283720635,-88,62,4390
303,0.121137,379,283721033,-88,62,4381
304,0.121526,380,283721422,-88,62,4381
305,0.121941,381,283721837,-112,37,4332
306,0.122337,382,283722233,-112,37,4332
307,0.122745,383,283722641,-112,37,4332
308,0.123150,384,283723046,-125,23,4363
309,0.123561,385,283723457,-125,23,4363
310,0.123956,386,283723852,-118,27,4404
311,0.124369,387,283724265,-118,27,4404
312,0.124764,388,283724660,-102,36,4401
313,0.125168,389,283725064,-102,36,4401
314,0.125575,390,283725471,-102,36,4401
315,0.125983,391,283725879,-88,44,4356
316,0.126385,392,283726281,-88,44,4356
317,0.126781,393,283726677,-97,55,4321
318,0.127179,394,283727075,-97,55,4321
319,0.127597,395,283727493,-97,55,4321
320,0.127985,396,283727881,-86,48,4365
321,0.128405,397,283728301,-86,48,4365
322,0.128806,398,283728702,-81,56,4378
323,0.129203,399,283729099,-81,56,4378
324,0.129604,400,283729500,-81,56,4378
325,0.130010,401,283729906,-129,50,4352
326,0.130411,402,283730307,-129,50,4352
327,0.130819,403,283730715,-149,30,4354
328,0.131215,404,283731111,-149,30,4354
329,0.131618,405,283731514,-149,30,4354
330,0.132028,406,283731924,-120,42,4383
331,0.132434,407,283732330,-120,42,4383
332,0.132844,408,283732740,-82,65,4385
333,0.133239,409,283733135,-82,65,4385
334,0.133641,410,283733537,-82,65,4385
335,0.134059,411,283733955,-64,71,4355
336,0.134452,412,283734348,-64,71,4355
337,0.134868,413,283734764,-96,68,4339
338,0.135264,414,283735160,-96,68,4339
339,0.135679,415,283735575,-96,68,4339
340,0.136086,416,283735982,-102,62,4360
341,0.136489,417,283736385,-102,62,4360
342,0.136891,418,283736787,-72,55,4394
343,0.137300,419,283737196,-72,55,4394
344,0.137702,420,283737598,-72,55,4394
345,0.138115,421,283738011,-80,59,4363
346,0.138504,422,283738400,-80,59,4363
347,0.138911,423,283738807,-116,58,4361
348,0.139321,424,283739217,-116,58,4361
349,0.139722,425,283739618,-116,58,4361
350,0.140129,426,283740025,-105,79,4398
351,0.140532,427,283740428,-105,79,4398
352,0.140935,428,283740831,-89,78,4368
353,0.141340,429,283741236,-89,78,4368
354,0.141744,430,283741640,-89,78,4368
355,0.142146,431,283742042,-106,42,4345
356,0.142536,432,283742432,-106,42,4345
357,0.142939,433,283742835,-96,42,4393
358,0.143341,434,283743237,-96,42,4393
359,0.143749,435,283743645,-96,42,4393
360,0.144146,436,283744042,-75,43,4396
361,0.144551,437,283744447,-75,43,4396
362,0.144972,438,283744868,-47,44,4361
363,0.145374,439,283745270,-47,44,4361
364,0.145782,440,283745678,-53,51,4397
365,0.146171,441,283746067,-53,51,4397
366,0.146577,442,283746473,-53,51,4397
367,0.146974,443,283746870,-91,40,4409
368,0.147387,444,283747283,-91,40,4409
369,0.147768,445,283747664,-91,40,4409
370,0.148161,446,283748057,-84,38,4367
371,0.148560,447,283748456,-84,38,4367
372,0.148976,448,283748872,-73,36,4357
373,0.149378,449,283749274,-73,36,4357
374,0.149786,450,283749682,-80,32,4360
375,0.150174,451,283750070,-80,32,4360
376,0.150579,452,283750475,-80,32,4360
377,0.150980,453,283750876,-82,61,4337
378,0.151395,454,283751291,-82,61,4337
379,0.151798,455,283751694,-68,81,4342
380,0.152185,456,283752081,-68,81,4342
381,0.152592,457,283752488,-68,81,4342
382,0.153000,458,283752896,-90,68,4361
383,0.153407,459,283753303,-90,68,4361
384,0.153814,460,283753710,-110,68,4331
385,0.154205,461,283754101,-110,68,4331
386,0.154613,462,283754509,-110,68,4331
387,0.155008,463,283754904,-105,67,4322
388,0.155425,464,283755321,-105,67,4322
389,0.155828,465,283755724,-99,74,4315
390,0.156224,466,283756120,-99,74,4315
391,0.156629,467,283756525,-99,74,4315
392,0.157038,468,283756934,-89,73,4322
393,0.157438,469,283757334,-89,73,4322
394,0.157840,470,283757736,-92,64,4365
395,0.158236,471,283758132,-92,64,4365
396,0.158648,472,283758544,-92,64,4365
397,0.159043,473,283758939,-113,52,4392
398,0.159454,474,283759350,-113,52,4392
399,0.159857,475,283759753,-125,31,4396
400,0.160265,476,283760161,-125,31,4396
401,0.160665,477,283760561,-125,31,4396
402,0.161085,478,283760981,-111,32,4417
403,0.161487,479,283761383,-111,32,4417
404,0.161888,480,283761784,-103,48,4403
405,0.162290,481,283762186,-103,48,4403
406,0.162706,482,283762602,-103,48,4403
407,0.163112,483,283763008,-87,67,4388
408,0.163514,484,283763410,-87,67,4388
409,0.163917,485,283763813,-76,70,4411
410,0.164311,486,283764207,-76,70,4411
411,0.164700,487,283764596,-76,70,4411
412,0.165120,488,283765016,-87,73,4378
413,0.165516,489,283765412,-87,73,4378
414,0.165925,490,283765821,-96,76,4347
415,0.166328,491,283766224,-96,76,4347
416,0.166727,492,283766623,-96,76,4347
417,0.167134,493,283767030,-96,66,4321
418,0.167535,494,283767431,-96,66,4321
419,0.167938,495,283767834,-96,46,4301
420,0.168345,496,283768241,-96,46,4301
421,0.168748,497,283768644,-96,46,4301
422,0.169152,498,283769048,-84,53,4335
423,0.169548,499,283769444,-84,53,4335
424,0.169952,500,283769848,-94,73,4372
425,0.170354,501,283770250,-94,73,4372
426,0.170769,502,283770665,-99,65,4386
427,0.171161,503,283771057,-99,65,4386
428,0.171574,504,283771470,-99,65,4386
429,0.171969,505,283771865,-109,51,4414
430,0.172385,506,283772281,-109,51,4414
431,0.172780,507,283772676,-100,59,4419
432,0.173170,508,283773066,-100,59,4419
433,0.173564,509,283773460,-100,59,4419
434,0.173966,510,283773862,-64,73,4421
435,0.174369,511,283774265,-64,73,4421
436,0.174769,512,283774665,-57,71,4393
437,0.175167,513,283775063,-57,71,4393
438,0.175579,514,283775475,-57,71,4393
439,0.175973,515,283775869,-85,64,4369
440,0.176387,516,283776283,-85,64,4369
441,0.176789,517,283776685,-129,45,4400
442,0.177181,518,283777077,-129,45,4400
443,0.177590,519,283777486,-129,45,4400
444,0.177991,520,283777887,-117,29,4390
445,0.178406,521,283778302,-117,29,4390
446,0.178814,522,283778710,-103,24,4393
447,0.179203,523,283779099,-103,24,4393
448,0.179609,524,283779505,-103,24,4393
449,0.180011,525,283779907,-100,64,4401
450,0.180421,526,283780317,-100,64,4401
451,0.180831,527,283780727,-94,91,4393
452,0.181226,528,283781122,-94,91,4393
453,0.181623,529,283781519,-94,91,4393
454,0.182038,530,283781934,-91,68,4393
455,0.182438,531,283782334,-91,68,4393
456,0.182853,532,283782749,-82,69,4382
457,0.183243,533,283783139,-82,69,4382
458,0.183647,534,283783543,-82,69,4382
459,0.184059,535,283783955,-84,64,4369
460,0.184460,536,283784356,-84,64,4369
461,0.184862,537,283784758,-70,43,4350
462,0.185257,538,283785153,-70,43,4350
463,0.185659,539,283785555,-70,43,4350
464,0.186072,540,283785968,-75,41,4378
465,0.186482,541,283786378,-75,41,4378
466,0.186890,542,283786786,-93,39,4382
467,0.187292,543,283787188,-93,39,4382
468,0.187700,544,283787596,-93,39,4382
469,0.188105,545,283788001,-90,18,4357
470,0.188508,546,283788404,-90,18,4357
471,0.188895,547,283788791,-94,33,4385
472,0.189299,548,283789195,-94,33,4385
473,0.189703,549,283789599,-94,33,4385
474,0.190113,550,283790009,-101,52,4379
475,0.190509,551,283790405,-101,52,4379
476,0.190919,552,283790815,-96,39,4354
477,0.191322,553,283791218,-96,39,4354
478,0.191729,554,283791625,-96,39,4354
479,0.192129,555,283792025,-104,56,4371
480,0.192530,556,283792426,-104,56,4371
481,0.192933,557,283792829,-84,75,4406
482,0.193340,558,283793236,-84,75,4406
483,0.193743,559,283793639,-84,75,4406
484,0.194147,560,283794043,-79,64,4389
485,0.194543,561,283794439,-79,64,4389
486,0.194951,562,283794847,-120,58,4373
487,0.195352,563,283795248,-120,58,4373
488,0.195753,564,283795649,-120,58,4373
489,0.196153,565,283796049,-106,60,4389
490,0.196568,566,283796464,-106,60,4389
491,0.196971,567,283796867,-92,61,4373
492,0.197378,568,283797274,-92,61,4373
493,0.197774,569,283797670,-120,61,4355
494,0.198176,570,283798072,-120,61,4355
495,0.198582,571,283798478,-120,61,4355
496,0.198991,572,283798887,-134,79,4375
497,0.199392,573,283799288,-134,79,4375
498,0.199800,574,283799696,-142,97,4402
499,0.200188,575,283800084,-142,97,4402
500,0.200606,576,283800502,-142,97,4402
501,0.201008,577,283800904,-127,67,4388
502,0.201421,578,283801317,-127,67,4388
503,0.201824,579,283801720,-77,52,4369
504,0.202219,580,283802115,-77,52,4369
505,0.202615,581,283802511,-77,52,4369
506,0.203030,582,283802926,-66,58,4372
507,0.203438,583,283803334,-66,58,4372
508,0.203838,584,283803734,-88,53,4384
509,0.204235,585,283804131,-88,53,4384
510,0.204644,586,283804540,-88,53,4384
511,0.205040,587,283804936,-96,53,4367
512,0.205452,588,283805348,-96,53,4367
513,0.205854,589,283805750,-84,65,4350
514,0.206264,590,283806160,-84,65,4350
515,0.206658,591,283806554,-84,65,4350
516,0.207076,592,283806972,-72,66,4360
517,0.207479,593,283807375,-72,66,4360
518,0.207880,594,283807776,-74,69,4375
519,0.208282,595,283808178,-74,69,4375
520,0.208689,596,283808585,-74,69,4375
521,0.209094,597,283808990,-92,70,4371
522,0.209495,598,283809391,-92,70,4371
523,0.209899,599,283809795,-94,46,4358
524,0.210307,600,283810203,-94,46,4358
525,0.210702,601,283810598,-94,46,4358
526,0.211121,602,283811017,-83,57,4390
527,0.211511,603,283811407,-83,57,4390
528,0.211918,604,283811814,-81,60,4396
529,0.212320,605,283812216,-81,60,4396
530,0.212728,606,283812624,-81,60,4396
531,0.213133,607,283813029,-87,58,4369
532,0.213528,608,283813424,-87,58,4369
533,0.213931,609,283813827,-87,40,4355
534,0.214339,610,283814235,-87,40,4355
535,0.214735,611,283814631,-87,40,4355
536,0.215148,612,283815044,-79,11,4367
537,0.215528,613,283815424,-79,11,4367
538,0.215935,614,283815831,-79,25,4385
539,0.216337,615,283816233,-79,25,4385
540,0.216744,616,283816640,-79,25,4385
541,0.217141,617,283817037,-109,64,4352
542,0.217544,618,283817440,-109,64,4352
543,0.217948,619,283817844,-101,91,4330
544,0.218356,620,283818252,-101,91,4330
545,0.218759,621,283818655,-66,56,4343
546,0.219163,622,283819059,-66,56,4343
547,0.219564,623,283819460,-66,56,4343
548,0.219978,624,283819874,-95,30,4349
549,0.220374,625,283820270,-95,30,4349
550,0.220781,626,283820677,-116,46,4371
551,0.221179,627,283821075,-116,46,4371
552,0.221585,628,283821481,-116,46,4371
553,0.221981,629,283821877,-96,48,4393
554,0.222383,630,283822279,-96,48,4393
555,0.222780,631,283822676,-95,44,4371
556,0.223175,632,283823071,-95,44,4371
557,0.223575,633,283823471,-95,44,4371
558,0.223983,634,283823879,-108,54,4341
559,0.224387,635,283824283,-108,54,4341
560,0.224789,636,283824685,-103,62,4361
561,0.225179,637,283825075,-103,62,4361
562,0.225586,638,283825482,-103,62,4361
563,0.225983,639,283825879,-94,42,4373
564,0.226391,640,283826287,-94,42,4373
565,0.226792,641,283826688,-89,48,4376
566,0.227187,642,283827083,-89,48,4376
567,0.227586,643,283827482,-89,48,4376
568,0.228000,644,283827896,-96,69,4384
569,0.228405,645,283828301,-96,69,4384
570,0.228814,646,283828710,-86,66,4350
571,0.229205,647,283829101,-86,66,4350
572,0.229614,648,283829510,-86,66,4350
573,0.230008,649,283829904,-89,62,4332
574,0.230427,650,283830323,-89,62,4332
575,0.230821,651,283830717,-94,45,4345
576,0.231224,652,283831120,-94,45,4345
577,0.231622,653,283831518,-94,45,4345
578,0.232036,654,283831932,-82,52,4355
579,0.232443,655,283832339,-82,52,4355
580,0.232850,656,283832746,-98,73,4345
581,0.233240,657,283833136,-98,73,4345
582,0.233649,658,283833545,-98,73,4345
583,0.234061,659,283833957,-101,86,4350
584,0.234470,660,283834366,-101,86,4350
585,0.234867,661,283834763,-109,77,4355
586,0.235268,662,283835164,-109,77,4355
587,0.235665,663,283835561,-109,77,4355
588,0.236080,664,283835976,-121,44,4346
589,0.236470,665,283836366,-121,44,4346
590,0.236878,666,283836774,-109,28,4374
591,0.237280,667,283837176,-109,28,4374
592,0.237688,668,283837584,-109,28,4374
593,0.238094,669,283837990,-110,15,4395
594,0.238496,670,283838392,-110,15,4395
595,0.238898,671,283838794,-113,37,4418
596,0.239307,672,283839203,-113,37,4418
597,0.239711,673,283839607,-113,37,4418
598,0.240123,674,283840019,-111,58,4386
599,0.240512,675,283840408,-111,58,4386
600,0.240928,676,283840824,-106,43,4368
601,0.241329,677,283841225,-106,43,4368
602,0.241731,678,283841627,-106,43,4368
603,0.242132,679,283842028,-102,47,4402
604,0.242528,680,283842424,-102,47,4402
605,0.242939,681,283842835,-114,40,4416
606,0.243339,682,283843235,-114,40,4416
607,0.243742,683,283843638,-114,40,4416
608,0.244153,684,283844049,-121,60,4419
609,0.244543,685,283844439,-121,60,4419
610,0.244951,686,283844847,-116,66,4365
611,0.245353,687,283845249,-116,66,4365
612,0.245762,688,283845658,-86,58,4358
613,0.246153,689,283846049,-86,58,4358
614,0.246561,690,283846457,-86,58,4358
615,0.246956,691,283846852,-78,70,4378
616,0.247365,692,283847261,-78,70,4378
617,0.247758,693,283847654,-78,70,4378
618,0.248149,694,283848045,-84,57,4358
619,0.248547,695,283848443,-84,57,4358
620,0.248957,696,283848853,-82,52,4350
621,0.249351,697,283849247,-82,52,4350
622,0.249759,698,283849655,-81,58,4348
623,0.250150,699,283850046,-81,58,4348
624,0.250555,700,283850451,-81,58,4348
625,0.250970,701,283850866,-63,58,4348
626,0.251365,702,283851261,-63,58,4348
627,0.251773,703,283851669,-58,55,4370
628,0.252170,704,283852066,-58,55,4370
629,0.252584,705,283852480,-58,55,4370
630,0.252979,706,283852875,-71,58,4397
631,0.253386,707,283853282,-71,58,4397
632,0.253787,708,283853683,-76,50,4393
633,0.254186,709,283854082,-76,50,4393
634,0.254590,710,283854486,-76,50,4393
635,0.254992,711,283854888,-81,34,4379
636,0.255399,712,283855295,-81,34,4379
637,0.255807,713,283855703,-82,53,4386
638,0.256204,714,283856100,-82,53,4386
639,0.256601,715,283856497,-82,53,4386
640,0.257003,716,283856899,-78,60,4403
641,0.257414,717,283857310,-78,60,4403
642,0.257816,718,283857712,-70,55,4379
643,0.258219,719,283858115,-70,55,4379
644,0.258623,720,283858519,-70,55,4379
645,0.259024,721,283858920,-69,70,4369
646,0.259439,722,283859335,-69,70,4369
647,0.259839,723,283859735,-88,60,4375
648,0.260235,724,283860131,-88,60,4375
649,0.260644,725,283860540,-88,60,4375
650,0.261046,726,283860942,-93,40,4370
651,0.261463,727,283861359,-93,40,4370
652,0.261859,728,283861755,-99,36,4346
653,0.262267,729,283862163,-99,36,4346
654,0.262665,730,283862561,-99,36,4346
655,0.263085,731,283862981,-115,57,4348
656,0.263481,732,283863377,-115,57,4348
657,0.263888,733,283863784,-124,59,4395
658,0.264290,734,283864186,-124,59,4395
659,0.264699,735,283864595,-124,59,4395
660,0.265106,736,283865002,-113,31,4404
661,0.265514,737,283865410,-113,31,4404
662,0.265901,738,283865797,-106,49,4379
663,0.266291,739,283866187,-106,49,4379
664,0.266694,740,283866590,-106,49,4379
665,0.267110,741,283867006,-96,54,4349
666,0.267499,742,283867395,-96,54,4349
667,0.267907,743,283867803,-102,33,4363
668,0.268310,744,283868206,-102,33,4363
669,0.268711,745,283868607,-102,33,4363
670,0.269118,746,283869014,-120,42,4371
671,0.269514,747,283869410,-120,42,4371
672,0.269918,748,283869814,-96,49,4353
673,0.270319,749,283870215,-96,49,4353
674,0.270721,750,283870617,-96,49,4353
675,0.271133,751,283871029,-65,55,4355
676,0.271522,752,283871418,-65,55,4355
677,0.271931,753,283871827,-81,53,4351
678,0.272326,754,283872222,-81,53,4351
679,0.272733,755,283872629,-81,53,4351
680,0.273139,756,283873035,-99,75,4351
681,0.273534,757,283873430,-99,75,4351
682,0.273939,758,283873835,-89,93,4365
683,0.274340,759,283874236,-89,93,4365
684,0.274743,760,283874639,-89,93,4365
685,0.275152,761,283875048,-92,76,4361
686,0.275542,762,283875438,-92,76,4361
687,0.275951,763,283875847,-96,46,4366
688,0.276354,764,283876250,-96,46,4366
689,0.276760,765,283876656,-101,48,4357
690,0.277151,766,283877047,-101,48,4357
691,0.277561,767,283877457,-101,48,4357
692,0.277957,768,283877853,-86,75,4337
693,0.278364,769,283878260,-86,75,4337
694,0.278766,770,283878662,-68,63,4332
695,0.279169,771,283879065,-68,63,4332
696,0.279569,772,283879465,-68,63,4332
697,0.279976,773,283879872,-98,43,4365
698,0.280377,774,283880273,-98,43,4365
699,0.280785,775,283880681,-99,49,4379
700,0.281174,776,283881070,-99,49,4379
701,0.281569,777,283881465,-99,49,4379
702,0.281958,778,283881854,-100,51,4358
703,0.282360,779,283882256,-100,51,4358
704,0.282763,780,283882659,-109,40,4368
705,0.283167,781,283883063,-109,40,4368
706,0.283568,782,283883464,-109,40,4368
707,0.283975,783,283883871,-104,34,4391
708,0.284378,784,283884274,-104,34,4391
709,0.284781,785,283884677,-104,59,4380
710,0.285179,786,283885075,-104,59,4380
711,0.285585,787,283885481,-104,59,4380
712,0.285987,788,283885883,-93,80,4361
713,0.286400,789,283886296,-93,80,4361
714,0.286802,790,283886698,-86,66,4331
715,0.287205,791,283887101,-86,66,4331
716,0.287595,792,283887491,-86,66,4331
717,0.288002,793,283887898,-95,47,4317
718,0.288407,794,283888303,-95,47,4317
719,0.288813,795,283888709,-102,50,4366
720,0.289211,796,283889107,-102,50,4366
721,0.289614,797,283889510,-102,50,4366
722,0.290024,798,283889920,-116,58,4396
723,0.290430,799,283890326,-116,58,4396
724,0.290833,800,283890729,-122,60,4397
725,0.291229,801,283891125,-122,60,4397
726,0.291628,802,283891524,-122,60,4397
727,0.292035,803,283891931,-93,57,4389
728,0.292439,804,283892335,-93,57,4389
729,0.292843,805,283892739,-72,45,4401
730,0.293239,806,283893135,-72,45,4401
731,0.293642,807,283893538,-72,45,4401
732,0.294044,808,283893940,-80,50,4396
733,0.294455,809,283894351,-80,50,4396
734,0.294857,810,283894753,-92,52,4387
735,0.295266,811,283895162,-92,52,4387
736,0.295665,812,283895561,-92,52,4387
737,0.296077,813,283895973,-92,41,4387
738,0.296473,814,283896369,-92,41,4387
739,0.296881,815,283896777,-91,48,4381
740,0.297283,816,283897179,-91,48,4381
741,0.297690,817,283897586,-91,48,4381
742,0.298089,818,283897985,-80,68,4391
743,0.298499,819,283898395,-80,68,4391
744,0.298901,820,283898797,-68,72,4386
745,0.299302,821,283899198,-68,72,4386
746,0.299703,822,283899599,-68,72,4386
747,0.300122,823,283900018,-54,48,4372
748,0.300512,824,283900408,-54,48,4372
749,0.300921,825,283900817,-43,28,4368
750,0.301322,826,283901218,-43,28,4368
751,0.301721,827,283901617,-43,28,4368
752,0.302122,828,283902018,-46,45,4373
753,0.302517,829,283902413,-46,45,4373
754,0.302919,830,283902815,-62,47,4348
755,0.303326,831,283903222,-62,47,4348
756,0.303728,832,283903624,-62,47,4348
757,0.304135,833,283904031,-63,46,4326
758,0.304524,834,283904420,-63,46,4326
759,0.304927,835,283904823,-78,33,4352
760,0.305329,836,283905225,-78,33,4352
761,0.305738,837,283905634,-78,33,4352
762,0.306143,838,283906039,-110,36,4383
763,0.306537,839,283906433,-110,36,4383
764,0.306940,840,283906836,-95,48,4371
765,0.307343,841,283907239,-95,48,4371
766,0.307745,842,283907641,-71,39,4353
767,0.308154,843,283908050,-71,39,4353
768,0.308543,844,283908439,-71,39,4353
769,0.308959,845,283908855,-44,44,4369
770,0.309354,846,283909250,-44,44,4369
771,0.309762,847,283909658,-53,35,4367
772,0.310160,848,283910056,-53,35,4367
773,0.310566,849,283910462,-53,35,4367
774,0.310969,850,283910865,-92,46,4367
775,0.311376,851,283911272,-92,46,4367
776,0.311779,852,283911675,-76,54,4387
777,0.312181,853,283912077,-76,54,4387
778,0.312583,854,283912479,-76,54,4387
779,0.312990,855,283912886,-79,48,4386
780,0.313393,856,283913289,-79,48,4386
781,0.313795,857,283913691,-94,65,4371
782,0.314189,858,283914085,-94,65,4371
783,0.314594,859,283914490,-94,65,4371
784,0.314995,860,283914891,-64,62,4348
785,0.315405,861,283915301,-64,62,4348
786,0.315807,862,283915703,-63,58,4324
787,0.316211,863,283916107,-63,58,4324
788,0.316604,864,283916500,-63,58,4324
789,0.317013,865,283916909,-95,74,4345
790,0.317419,866,283917315,-95,74,4345
791,0.317828,867,283917724,-103,86,4354
792,0.318218,868,283918114,-103,86,4354
793,0.318622,869,283918518,-103,86,4354
794,0.319024,870,283918920,-110,78,4345
795,0.319434,871,283919330,-110,78,4345
796,0.319837,872,283919733,-117,69,4367
797,0.320238,873,283920134,-117,69,4367
798,0.320635,874,283920531,-117,69,4367
799,0.321043,875,283920939,-123,67,4382
800,0.321450,876,283921346,-123,67,4382
801,0.321858,877,283921754,-101,53,4383
802,0.322261,878,283922157,-101,53,4383
803,0.322662,879,283922558,-101,53,4383
804,0.323069,880,283922965,-86,33,4359
805,0.323477,881,283923373,-86,33,4359
806,0.323879,882,283923775,-93,28,4358
807,0.324287,883,283924183,-93,28,4358
808,0.324689,884,283924585,-93,28,4358
809,0.325102,885,283924998,-99,47,4365
810,0.325492,886,283925388,-99,47,4365
811,0.325899,887,283925795,-106,60,4359
812,0.326301,888,283926197,-106,60,4359
813,0.326709,889,283926605,-106,60,4359
814,0.327115,890,283927011,-90,48,4377
815,0.327511,891,283927407,-90,48,4377
816,0.327913,892,283927809,-99,35,4364
817,0.328321,893,283928217,-99,35,4364
818,0.328723,894,283928619,-99,35,4364
819,0.329127,895,283929023,-119,24,4306
820,0.329524,896,283929420,-119,24,4306
821,0.329933,897,283929829,-108,36,4331
822,0.330336,898,283930232,-108,36,4331
823,0.330744,899,283930640,-108,36,4331
824,0.331142,900,283931038,-88,64,4378
825,0.331537,901,283931433,-88,64,4378
826,0.331947,902,283931843,-109,84,4375
827,0.332355,903,283932251,-109,84,4375
828,0.332756,904,283932652,-136,63,4390
829,0.333153,905,283933049,-136,63,4390
830,0.333560,906,283933456,-136,63,4390
831,0.333967,907,283933863,-121,48,4371
832,0.334362,908,283934258,-121,48,4371
833,0.334771,909,283934667,-90,67,4343
834,0.335163,910,283935059,-90,67,4343
835,0.335575,911,283935471,-90,67,4343
836,0.335978,912,283935874,-84,58,4342
837,0.336385,913,283936281,-84,58,4342
838,0.336779,914,283936675,-97,54,4361
839,0.337181,915,283937077,-97,54,4361
840,0.337590,916,283937486,-97,54,4361
841,0.337991,917,283937887,-99,55,4362
842,0.338405,918,283938301,-99,55,4362
843,0.338806,919,283938702,-82,57,4357
844,0.339194,920,283939090,-82,57,4357
845,0.339612,921,283939508,-82,57,4357
846,0.340007,922,283939903,-74,68,4399
847,0.340418,923,283940314,-74,68,4399
848,0.340821,924,283940717,-97,67,4389
849,0.341223,925,283941119,-97,67,4389
850,0.341622,926,283941518,-97,67,4389
851,0.342023,927,283941919,-118,76,4353
852,0.342429,928,283942325,-118,76,4353
853,0.342831,929,283942727,-97,58,4366
854,0.343227,930,283943123,-97,58,4366
855,0.343632,931,283943528,-97,58,4366
856,0.344035,932,283943931,-91,47,4354
857,0.344447,933,283944343,-91,47,4354
858,0.344837,934,283944733,-94,91,4329
859,0.345234,935,283945130,-94,91,4329
860,0.345630,936,283945526,-94,91,4329
861,0.346037,937,283945933,-66,85,4378
862,0.346437,938,283946333,-66,85,4378
863,0.346846,939,283946742,-87,68,4406
864,0.347242,940,283947138,-87,68,4406
865,0.347645,941,283947541,-87,68,4406
866,0.348040,942,283947936,-107,56,4350
867,0.348445,943,283948341,-107,56,4350
868,0.348847,944,283948743,-104,41,4346
869,0.349246,945,283949142,-104,41,4346
870,0.349653,946,283949549,-104,41,4346
871,0.350067,947,283949963,-104,47,4383
872,0.350462,948,283950358,-104,47,4383
873,0.350871,949,283950767,-93,65,4369
874,0.351273,950,283951169,-93,65,4369
875,0.351682,951,283951578,-93,65,4369
876,0.352087,952,283951983,-84,87,4374
877,0.352490,953,283952386,-84,87,4374
878,0.352891,954,283952787,-103,75,4399
879,0.353300,955,283953196,-103,75,4399
880,0.353702,956,283953598,-103,75,4399
881,0.354122,957,283954018,-100,69,4400
882,0.354512,958,283954408,-100,69,4400
883,0.354920,959,283954816,-87,76,4429
884,0.355321,960,283955217,-87,76,4429
885,0.355724,961,283955620,-87,76,4429
886,0.356130,962,283956026,-94,69,4413
887,0.356526,963,283956422,-94,69,4413
888,0.356929,964,283956825,-74,67,4348
889,0.357336,965,283957232,-74,67,4348
890,0.357737,966,283957633,-74,67,4348
891,0.358147,967,283958043,-72,60,4335
892,0.358536,968,283958432,-72,60,4335
893,0.358944,969,283958840,-105,68,4378
894,0.359346,970,283959242,-105,68,4378
895,0.359749,971,283959645,-129,80,4381
896,0.360147,972,283960043,-129,80,4381
897,0.360553,973,283960449,-129,80,4381
898,0.360957,974,283960853,-122,65,4344
899,0.361360,975,283961256,-122,65,4344
900,0.361764,976,283961660,-106,56,4377
901,0.362160,977,283962056,-106,56,4377
902,0.362567,978,283962463,-106,56,4377
903,0.362974,979,283962870,-71,62,4406
904,0.363369,980,283963265,-71,62,4406
905,0.363783,981,283963679,-61,75,4378
906,0.364173,982,283964069,-61,75,4378
907,0.364556,983,283964452,-61,75,4378
908,0.364956,984,283964852,-81,75,4370
909,0.365365,985,283965261,-81,75,4370
910,0.365766,986,283965662,-101,41,4391
911,0.366163,987,283966059,-101,41,4391
912,0.366564,988,283966460,-101,41,4391
913,0.366978,989,283966874,-119,30,4395
914,0.367380,990,283967276,-119,30,4395
915,0.367780,991,283967676,-106,48,4396
916,0.368174,992,283968070,-106,48,4396
917,0.368581,993,283968477,-106,48,4396
918,0.368982,994,283968878,-103,48,4377
919,0.369384,995,283969280,-103,48,4377
920,0.369779,996,283969675,-122,43,4359
921,0.370181,997,283970077,-122,43,4359
922,0.370575,998,283970471,-122,43,4359
923,0.370951,999,283970847,-106,40,4362
924,0.371335,1000,283971231,-106,40,4362
925,0.371743,1001,283971639,-86,57,4360
926,0.372150,1002,283972046,-86,57,4360
927,0.372545,1003,283972441,-86,57,4360
928,0.372956,1004,283972852,-103,73,4328
929,0.373363,1005,283973259,-103,73,4328
930,0.373766,1006,283973662,-108,46,4306
931,0.374164,1007,283974060,-108,46,4306
932,0.374574,1008,283974470,-108,46,4306
933,0.374981,1009,283974877,-102,22,4329
934,0.375384,1010,283975280,-102,22,4329
935,0.375777,1011,283975673,-96,19,4365
936,0.376171,1012,283976067,-96,19,4365
937,0.376577,1013,283976473,-96,19,4365
938,0.376981,1014,283976877,-117,36,4407
939,0.377390,1015,283977286,-117,36,4407
940,0.377780,1016,283977676,-130,50,4413
941,0.378181,1017,283978077,-130,50,4413
942,0.378583,1018,283978479,-130,50,4413
943,0.378991,1019,283978887,-108,60,4381
944,0.379387,1020,283979283,-108,60,4381
945,0.379796,1021,283979692,-82,71,4343
946,0.380189,1022,283980085,-82,71,4343
947,0.380598,1023,283980494,-82,71,4343
948,0.380995,1024,283980891,-66,74,4344
949,0.381409,1025,283981305,-66,74,4344
950,0.381800,1026,283981696,-91,74,4377
951,0.382195,1027,283982091,-91,74,4377
952,0.382592,1028,283982488,-91,74,4377
953,0.383001,1029,283982897,-105,78,4363
954,0.383406,1030,283983302,-105,78,4363
955,0.383810,1031,283983706,-93,86,4337
956,0.384192,1032,283984088,-93,86,4337
957,0.384602,1033,283984498,-93,86,4337
958,0.384999,1034,283984895,-81,72,4385
959,0.385408,1035,283985304,-81,72,4385
960,0.385809,1036,283985705,-80,52,4402
961,0.386212,1037,283986108,-80,52,4402
962,0.386604,1038,283986500,-80,52,4402
963,0.387012,1039,283986908,-85,40,4370
964,0.387419,1040,283987315,-85,40,4370
965,0.387827,1041,283987723,-77,55,4384
966,0.388225,1042,283988121,-77,55,4384
967,0.388631,1043,283988527,-77,55,4384
968,0.389028,1044,283988924,-63,77,4401
969,0.389435,1045,283989331,-63,77,4401
970,0.389837,1046,283989733,-77,76,4387
971,0.390239,1047,283990135,-77,76,4387
972,0.390637,1048,283990533,-77,76,4387
973,0.391045,1049,283990941,-121,78,4381
974,0.391452,1050,283991348,-121,78,4381
975,0.391860,1051,283991756,-102,74,4366
976,0.392251,1052,283992147,-102,74,4366
977,0.392655,1053,283992551,-102,74,4366
978,0.393056,1054,283992952,-82,63,4384
979,0.393457,1055,283993353,-82,63,4384
980,0.393860,1056,283993756,-106,39,4394
981,0.394256,1057,283994152,-106,39,4394
982,0.394654,1058,283994550,-106,39,4394
983,0.395063,1059,283994959,-94,27,4366
984,0.395460,1060,283995356,-94,27,4366
985,0.395862,1061,283995758,-72,45,4390
986,0.396251,1062,283996147,-72,45,4390
987,0.396656,1063,283996552,-72,45,4390
988,0.397056,1064,283996952,-77,66,4410
989,0.397465,1065,283997361,-77,66,4410
990,0.397853,1066,283997749,-100,72,4394
991,0.398244,1067,283998140,-100,72,4394
992,0.398642,1068,283998538,-100,72,4394
993,0.399053,1069,283998949,-102,63,4379
994,0.399455,1070,283999351,-102,63,4379
995,0.399871,1071,283999767,-87,59,4391
996,0.400267,1072,284000163,-87,59,4391
997,0.400675,1073,284000571,-87,59,4391
998,0.401082,1074,284000978,-82,76,4402
999,0.401486,1075,284001382,-82,76,4402
1000,0.401881,1076,284001777,-107,85,4390
1001,0.402289,1077,284002185,-107,85,4390
1002,0.402693,1078,284002589,-107,85,4390
1003,0.403101,1079,284002997,-97,65,4375
1004,0.403491,1080,284003387,-97,65,4375
1005,0.403900,1081,284003796,-54,76,4376
1006,0.404296,1082,284004192,-54,76,4376
1007,0.404703,1083,284004599,-54,76,4376
1008,0.405109,1084,284005005,-63,74,4378
1009,0.405511,1085,284005407,-63,74,4378
1010,0.405907,1086,284005803,-92,58,4360
1011,0.406321,1087,284006217,-92,58,4360
1012,0.406716,1088,284006612,-92,58,4360
1013,0.407127,1089,284007023,-105,55,4353
1014,0.407516,1090,284007412,-105,55,4353
1015,0.407926,1091,284007822,-85,67,4390
1016,0.408328,1092,284008224,-85,67,4390
1017,0.408737,1093,284008633,-85,67,4390
1018,0.409143,1094,284009039,-66,67,4407
1019,0.409539,1095,284009435,-66,67,4407
1020,0.409941,1096,284009837,-85,45,4371
1021,0.410349,1097,284010245,-85,45,4371
1022,0.410751,1098,284010647,-101,39,4356
1023,0.411156,1099,284011052,-101,39,4356
1024,0.411554,1100,284011450,-101,39,4356
1025,0.411963,1101,284011859,-101,50,4342
1026,0.412365,1102,284012261,-101,50,4342
1027,0.412773,1103,284012669,-88,68,4359
1028,0.413171,1104,284013067,-88,68,4359
1029,0.413577,1105,284013473,-88,68,4359
1030,0.413979,1106,284013875,-83,68,4384
1031,0.414388,1107,284014284,-83,68,4384
1032,0.414790,1108,284014686,-87,61,4380
1033,0.415190,1109,284015086,-87,61,4380
1034,0.415560,1110,284015456,-87,61,4380
1035,0.415943,1111,284015839,-83,66,4420
1036,0.416346,1112,284016242,-83,66,4420
1037,0.416742,1113,284016638,-90,60,4405
1038,0.417145,1114,284017041,-90,60,4405
1039,0.417534,1115,284017430,-90,60,4405
1040,0.417942,1116,284017838,-107,53,4369
1041,0.418344,1117,284018240,-107,53,4369
1042,0.418760,1118,284018656,-118,66,4384
1043,0.419151,1119,284019047,-118,66,4384
1044,0.419557,1120,284019453,-118,66,4384
1045,0.419960,1121,284019856,-123,47,4392
1046,0.420363,1122,284020259,-123,47,4392
1047,0.420766,1123,284020662,-100,46,4384
1048,0.421169,1124,284021065,-100,46,4384
1049,0.421569,1125,284021465,-100,46,4384
1050,0.421971,1126,284021867,-78,54,4374
1051,0.422365,1127,284022261,-78,54,4374
1052,0.422769,1128,284022665,-49,60,4358
1053,0.423161,1129,284023057,-49,60,4358
1054,0.423573,1130,284023469,-49,60,4358
1055,0.423969,1131,284023865,-63,66,4330
1056,0.424383,1132,284024279,-63,66,4330
1057,0.424778,1133,284024674,-99,44,4336
1058,0.425181,1134,284025077,-99,44,4336
1059,0.425588,1135,284025484,-99,44,4336
1060,0.425989,1136,284025885,-84,44,4347
1061,0.426396,1137,284026292,-84,44,4347
1062,0.426810,1138,284026706,-72,49,4343
1063,0.427191,1139,284027087,-72,49,4343
1064,0.427602,1140,284027498,-72,49,4343
1065,0.428005,1141,284027901,-82,46,4365
1066,0.428417,1142,284028313,-82,46,4365
1067,0.428813,1143,284028709,-88,54,4375
1068,0.429216,1144,284029112,-88,54,4375
1069,0.429613,1145,284029509,-88,54,4375
1070,0.430022,1146,284029918,-77,41,4358
1071,0.430437,1147,284030333,-77,41,4358
1072,0.430843,1148,284030739,-62,35,4355
1073,0.431233,1149,284031129,-62,35,4355
1074,0.431638,1150,284031534,-62,35,4355
1075,0.432035,1151,284031931,-67,63,4343
1076,0.432454,1152,284032350,-67,63,4343
1077,0.432857,1153,284032753,-97,63,4354
1078,0.433260,1154,284033156,-97,63,4354
1079,0.433656,1155,284033552,-97,63,4354
1080,0.434075,1156,284033971,-102,47,4399
1081,0.434470,1157,284034366,-102,47,4399
1082,0.434885,1158,284034781,-93,57,4400
1083,0.435281,1159,284035177,-93,57,4400
1084,0.435684,1160,284035580,-93,57,4400
1085,0.436083,1161,284035979,-86,72,4369
1086,0.436493,1162,284036389,-86,72,4369
1087,0.436896,1163,284036792,-77,61,4348
1088,0.437297,1164,284037193,-77,61,4348
1089,0.437700,1165,284037596,-77,61,4348
1090,0.438102,1166,284037998,-65,76,4329
1091,0.438498,1167,284038394,-65,76,4329
1092,0.438906,1168,284038802,-77,83,4321
1093,0.439308,1169,284039204,-77,83,4321
1094,0.439717,1170,284039613,-77,83,4321
1095,0.440125,1171,284040021,-93,63,4364
1096,0.440520,1172,284040416,-93,63,4364
1097,0.440923,1173,284040819,-101,50,4368
1098,0.441332,1174,284041228,-101,50,4368
1099,0.441728,1175,284041624,-101,50,4368
1100,0.442140,1176,284042036,-98,50,4348
1101,0.442530,1177,284042426,-98,50,4348
1102,0.442933,1178,284042829,-103,54,4395
1103,0.443330,1179,284043226,-103,54,4395
1104,0.443738,1180,284043634,-93,61,4367
1105,0.444134,1181,284044030,-93,61,4367
1106,0.444530,1182,284044426,-93,61,4367
1107,0.444934,1183,284044830,-65,84,4349
1108,0.445342,1184,284045238,-65,84,4349
1109,0.445743,1185,284045639,-83,90,4386
1110,0.446146,1186,284046042,-83,90,4386
1111,0.446536,1187,284046432,-83,90,4386
1112,0.446945,1188,284046841,-81,67,4390
1113,0.447342,1189,284047238,-81,67,4390
1114,0.447742,1190,284047638,-81,67,4390
1115,0.448137,1191,284048033,-67,56,4363
1116,0.448533,1192,284048429,-67,56,4363
1117,0.448936,1193,284048832,-92,55,4355
1118,0.449344,1194,284049240,-92,55,4355
1119,0.449747,1195,284049643,-106,47,4373
1120,0.450152,1196,284050048,-106,47,4373
1121,0.450541,1197,284050437,-106,47,4373
1122,0.450950,1198,284050846,-107,67,4370
1123,0.451347,1199,284051243,-107,67,4370
1124,0.451754,1200,284051650,-109,63,4347
1125,0.452154,1201,284052050,-109,63,4347
1126,0.452561,1202,284052457,-109,63,4347
1127,0.452964,1203,284052860,-106,65,4325
1128,0.453368,1204,284053264,-106,65,4325
1129,0.453764,1205,284053660,-112,68,4336
1130,0.454168,1206,284054064,-112,68,4336
1131,0.454568,1207,284054464,-112,68,4336
1132,0.454976,1208,284054872,-108,47,4338
1133,0.455373,1209,284055269,-108,47,4338
1134,0.455776,1210,284055672,-94,32,4377
1135,0.456174,1211,284056070,-94,32,4377
1136,0.456587,1212,284056483,-94,32,4377
1137,0.456989,1213,284056885,-76,24,4401
1138,0.457390,1214,284057286,-76,24,4401
1139,0.457793,1215,284057689,-84,38,4350
1140,0.458192,1216,284058088,-84,38,4350
1141,0.458602,1217,284058498,-84,38,4350
1142,0.459012,1218,284058908,-93,43,4319
1143,0.459419,1219,284059315,-93,43,4319
1144,0.459819,1220,284059715,-75,45,4327
1145,0.460217,1221,284060113,-75,45,4327
1146,0.460628,1222,284060524,-75,45,4327
1147,0.461030,1223,284060926,-81,56,4305
1148,0.461441,1224,284061337,-81,56,4305
1149,0.461844,1225,284061740,-96,56,4306
1150,0.462240,1226,284062136,-96,56,4306
1151,0.462634,1227,284062530,-96,56,4306
1152,0.463037,1228,284062933,-85,56,4324
1153,0.463436,1229,284063332,-85,56,4324
1154,0.463844,1230,284063740,-71,49,4331
1155,0.464239,1231,284064135,-71,49,4331
1156,0.464648,1232,284064544,-71,49,4331
1157,0.465045,1233,284064941,-86,64,4345
1158,0.465457,1234,284065353,-86,64,4345
1159,0.465854,1235,284065750,-107,79,4317
1160,0.466245,1236,284066141,-107,79,4317
1161,0.466624,1237,284066520,-107,79,4317
1162,0.467015,1238,284066911,-94,75,4348
1163,0.467399,1239,284067295,-94,75,4348
1164,0.467808,1240,284067704,-80,90,4394
1165,0.468195,1241,284068091,-80,90,4394
1166,0.468612,1242,284068508,-80,90,4394
1167,0.469007,1243,284068903,-96,80,4366
1168,0.469422,1244,284069318,-96,80,4366
1169,0.469818,1245,284069714,-105,69,4347
1170,0.470222,1246,284070118,-105,69,4347
1171,0.470627,1247,284070523,-105,69,4347
1172,0.471036,1248,284070932,-98,59,4345
1173,0.471443,1249,284071339,-98,59,4345
1174,0.471852,1250,284071748,-85,52,4355
1175,0.472241,1251,284072137,-85,52,4355
1176,0.472660,1252,284072556,-85,52,4355
1177,0.473067,1253,284072963,-99,69,4349
1178,0.473477,1254,284073373,-99,69,4349
1179,0.473879,1255,284073775,-108,83,4361
1180,0.474280,1256,284074176,-108,83,4361
1181,0.474691,1257,284074587,-108,83,4361
1182,0.475102,1258,284074998,-111,82,4370
1183,0.475492,1259,284075388,-111,82,4370
1184,0.475907,1260,284075803,-119,82,4335
1185,0.476311,1261,284076207,-119,82,4335
1186,0.476717,1262,284076613,-119,82,4335
1187,0.477123,1263,284077019,-87,82,4338
1188,0.477526,1264,284077422,-87,82,4338
1189,0.477929,1265,284077825,-88,50,4332
1190,0.478337,1266,284078233,-88,50,4332
1191,0.478739,1267,284078635,-101,36,4337
1192,0.479143,1268,284079039,-101,36,4337
1193,0.479540,1269,284079436,-101,36,4337
1194,0.479948,1270,284079844,-102,53,4373
1195,0.480349,1271,284080245,-102,53,4373
1196,0.480758,1272,284080654,-97,40,4365
1197,0.481156,1273,284081052,-97,40,4365
1198,0.481552,1274,284081448,-97,40,4365
1199,0.481960,1275,284081856,-89,36,4380
1200,0.482368,1276,284082264,-89,36,4380
1201,0.482763,1277,284082659,-104,59,4399
1202,0.483168,1278,284083064,-104,59,4399
1203,0.483569,1279,284083465,-104,59,4399
1204,0.483971,1280,284083867,-102,48,4362
1205,0.484374,1281,284084270,-102,48,4362
1206,0.484778,1282,284084674,-96,57,4324
1207,0.485175,1283,284085071,-96,57,4324
1208,0.485590,1284,284085486,-96,57,4324
1209,0.485986,1285,284085882,-92,92,4344
1210,0.486398,1286,284086294,-92,92,4344
1211,0.486793,1287,284086689,-89,82,4382
1212,0.487193,1288,284087089,-89,82,4382
1213,0.487593,1289,284087489,-89,82,4382
1214,0.488000,1290,284087896,-102,68,4389
1215,0.488407,1291,284088303,-102,68,4389
1216,0.488814,1292,284088710,-97,38,4378
1217,0.489211,1293,284089107,-97,38,4378
1218,0.489609,1294,284089505,-97,38,4378
1219,0.490018,1295,284089914,-99,21,4392
1220,0.490423,1296,284090319,-99,21,4392
1221,0.490818,1297,284090714,-95,49,4388
1222,0.491216,1298,284091112,-95,49,4388
1223,0.491622,1299,284091518,-95,49,4388
1224,0.492030,1300,284091926,-84,46,4373
1225,0.492430,1301,284092326,-84,46,4373
1226,0.492845,1302,284092741,-77,54,4379
1227,0.493235,1303,284093131,-77,54,4379
1228,0.493642,1304,284093538,-77,54,4379
1229,0.494045,1305,284093941,-76,80,4376
1230,0.494456,1306,284094352,-76,80,4376
1231,0.494851,1307,284094747,-116,58,4355
1232,0.495261,1308,284095157,-116,58,4355
1233,0.495657,1309,284095553,-116,58,4355
1234,0.496077,1310,284095973,-142,49,4351
1235,0.496473,1311,284096369,-142,49,4351
1236,0.496888,1312,284096784,-114,59,4393
1237,0.497283,1313,284097179,-114,59,4393
1238,0.497692,1314,284097588,-114,59,4393
1239,0.498100,1315,284097996,-104,49,4380
1240,0.498503,1316,284098399,-104,49,4380
1241,0.498907,1317,284098803,-94,54,4348
1242,0.499314,1318,284099210,-94,54,4348
1243,0.499717,1319,284099613,-94,54,4348
1244,0.500123,1320,284100019,-78,53,4349
1245,0.500519,1321,284100415,-78,53,4349
1246,0.500928,1322,284100824,-91,51,4370
1247,0.501322,1323,284101218,-91,51,4370
1248,0.501725,1324,284101621,-91,51,4370
1249,0.502125,1325,284102021,-100,55,4408
1250,0.502529,1326,284102425,-100,55,4408
1251,0.502925,1327,284102821,-94,50,4413
1252,0.503334,1328,284103230,-94,50,4413
1253,0.503737,1329,284103633,-102,42,4389
1254,0.504140,1330,284104036,-102,42,4389
1255,0.504538,1331,284104434,-102,42,4389
1256,0.504939,1332,284104835,-100,58,4387
1257,0.505341,1333,284105237,-100,58,4387
1258,0.505744,1334,284105640,-78,65,4353
1259,0.506149,1335,284106045,-78,65,4353
1260,0.506545,1336,284106441,-78,65,4353
1261,0.506949,1337,284106845,-94,68,4351
1262,0.507356,1338,284107252,-94,68,4351
1263,0.507765,1339,284107661,-102,77,4408
1264,0.508163,1340,284108059,-102,77,4408
1265,0.508572,1341,284108468,-102,77,4408
1266,0.508980,1342,284108876,-78,53,4399
1267,0.509382,1343,284109278,-78,53,4399
1268,0.509791,1344,284109687,-74,32,4374
1269,0.510179,1345,284110075,-74,32,4374
1270,0.510592,1346,284110488,-74,32,4374
1271,0.510979,1347,284110875,-90,42,4364
1272,0.511391,1348,284111287,-90,42,4364
1273,0.511794,1349,284111690,-101,54,4345
1274,0.512186,1350,284112082,-101,54,4345
1275,0.512594,1351,284112490,-101,54,4345
1276,0.513002,1352,284112898,-99,40,4340
1277,0.513410,1353,284113306,-99,40,4340
1278,0.513819,1354,284113715,-103,46,4339
1279,0.514210,1355,284114106,-103,46,4339
1280,0.514609,1356,284114505,-103,46,4339
1281,0.515012,1357,284114908,-113,50,4352
1282,0.515411,1358,284115307,-113,50,4352
1283,0.515795,1359,284115691,-92,50,4385
1284,0.516187,1360,284116083,-92,50,4385
1285,0.516595,1361,284116491,-92,50,4385
1286,0.516997,1362,284116893,-62,49,4383
1287,0.517399,1363,284117295,-62,49,4383
1288,0.517813,1364,284117709,-55,59,4367
1289,0.518195,1365,284118091,-55,59,4367
1290,0.518609,1366,284118505,-55,59,4367
1291,0.519011,1367,284118907,-80,82,4375
1292,0.519416,1368,284119312,-80,82,4375
1293,0.519826,1369,284119722,-88,72,4362
1294,0.520222,1370,284120118,-88,72,4362
1295,0.520620,1371,284120516,-88,72,4362
1296,0.521035,1372,284120931,-94,51,4351
1297,0.521442,1373,284121338,-94,51,4351
1298,0.521849,1374,284121745,-115,50,4363
1299,0.522238,1375,284122134,-115,50,4363
1300,0.522655,1376,284122551,-115,50,4363
1301,0.523060,1377,284122956,-101,74,4377
1302,0.523469,1378,284123365,-101,74,4377
1303,0.523864,1379,284123760,-71,79,4374
1304,0.524272,1380,284124168,-71,79,4374
1305,0.524678,1381,284124574,-71,79,4374
1306,0.525091,1382,284124987,-87,52,4389
1307,0.525493,1383,284125389,-87,52,4389
1308,0.525901,1384,284125797,-102,44,4410
1309,0.526302,1385,284126198,-102,44,4410
1310,0.526711,1386,284126607,-102,44,4410
1311,0.527119,1387,284127015,-79,35,4386
1312,0.527521,1388,284127417,-79,35,4386
1313,0.527917,1389,284127813,-91,29,4385
1314,0.528332,1390,284128228,-91,29,4385
1315,0.528734,1391,284128630,-92,57,4393
1316,0.529137,1392,284129033,-92,57,4393
1317,0.529534,1393,284129430,-92,57,4393
1318,0.529943,1394,284129839,-94,70,4368
1319,0.530337,1395,284130233,-94,70,4368
1320,0.530752,1396,284130648,-101,61,4372
1321,0.531143,1397,284131039,-101,61,4372
1322,0.531546,1398,284131442,-101,61,4372
1323,0.531922,1399,284131818,-104,52,4378
1324,0.532297,1400,284132193,-104,52,4378
1325,0.532667,1401,284132563,-104,52,4378
1326,0.533036,1402,284132932,-118,49,4353
1327,0.533410,1403,284133306,-118,49,4353
1328,0.533780,1404,284133676,-97,40,4365
1329,0.534153,1405,284134049,-97,40,4365
1330,0.534522,1406,284134418,-97,40,4365
1331,0.607105,1407,284207001,-100,60,4361
1332,0.607511,1408,284207407,-100,60,4361
1333,0.607908,1409,284207804,-93,57,4371
1334,0.608316,1410,284208212,-93,57,4371
1335,0.608711,1411,284208607,-93,57,4371
1336,0.609125,1412,284209021,-92,48,4389
1337,0.609515,1413,284209411,-92,48,4389
1338,0.609923,1414,284209819,-98,41,4390
1339,0.610325,1415,284210221,-98,41,4390
1340,0.610735,1416,284210631,-94,55,4371
1341,0.611135,1417,284211031,-94,55,4371
1342,0.611531,1418,284211427,-94,55,4371
1343,0.611934,1419,284211830,-96,83,4351
1344,0.612342,1420,284212238,-96,83,4351
1345,0.612745,1421,284212641,-97,71,4338
1346,0.613155,1422,284213051,-97,71,4338
1347,0.613544,1423,284213440,-97,71,4338
1348,0.613952,1424,284213848,-83,50,4340
1349,0.614362,1425,284214258,-83,50,4340
1350,0.614764,1426,284214660,-102,66,4365
1351,0.615162,1427,284215058,-102,66,4365
1352,0.615569,1428,284215465,-102,66,4365
1353,0.615973,1429,284215869,-112,70,4372
1354,0.616374,1430,284216270,-112,70,4372
1355,0.616778,1431,284216674,-94,58,4353
1356,0.617181,1432,284217077,-94,58,4353
1357,0.617583,1433,284217479,-94,58,4353
1358,0.617988,1434,284217884,-90,58,4336
1359,0.618398,1435,284218294,-90,58,4336
1360,0.618806,1436,284218702,-91,56,4343
1361,0.619194,1437,284219090,-91,56,4343
1362,0.619602,1438,284219498,-91,56,4343
1363,0.619998,1439,284219894,-92,51,4341
1364,0.620412,1440,284220308,-92,51,4341
1365,0.620807,1441,284220703,-69,40,4347
1366,0.621212,1442,284221108,-69,40,4347
1367,0.621600,1443,284221496,-69,40,4347
1368,0.622003,1444,284221899,-59,59,4368
1369,0.622409,1445,284222305,-59,59,4368
1370,0.622818,1446,284222714,-108,58,4363
1371,0.623200,1447,284223096,-108,58,4363
1372,0.623610,1448,284223506,-108,58,4363
1373,0.624006,1449,284223902,-124,49,4374
1374,0.624419,1450,284224315,-124,49,4374
1375,0.624806,1451,284224702,-106,54,4393
1376,0.625194,1452,284225090,-106,54,4393
1377,0.625599,1453,284225495,-106,54,4393
1378,0.626007,1454,284225903,-109,60,4413
1379,0.626407,1455,284226303,-109,60,4413
1380,0.626815,1456,284226711,-121,68,4395
1381,0.627198,1457,284227094,-121,68,4395
1382,0.627614,1458,284227510,-121,68,4395
1383,0.628009,1459,284227905,-117,55,4372
1384,0.628422,1460,284228318,-117,55,4372
1385,0.628817,1461,284228713,-91,36,4375
1386,0.629222,1462,284229118,-91,36,4375
1387,0.629620,1463,284229516,-91,36,4375
1388,0.630029,1464,284229925,-87,28,4362
1389,0.630436,1465,284230332,-87,28,4362
1390,0.630839,1466,284230735,-106,57,4366
1391,0.631236,1467,284231132,-106,57,4366
1392,0.631639,1468,284231535,-106,57,4366
1393,0.632041,1469,284231937,-126,76,4377
1394,0.632459,1470,284232355,-126,76,4377
1395,0.632855,1471,284232751,-122,42,4389
1396,0.633265,1472,284233161,-122,42,4389
1397,0.633661,1473,284233557,-122,42,4389
1398,0.634081,1474,284233977,-66,8,4380
1399,0.634483,1475,284234379,-66,8,4380
1400,0.634884,1476,284234780,-30,25,4371
1401,0.635286,1477,284235182,-30,25,4371
1402,0.635693,1478,284235589,-30,25,4371
1403,0.636106,1479,284236002,-36,47,4399
1404,0.636508,1480,284236404,-36,47,4399
1405,0.636911,1481,284236807,-45,43,4374
1406,0.637319,1482,284237215,-45,43,4374
1407,0.637716,1483,284237612,-45,43,4374
1408,0.638127,1484,284238023,-69,37,4333
1409,0.638524,1485,284238420,-69,37,4333
1410,0.638924,1486,284238820,-68,59,4362
1411,0.639327,1487,284239223,-68,59,4362
1412,0.639743,1488,284239639,-46,69,4371
1413,0.640133,1489,284240029,-46,69,4371
1414,0.640529,1490,284240425,-46,69,4371
1415,0.640925,1491,284240821,-49,50,4349
1416,0.641325,1492,284241221,-49,50,4349
1417,0.641730,1493,284241626,-80,65,4320
1418,0.642135,1494,284242031,-80,65,4320
1419,0.642531,1495,284242427,-80,65,4320
1420,0.642940,1496,284242836,-89,90,4346
1421,0.643342,1497,284243238,-89,90,4346
1422,0.643743,1498,284243639,-95,71,4369
1423,0.644143,1499,284244039,-95,71,4369
1424,0.644546,1500,284244442,-95,71,4369
1425,0.644948,1501,284244844,-120,39,4363
1426,0.645355,1502,284245251,-120,39,4363
1427,0.645758,1503,284245654,-91,24,4362
1428,0.646164,1504,284246060,-91,24,4362
1429,0.646568,1505,284246464,-91,24,4362
1430,0.646973,1506,284246869,-70,58,4369
1431,0.647377,1507,284247273,-70,58,4369
1432,0.647769,1508,284247665,-94,90,4389
1433,0.648160,1509,284248056,-94,90,4389
1434,0.648566,1510,284248462,-94,90,4389
1435,0.648968,1511,284248864,-83,76,4391
1436,0.649376,1512,284249272,-83,76,4391
1437,0.649777,1513,284249673,-96,86,4377
1438,0.650181,1514,284250077,-96,86,4377
1439,0.650583,1515,284250479,-96,86,4377
1440,0.650990,1516,284250886,-99,65,4360
1441,0.651397,1517,284251293,-99,65,4360
1442,0.651805,1518,284251701,-83,46,4385
1443,0.652199,1519,284252095,-83,46,4385
1444,0.652610,1520,284252506,-83,46,4385
1445,0.653012,1521,284252908,-93,59,4368
1446,0.653425,1522,284253321,-93,59,4368
1447,0.653827,1523,284253723,-86,67,4329
1448,0.654230,1524,284254126,-86,67,4329
1449,0.654628,1525,284254524,-86,67,4329
1450,0.655035,1526,284254931,-77,84,4342
1451,0.655440,1527,284255336,-77,84,4342
1452,0.655849,1528,284255745,-86,78,4373
1453,0.656240,1529,284256136,-86,78,4373
1454,0.656650,1530,284256546,-86,78,4373
1455,0.657046,1531,284256942,-96,62,4375
1456,0.657466,1532,284257362,-96,62,4375
1457,0.657861,1533,284257757,-83,60,4353
1458,0.658270,1534,284258166,-83,60,4353
1459,0.658669,1535,284258565,-83,60,4353
1460,0.659089,1536,284258985,-91,67,4345
1461,0.659484,1537,284259380,-91,67,4345
1462,0.659900,1538,284259796,-107,58,4371
1463,0.660295,1539,284260191,-107,58,4371
1464,0.660705,1540,284260601,-107,58,4371
1465,0.661118,1541,284261014,-83,48,4375
1466,0.661521,1542,284261417,-83,48,4375
1467,0.661916,1543,284261812,-95,42,4357
1468,0.662319,1544,284262215,-95,42,4357
1469,0.662729,1545,284262625,-95,32,4374
1470,0.663134,1546,284263030,-95,32,4374
1471,0.663531,1547,284263427,-95,32,4374
1472,0.663940,1548,284263836,-86,34,4375
1473,0.664335,1549,284264231,-86,34,4375
1474,0.664733,1550,284264629,-109,64,4353
1475,0.665134,1551,284265030,-109,64,4353
1476,0.665537,1552,284265433,-109,64,4353
1477,0.665941,1553,284265837,-112,65,4344
1478,0.666349,1554,284266245,-112,65,4344
1479,0.666752,1555,284266648,-88,52,4367
1480,0.667156,1556,284267052,-88,52,4367
1481,0.667545,1557,284267441,-88,52,4367
1482,0.667955,1558,284267851,-79,47,4373
1483,0.668365,1559,284268261,-79,47,4373
1484,0.668773,1560,284268669,-97,33,4357
1485,0.669165,1561,284269061,-97,33,4357
1486,0.669575,1562,284269471,-97,33,4357
1487,0.669979,1563,284269875,-118,35,4362
1488,0.670386,1564,284270282,-118,35,4362
1489,0.670789,1565,284270685,-127,45,4378
1490,0.671182,1566,284271078,-127,45,4378
1491,0.671582,1567,284271478,-127,45,4378
1492,0.671984,1568,284271880,-115,55,4385
1493,0.672387,1569,284272283,-115,55,4385
1494,0.672802,1570,284272698,-104,33,4372
1495,0.673189,1571,284273085,-104,33,4372
1496,0.673607,1572,284273503,-104,33,4372
1497,0.674009,1573,284273905,-95,32,4375
1498,0.674422,1574,284274318,-95,32,4375
1499,0.674824,1575,284274720,-113,61,4395
1500,0.675221,1576,284275117,-113,61,4395
1501,0.675628,1577,284275524,-113,61,4395
1502,0.676027,1578,284275923,-102,65,4383
1503,0.676442,1579,284276338,-102,65,4383
1504,0.676851,1580,284276747,-81,66,4374
1505,0.677241,1581,284277137,-81,66,4374
1506,0.677656,1582,284277552,-81,66,4374
1507,0.678061,1583,284277957,-90,71,4384
1508,0.678469,1584,284278365,-90,71,4384
1509,0.678872,1585,284278768,-95,66,4351
1510,0.679274,1586,284279170,-95,66,4351
1511,0.679676,1587,284279572,-95,66,4351
1512,0.680094,1588,284279990,-100,63,4329
1513,0.680484,1589,284280380,-100,63,4329
1514,0.680884,1590,284280780,-95,49,4369
1515,0.681284,1591,284281180,-95,49,4369
1516,0.681692,1592,284281588,-95,49,4369
1517,0.682105,1593,284282001,-95,29,4379
1518,0.682507,1594,284282403,-95,29,4379
1519,0.682910,1595,284282806,-107,57,4350
1520,0.683311,1596,284283207,-107,57,4350
1521,0.683722,1597,284283618,-112,67,4358
1522,0.684134,1598,284284030,-112,67,4358
1523,0.684531,1599,284284427,-112,67,4358
1524,0.684940,1600,284284836,-97,41,4393
1525,0.685342,1601,284285238,-97,41,4393
1526,0.685750,1602,284285646,-99,49,4393
1527,0.686149,1603,284286045,-99,49,4393
1528,0.686552,1604,284286448,-99,49,4393
1529,0.686958,1605,284286854,-109,55,4366
1530,0.687360,1606,284287256,-109,55,4366
1531,0.687757,1607,284287653,-105,56,4369
1532,0.688163,1608,284288059,-105,56,4369
1533,0.688552,1609,284288448,-105,56,4369
1534,0.688969,1610,284288865,-108,72,4391
1535,0.689372,1611,284289268,-108,72,4391
1536,0.689779,1612,284289675,-102,67,4389
1537,0.690169,1613,284290065,-102,67,4389
1538,0.690585,1614,284290481,-102,67,4389
1539,0.690988,1615,284290884,-100,64,4376
1540,0.691396,1616,284291292,-100,64,4376
1541,0.691799,1617,284291695,-90,74,4373
1542,0.692192,1618,284292088,-90,74,4373
1543,0.692599,1619,284292495,-90,74,4373
1544,0.693006,1620,284292902,-100,65,4394
1545,0.693405,1621,284293301,-100,65,4394
1546,0.693821,1622,284293717,-119,58,4371
1547,0.694202,1623,284294098,-119,58,4371
1548,0.694620,1624,284294516,-119,58,4371
1549,0.695014,1625,284294910,-102,69,4375
1550,0.695433,1626,284295329,-102,69,4375
1551,0.695836,1627,284295732,-93,45,4387
1552,0.696231,1628,284296127,-93,45,4387
1553,0.696638,1629,284296534,-93,45,4387
1554,0.697045,1630,284296941,-109,22,4337
1555,0.697452,1631,284297348,-109,22,4337
1556,0.697846,1632,284297742,-104,49,4341
1557,0.698229,1633,284298125,-104,49,4341
1558,0.698638,1634,284298534,-104,49,4341
1559,0.699041,1635,284298937,-83,60,4349
1560,0.699452,1636,284299348,-83,60,4349
1561,0.699855,1637,284299751,-86,42,4372
1562,0.700249,1638,284300145,-86,42,4372
1563,0.700659,1639,284300555,-86,42,4372
1564,0.701072,1640,284300968,-97,43,4375
1565,0.701467,1641,284301363,-97,43,4375
1566,0.701882,1642,284301778,-97,52,4333
1567,0.702277,1643,284302173,-97,52,4333
1568,0.702693,1644,284302589,-97,52,4333
1569,0.703100,1645,284302996,-94,58,4336
1570,0.703496,1646,284303392,-94,58,4336
1571,0.703893,1647,284303789,-104,66,4367
1572,0.704299,1648,284304195,-104,66,4367
1573,0.704702,1649,284304598,-104,66,4367
1574,0.705120,1650,284305016,-107,62,4393
1575,0.705509,1651,284305405,-107,62,4393
1576,0.705918,1652,284305814,-101,55,4362
1577,0.706320,1653,284306216,-101,55,4362
1578,0.706729,1654,284306625,-106,50,4339
1579,0.707132,1655,284307028,-106,50,4339
1580,0.707535,1656,284307431,-106,50,4339
1581,0.707932,1657,284307828,-90,50,4382
1582,0.708334,1658,284308230,-90,50,4382
1583,0.708737,1659,284308633,-96,59,4400
1584,0.709142,1660,284309038,-96,59,4400
1585,0.709532,1661,284309428,-96,59,4400
1586,0.709940,1662,284309836,-119,64,4363
1587,0.710349,1663,284310245,-119,64,4363
1588,0.710757,1664,284310653,-103,59,4321
1589,0.711155,1665,284311051,-103,59,4321
1590,0.711559,1666,284311455,-103,59,4321
1591,0.711961,1667,284311857,-87,62,4324
1592,0.712368,1668,284312264,-87,62,4324
1593,0.712772,1669,284312668,-75,63,4344
1594,0.713169,1670,284313065,-75,63,4344
1595,0.713568,1671,284313464,-75,63,4344
1596,0.713977,1672,284313873,-60,48,4391
1597,0.714380,1673,284314276,-60,48,4391
1598,0.714788,1674,284314684,-66,57,4396
1599,0.715179,1675,284315075,-66,57,4396
1600,0.715592,1676,284315488,-66,57,4396
1601,0.715987,1677,284315883,-74,72,4354
1602,0.716401,1678,284316297,-74,72,4354
1603,0.716802,1679,284316698,-78,45,4362
1604,0.717211,1680,284317107,-78,45,4362
1605,0.717601,1681,284317497,-78,45,4362
1606,0.718016,1682,284317912,-92,55,4373
1607,0.718415,1683,284318311,-92,55,4373
1608,0.718823,1684,284318719,-104,84,4355
1609,0.719220,1685,284319116,-104,84,4355
1610,0.719617,1686,284319513,-104,84,4355
1611,0.720019,1687,284319915,-94,74,4346
1612,0.720432,1688,284320328,-94,74,4346
1613,0.720834,1689,284320730,-75,69,4364
1614,0.721237,1690,284321133,-75,69,4364
1615,0.721635,1691,284321531,-75,69,4364
1616,0.722043,1692,284321939,-71,44,4359
1617,0.722449,1693,284322345,-71,44,4359
1618,0.722857,1694,284322753,-86,34,4337
1619,0.723253,1695,284323149,-86,34,4337
1620,0.723662,1696,284323558,-86,34,4337
1621,0.724070,1697,284323966,-98,69,4361
1622,0.724479,1698,284324375,-98,69,4361
1623,0.724880,1699,284324776,-90,93,4388
1624,0.725289,1700,284325185,-90,93,4388
1625,0.725691,1701,284325587,-90,93,4388
1626,0.726103,1702,284325999,-94,61,4365
1627,0.726499,1703,284326395,-94,61,4365
1628,0.726905,1704,284326801,-95,43,4351
1629,0.727314,1705,284327210,-95,43,4351
1630,0.727707,1706,284327603,-95,43,4351
1631,0.728111,1707,284328007,-83,69,4359
1632,0.728514,1708,284328410,-83,69,4359
1633,0.728916,1709,284328812,-79,67,4369
1634,0.729324,1710,284329220,-79,67,4369
1635,0.729726,1711,284329622,-87,64,4360
1636,0.730137,1712,284330033,-87,64,4360
1637,0.730527,1713,284330423,-87,64,4360
1638,0.730934,1714,284330830,-104,73,4355
1639,0.731333,1715,284331229,-104,73,4355
1640,0.731736,1716,284331632,-107,64,4345
1641,0.732142,1717,284332038,-107,64,4345
1642,0.732545,1718,284332441,-107,64,4345
1643,0.732942,1719,284332838,-101,40,4348
1644,0.733351,1720,284333247,-101,40,4348
1645,0.733740,1721,284333636,-82,38,4375
1646,0.734152,1722,284334048,-82,38,4375
1647,0.734548,1723,284334444,-82,38,4375
1648,0.734952,1724,284334848,-75,55,4357
1649,0.735354,1725,284335250,-75,55,4357
1650,0.735763,1726,284335659,-82,62,4369
1651,0.736169,1727,284336065,-82,62,4369
1652,0.736580,1728,284336476,-82,62,4369
1653,0.736982,1729,284336878,-88,64,4387
1654,0.737391,1730,284337287,-88,64,4387
1655,0.737785,1731,284337681,-104,65,4332
1656,0.738186,1732,284338082,-104,65,4332
1657,0.738583,1733,284338479,-104,65,4332
1658,0.738997,1734,284338893,-99,54,4295
1659,0.739397,1735,284339293,-99,54,4295
1660,0.739813,1736,284339709,-87,56,4325
1661,0.740194,1737,284340090,-87,56,4325
1662,0.740599,1738,284340495,-87,56,4325
1663,0.741002,1739,284340898,-83,53,4362
1664,0.741414,1740,284341310,-83,53,4362
1665,0.741823,1741,284341719,-90,47,4369
1666,0.742220,1742,284342116,-90,47,4369
1667,0.742615,1743,284342511,-90,47,4369
1668,0.743030,1744,284342926,-102,49,4366
1669,0.743437,1745,284343333,-102,49,4366
1670,0.743845,1746,284343741,-119,51,4377
1671,0.744235,1747,284344131,-119,51,4377
1672,0.744643,1748,284344539,-119,51,4377
1673,0.745045,1749,284344941,-116,60,4376
1674,0.745463,1750,284345359,-116,60,4376
1675,0.745858,1751,284345754,-86,63,4354
1676,0.746268,1752,284346164,-86,63,4354
1677,0.746664,1753,284346560,-86,63,4354
1678,0.747083,1754,284346979,-100,69,4383
1679,0.747478,1755,284347374,-100,69,4383
1680,0.747878,1756,284347774,-106,57,4388
1681,0.748256,1757,284348152,-106,57,4388
1682,0.748660,1758,284348556,-106,57,4388
1683,0.749060,1759,284348956,-95,63,4346
1684,0.749462,1760,284349358,-95,63,4346
1685,0.749865,1761,284349761,-84,52,4358
1686,0.750265,1762,284350161,-84,52,4358
1687,0.750664,1763,284350560,-84,52,4358
1688,0.751065,1764,284350961,-80,35,4384
1689,0.751460,1765,284351356,-80,35,4384
1690,0.751875,1766,284351771,-101,57,4373
1691,0.752271,1767,284352167,-101,57,4373
1692,0.752682,1768,284352578,-101,57,4373
1693,0.753089,1769,284352985,-106,61,4363
1694,0.753490,1770,284353386,-106,61,4363
1695,0.753892,1771,284353788,-81,63,4397
1696,0.754307,1772,284354203,-81,63,4397
1697,0.754703,1773,284354599,-84,54,4390
1698,0.755123,1774,284355019,-84,54,4390
1699,0.755512,1775,284355408,-84,54,4390
1700,0.755921,1776,284355817,-84,42,4364
1701,0.756331,1777,284356227,-84,42,4364
1702,0.756738,1778,284356634,-62,49,4368
1703,0.757125,1779,284357021,-62,49,4368
1704,0.757501,1780,284357397,-62,49,4368
1705,0.757870,1781,284357766,-87,55,4358
1706,0.758239,1782,284358135,-87,55,4358
1707,0.758612,1783,284358508,-87,55,4358
1708,0.758981,1784,284358877,-104,54,4368
1709,0.759351,1785,284359247,-104,54,4368
1710,0.759720,1786,284359616,-103,62,4389
1711,0.760093,1787,284359989,-103,62,4389
1712,0.856205,1788,284456101,-98,70,4378
1713,0.856623,1789,284456519,-98,70,4378
1714,0.857013,1790,284456909,-102,65,4391
1715,0.857432,1791,284457328,-102,65,4391
1716,0.857828,1792,284457724,-105,59,4384
1717,0.858227,1793,284458123,-105,59,4384
1718,0.858624,1794,284458520,-105,59,4384
1719,0.859024,1795,284458920,-97,76,4370
1720,0.859440,1796,284459336,-97,76,4370
1721,0.859849,1797,284459745,-102,74,4385
1722,0.860239,1798,284460135,-102,74,4385
1723,0.860643,1799,284460539,-102,74,4385
1724,0.861046,1800,284460942,-111,66,4366
1725,0.861453,1801,284461349,-111,66,4366
1726,0.861856,1802,284461752,-100,75,4311
1727,0.862259,1803,284462155,-100,75,4311
1728,0.862663,1804,284462559,-100,75,4311
1729,0.863077,1805,284462973,-99,61,4341
1730,0.863473,1806,284463369,-99,61,4341
1731,0.863881,1807,284463777,-99,43,4370
1732,0.864284,1808,284464180,-99,43,4370
1733,0.864678,1809,284464574,-99,43,4370
1734,0.865079,1810,284464975,-96,43,4361
1735,0.865481,1811,284465377,-96,43,4361
1736,0.865878,1812,284465774,-90,36,4346
1737,0.866282,1813,284466178,-90,36,4346
1738,0.866679,1814,284466575,-90,36,4346
1739,0.867092,1815,284466988,-93,37,4369
1740,0.867488,1816,284467384,-93,37,4369
1741,0.867896,1817,284467792,-102,46,4394
1742,0.868293,1818,284468189,-102,46,4394
1743,0.868695,1819,284468591,-102,46,4394
1744,0.869097,1820,284468993,-81,53,4366
1745,0.869499,1821,284469395,-81,53,4366
1746,0.869900,1822,284469796,-80,65,4387
1747,0.870310,1823,284470206,-80,65,4387
1748,0.870707,1824,284470603,-110,58,4424
1749,0.871120,1825,284471016,-110,58,4424
1750,0.871517,1826,284471413,-110,58,4424
1751,0.871925,1827,284471821,-123,46,4394
1752,0.872322,1828,284472218,-123,46,4394
1753,0.872730,1829,284472626,-131,49,4336
1754,0.873132,1830,284473028,-131,49,4336
1755,0.873527,1831,284473423,-131,49,4336
1756,0.873931,1832,284473827,-130,62,4335
1757,0.874339,1833,284474235,-130,62,4335
1758,0.874733,1834,284474629,-111,61,4392
1759,0.875147,1835,284475043,-111,61,4392
1760,0.875543,1836,284475439,-111,61,4392
1761,0.875952,1837,284475848,-90,52,4406
1762,0.876354,1838,284476250,-90,52,4406
1763,0.876763,1839,284476659,-108,61,4382
1764,0.877161,1840,284477057,-108,61,4382
1765,0.877576,1841,284477472,-108,61,4382
1766,0.877970,1842,284477866,-120,70,4380
1767,0.878387,1843,284478283,-120,70,4380
1768,0.878790,1844,284478686,-92,67,4374
1769,0.879182,1845,284479078,-92,67,4374
1770,0.879590,1846,284479486,-92,67,4374
1771,0.879998,1847,284479894,-97,75,4373
1772,0.880405,1848,284480301,-97,75,4373
1773,0.880804,1849,284480700,-100,87,4359
1774,0.881195,1850,284481091,-100,87,4359
1775,0.881606,1851,284481502,-100,87,4359
1776,0.882010,1852,284481906,-93,74,4366
1777,0.882426,1853,284482322,-93,74,4366
1778,0.882829,1854,284482725,-78,72,4392
1779,0.883225,1855,284483121,-78,72,4392
1780,0.883630,1856,284483526,-78,72,4392
1781,0.884037,1857,284483933,-65,62,4393
1782,0.884443,1858,284484339,-65,62,4393
1783,0.884852,1859,284484748,-71,32,4375
1784,0.885242,1860,284485138,-71,32,4375
1785,0.885655,1861,284485551,-71,32,4375
1786,0.886061,1862,284485957,-83,51,4344
1787,0.886462,1863,284486358,-83,51,4344
1788,0.886871,1864,284486767,-85,68,4367
1789,0.887273,1865,284487169,-85,68,4367
1790,0.887678,1866,284487574,-85,68,4367
1791,0.888091,1867,284487987,-87,68,4374
1792,0.888494,1868,284488390,-87,68,4374
1793,0.888902,1869,284488798,-111,60,4343
1794,0.889298,1870,284489194,-111,60,4343
1795,0.889706,1871,284489602,-109,42,4345
1796,0.890107,1872,284490003,-109,42,4345
1797,0.890512,1873,284490408,-109,42,4345
1798,0.890908,1874,284490804,-96,53,4348
1799,0.891316,1875,284491212,-96,53,4348
1800,0.891717,1876,284491613,-93,52,4342
1801,0.892126,1877,284492022,-93,52,4342
1802,0.892516,1878,284492412,-93,52,4342
1803,0.892919,1879,284492815,-90,48,4360
1804,0.893321,1880,284493217,-90,48,4360
1805,0.893736,1881,284493632,-92,62,4411
1806,0.894134,1882,284494030,-92,62,4411
1807,0.894536,1883,284494432,-92,62,4411
1808,0.894932,1884,284494828,-98,59,4414
1809,0.895338,1885,284495234,-98,59,4414
1810,0.895749,1886,284495645,-70,52,4402
1811,0.896152,1887,284496048,-70,52,4402
1812,0.896541,1888,284496437,-70,52,4402
1813,0.896956,1889,284496852,-47,64,4361
1814,0.897351,1890,284497247,-47,64,4361
1815,0.897760,1891,284497656,-64,59,4342
1816,0.898162,1892,284498058,-64,59,4342
1817,0.898557,1893,284498453,-64,59,4342
1818,0.898959,1894,284498855,-84,69,4348
1819,0.899375,1895,284499271,-84,69,4348
1820,0.899778,1896,284499674,-110,72,4335
1821,0.900174,1897,284500070,-110,72,4335
1822,0.900582,1898,284500478,-110,72,4335
1823,0.900990,1899,284500886,-126,51,4350
1824,0.901385,1900,284501281,-126,51,4350
1825,0.901800,1901,284501696,-109,49,4345
1826,0.902188,1902,284502084,-109,49,4345
1827,0.902601,1903,284502497,-109,49,4345
1828,0.902997,1904,284502893,-103,48,4362
1829,0.903415,1905,284503311,-103,48,4362
1830,0.903818,1906,284503714,-122,54,4360
1831,0.904206,1907,284504102,-122,54,4360
1832,0.904606,1908,284504502,-122,54,4360
1833,0.905014,1909,284504910,-114,63,4363
1834,0.905423,1910,284505319,-114,63,4363
1835,0.905825,1911,284505721,-107,72,4366
1836,0.906221,1912,284506117,-107,72,4366
1837,0.906632,1913,284506528,-107,72,4366
1838,0.907027,1914,284506923,-81,65,4357
1839,0.907441,1915,284507337,-81,65,4357
1840,0.907843,1916,284507739,-58,70,4381
1841,0.908245,1917,284508141,-58,70,4381
1842,0.908650,1918,284508546,-58,70,4381
1843,0.909062,1919,284508958,-65,67,4367
1844,0.909465,1920,284509361,-65,67,4367
1845,0.909873,1921,284509769,-106,48,4363
1846,0.910262,1922,284510158,-106,48,4363
1847,0.910678,1923,284510574,-106,48,4363
1848,0.911086,1924,284510982,-106,37,4358
1849,0.911488,1925,284511384,-106,37,4358
1850,0.911886,1926,284511782,-76,47,4346
1851,0.912293,1927,284512189,-76,47,4346
1852,0.912696,1928,284512592,-95,66,4349
1853,0.913109,1929,284513005,-95,66,4349
1854,0.913506,1930,284513402,-95,66,4349
1855,0.913915,1931,284513811,-100,69,4319
1856,0.914318,1932,284514214,-100,69,4319
1857,0.914727,1933,284514623,-88,76,4369
1858,0.915126,1934,284515022,-88,76,4369
1859,0.915522,1935,284515418,-88,76,4369
1860,0.915925,1936,284515821,-78,79,4398
1861,0.916332,1937,284516228,-78,79,4398
1862,0.916729,1938,284516625,-78,82,4376
1863,0.917138,1939,284517034,-78,82,4376
1864,0.917528,1940,284517424,-78,82,4376
1865,0.917929,1941,284517825,-100,59,4393
1866,0.918311,1942,284518207,-100,59,4393
1867,0.918715,1943,284518611,-101,69,4390
1868,0.919123,1944,284519019,-101,69,4390
1869,0.919526,1945,284519422,-101,69,4390
1870,0.919923,1946,284519819,-77,82,4384
1871,0.920331,1947,284520227,-77,82,4384
1872,0.920731,1948,284520627,-59,47,4389
1873,0.921144,1949,284521040,-59,47,4389
1874,0.921533,1950,284521429,-59,47,4389
1875,0.921942,1951,284521838,-87,40,4371
1876,0.922351,1952,284522247,-87,40,4371
1877,0.922759,1953,284522655,-97,33,4345
1878,0.923159,1954,284523055,-97,33,4345
1879,0.923555,1955,284523451,-97,33,4345
1880,0.923970,1956,284523866,-99,19,4359
1881,0.924364,1957,284524260,-99,19,4359
1882,0.924768,1958,284524664,-120,38,4339
1883,0.925166,1959,284525062,-120,38,4339
1884,0.925574,1960,284525470,-120,38,4339
1885,0.925971,1961,284525867,-94,42,4339
1886,0.926374,1962,284526270,-94,42,4339
1887,0.926771,1963,284526667,-76,25,4396
1888,0.927174,1964,284527070,-76,25,4396
1889,0.927575,1965,284527471,-76,25,4396
1890,0.927977,1966,284527873,-79,33,4378
1891,0.928375,1967,284528271,-79,33,4378
1892,0.928782,1968,284528678,-84,41,4340
1893,0.929179,1969,284529075,-84,41,4340
1894,0.929586,1970,284529482,-84,41,4340
1895,0.929987,1971,284529883,-75,40,4363
1896,0.930398,1972,284530294,-75,40,4363
1897,0.930800,1973,284530696,-88,64,4368
1898,0.931199,1974,284531095,-88,64,4368
1899,0.931599,1975,284531495,-88,64,4368
1900,0.932001,1976,284531897,-109,78,4350
1901,0.932402,1977,284532298,-109,78,4350
1902,0.932811,1978,284532707,-104,66,4369
1903,0.933206,1979,284533102,-104,66,4369
1904,0.933617,1980,284533513,-104,66,4369
1905,0.934020,1981,284533916,-89,53,4407
1906,0.934433,1982,284534329,-89,53,4407
1907,0.934836,1983,284534732,-91,39,4405
1908,0.935233,1984,284535129,-91,39,4405
1909,0.935630,1985,284535526,-91,39,4405
1910,0.936038,1986,284535934,-82,50,4387
1911,0.936438,1987,284536334,-82,50,4387
1912,0.936840,1988,284536736,-76,65,4360
1913,0.937231,1989,284537127,-76,65,4360
1914,0.937641,1990,284537537,-76,65,4360
1915,0.938044,1991,284537940,-78,59,4333
1916,0.938448,1992,284538344,-78,59,4333
1917,0.938858,1993,284538754,-90,63,4349
1918,0.939254,1994,284539150,-90,63,4349
1919,0.939663,1995,284539559,-90,63,4349
1920,0.940073,1996,284539969,-96,66,4368
1921,0.940475,1997,284540371,-96,66,4368
1922,0.940871,1998,284540767,-104,47,4376
1923,0.941274,1999,284541170,-104,47,4376
1924,0.941683,2000,284541579,-104,47,4376
1925,0.942090,2001,284541986,-107,37,4358
1926,0.942499,2002,284542395,-107,37,4358
1927,0.942895,2003,284542791,-108,54,4344
1928,0.943302,2004,284543198,-108,54,4344
1929,0.943704,2005,284543600,-118,77,4348
1930,0.944124,2006,284544020,-118,77,4348
1931,0.944520,2007,284544416,-118,77,4348
1932,0.944921,2008,284544817,-122,47,4352
1933,0.945331,2009,284545227,-122,47,4352
1934,0.945739,2010,284545635,-100,28,4358
1935,0.946137,2011,284546033,-100,28,4358
1936,0.946539,2012,284546435,-100,28,4358
1937,0.946942,2013,284546838,-65,76,4361
1938,0.947351,2014,284547247,-65,76,4361
1939,0.947745,2015,284547641,-79,68,4385
1940,0.948142,2016,284548038,-79,68,4385
1941,0.948532,2017,284548428,-79,68,4385
1942,0.948946,2018,284548842,-92,51,4378
1943,0.949348,2019,284549244,-92,51,4378
1944,0.949749,2020,284549645,-105,64,4365
1945,0.950154,2021,284550050,-105,64,4365
1946,0.950558,2022,284550454,-105,64,4365
1947,0.950953,2023,284550849,-113,67,4367
1948,0.951367,2024,284551263,-113,67,4367
1949,0.951762,2025,284551658,-111,67,4368
1950,0.952167,2026,284552063,-111,67,4368
1951,0.952567,2027,284552463,-111,67,4368
1952,0.952975,2028,284552871,-102,63,4369
1953,0.953378,2029,284553274,-102,63,4369
1954,0.953787,2030,284553683,-95,63,4357
1955,0.954174,2031,284554070,-95,63,4357
1956,0.954582,2032,284554478,-95,63,4357
1957,0.954992,2033,284554888,-84,50,4341
1958,0.955405,2034,284555301,-84,50,4341
1959,0.955807,2035,284555703,-82,47,4347
1960,0.956200,2036,284556096,-82,47,4347
1961,0.956613,2037,284556509,-82,47,4347
1962,0.957019,2038,284556915,-87,51,4367
1963,0.957426,2039,284557322,-87,51,4367
1964,0.957834,2040,284557730,-84,48,4369
1965,0.958225,2041,284558121,-84,48,4369
1966,0.958637,2042,284558533,-84,48,4369
1967,0.959039,2043,284558935,-83,59,4371
1968,0.959451,2044,284559347,-83,59,4371
1969,0.959854,2045,284559750,-81,78,4367
1970,0.960249,2046,284560145,-81,78,4367
1971,0.960659,2047,284560555,-81,78,4367
1972,0.961073,2048,284560969,-87,74,4382
1973,0.961469,2049,284561365,-87,74,4382
1974,0.961876,2050,284561772,-83,58,4389
1975,0.962279,2051,284562175,-83,58,4389
1976,0.962692,2052,284562588,-83,58,4389
1977,0.963100,2053,284562996,-88,63,4374
1978,0.963507,2054,284563403,-88,63,4374
1979,0.963910,2055,284563806,-98,51,4364
1980,0.964313,2056,284564209,-98,51,4364
1981,0.964706,2057,284564602,-89,36,4379
1982,0.965112,2058,284565008,-89,36,4379
1983,0.965501,2059,284565397,-89,36,4379
1984,0.965909,2060,284565805,-71,43,4378
1985,0.966319,2061,284566215,-71,43,4378
1986,0.966720,2062,284566616,-74,32,4358
1987,0.967133,2063,284567029,-74,32,4358
1988,0.967536,2064,284567432,-74,32,4358
1989,0.967932,2065,284567828,-108,43,4383
1990,0.968336,2066,284568232,-108,43,4383
1991,0.968733,2067,284568629,-120,67,4409
1992,0.969144,2068,284569040,-120,67,4409
1993,0.969541,2069,284569437,-120,67,4409
1994,0.969943,2070,284569839,-106,59,4399
1995,0.970346,2071,284570242,-106,59,4399
1996,0.970753,2072,284570649,-90,30,4402
1997,0.971161,2073,284571057,-90,30,4402
1998,0.971557,2074,284571453,-90,30,4402
1999,0.971959,2075,284571855,-86,30,4353
2000,0.972367,2076,284572263,-86,30,4353
2001,0.972770,2077,284572666,-116,43,4322
2002,0.973173,2078,284573069,-116,43,4322
2003,0.973575,2079,284573471,-116,43,4322
2004,0.973983,2080,284573879,-110,59,4380
2005,0.974386,2081,284574282,-110,59,4380
2006,0.974794,2082,284574690,-72,73,4389
2007,0.975189,2083,284575085,-72,73,4389
2008,0.975594,2084,284575490,-72,73,4389
2009,0.975996,2085,284575892,-69,66,4392
2010,0.976407,2086,284576303,-69,66,4392
2011,0.976804,2087,284576700,-78,81,4389
2012,0.977203,2088,284577099,-78,81,4389
2013,0.977615,2089,284577511,-78,81,4389
2014,0.978016,2090,284577912,-86,74,4352
2015,0.978423,2091,284578319,-86,74,4352
2016,0.978831,2092,284578727,-98,67,4356
2017,0.979229,2093,284579125,-98,67,4356
2018,0.979638,2094,284579534,-98,67,4356
2019,0.980033,2095,284579929,-99,64,4353
2020,0.980444,2096,284580340,-99,64,4353
2021,0.980848,2097,284580744,-96,53,4334
2022,0.981243,2098,284581139,-96,53,4334
2023,0.981637,2099,284581533,-96,53,4334
2024,0.982045,2100,284581941,-81,56,4360
2025,0.982452,2101,284582348,-81,56,4360
2026,0.982860,2102,284582756,-98,59,4388
2027,0.983250,2103,284583146,-98,59,4388
2028,0.983664,2104,284583560,-98,59,4388
2029,0.984064,2105,284583960,-130,75,4384
2030,0.984466,2106,284584362,-130,75,4384
2031,0.984876,2107,284584772,-103,71,4379
2032,0.985278,2108,284585174,-103,71,4379
2033,0.985675,2109,284585571,-103,71,4379
2034,0.986095,2110,284585991,-84,66,4370
2035,0.986498,2111,284586394,-84,66,4370
2036,0.986906,2112,284586802,-92,74,4345
2037,0.987309,2113,284587205,-92,74,4345
2038,0.987717,2114,284587613,-91,71,4372
2039,0.988123,2115,284588019,-91,71,4372
2040,0.988519,2116,284588415,-91,71,4372
2041,0.988922,2117,284588818,-100,69,4424
2042,0.989331,2118,284589227,-100,69,4424
2043,0.989733,2119,284589629,-98,57,4386
2044,0.990142,2120,284590038,-98,57,4386
2045,0.990532,2121,284590428,-98,57,4386
2046,0.990948,2122,284590844,-92,44,4338
2047,0.991343,2123,284591239,-92,44,4338
2048,0.991751,2124,284591647,-124,60,4341
2049,0.992150,2125,284592046,-124,60,4341
2050,0.992547,2126,284592443,-124,60,4341
2051,0.992944,2127,284592840,-117,73,4347
2052,0.993347,2128,284593243,-117,73,4347
2053,0.993742,2129,284593638,-91,65,4383
2054,0.994151,2130,284594047,-91,65,4383
2055,0.994540,2131,284594436,-91,65,4383
2056,0.994943,2132,284594839,-97,60,4401
2057,0.995339,2133,284595235,-97,60,4401
2058,0.995742,2134,284595638,-83,45,4380
2059,0.996143,2135,284596039,-83,45,4380
2060,0.996539,2136,284596435,-83,45,4380
2061,0.996937,2137,284596833,-77,19,4379
2062,0.997338,2138,284597234,-77,19,4379
2063,0.997742,2139,284597638,-81,31,4393
2064,0.998147,2140,284598043,-81,31,4393
2065,0.998537,2141,284598433,-81,31,4393
2066,0.998951,2142,284598847,-79,60,4371
2067,0.999346,2143,284599242,-79,60,4371
2068,0.999749,2144,284599645,-103,62,4373
2069,1.000154,2145,284600050,-103,62,4373
2070,1.000550,2146,284600446,-103,62,4373
2071,1.000959,2147,284600855,-104,70,4378
2072,1.001357,2148,284601253,-104,70,4378
2073,1.001764,2149,284601660,-97,65,4361
2074,1.002162,2150,284602058,-97,65,4361
2075,1.002569,2151,284602465,-97,65,4361
2076,1.002970,2152,284602866,-109,54,4386
2077,1.003378,2153,284603274,-109,54,4386
2078,1.003774,2154,284603670,-106,56,4389
2079,1.004176,2155,284604072,-106,56,4389
2080,1.004575,2156,284604471,-106,56,4389
2081,1.004985,2157,284604881,-109,67,4347
2082,1.005382,2158,284605278,-109,67,4347
2083,1.005791,2159,284605687,-120,62,4361
2084,1.006179,2160,284606075,-120,62,4361
2085,1.006585,2161,284606481,-120,62,4361
2086,1.006988,2162,284606884,-109,46,4375
2087,1.007400,2163,284607296,-109,46,4375
2088,1.007789,2164,284607685,-96,48,4380
2089,1.008164,2165,284608060,-96,48,4380
2090,1.008533,2166,284608429,-96,48,4380
2091,1.008902,2167,284608798,-102,42,4407
2092,1.009271,2168,284609167,-102,42,4407
2093,1.009640,2169,284609536,-102,42,4407
2094,1.010009,2170,284609905,-101,54,4365
2095,1.010383,2171,284610279,-101,54,4365
2096,1.010752,2172,284610648,-107,57,4360
2097,1.100428,2173,284700324,-84,86,4415
2098,1.100835,2174,284700731,-93,77,4393
2099,1.101227,2175,284701123,-93,77,4393
2100,1.101625,2176,284701521,-93,77,4393
2101,1.102027,2177,284701923,-111,84,4378
2102,1.102438,2178,284702334,-111,84,4378
2103,1.102840,2179,284702736,-119,99,4376
2104,1.103243,2180,284703139,-119,99,4376
2105,1.103640,2181,284703536,-119,99,4376
2106,1.104043,2182,284703939,-123,76,4372
2107,1.104449,2183,284704345,-123,76,4372
2108,1.104857,2184,284704753,-119,57,4360
2109,1.105254,2185,284705150,-119,57,4360
2110,1.105658,2186,284705554,-119,57,4360
2111,1.106065,2187,284705961,-99,57,4351
2112,1.106472,2188,284706368,-99,57,4351
2113,1.106874,2189,284706770,-71,24,4383
2114,1.107283,2190,284707179,-71,24,4383
2115,1.107681,2191,284707577,-75,35,4365
2116,1.108091,2192,284707987,-75,35,4365
2117,1.108488,2193,284708384,-75,35,4365
2118,1.108896,2194,284708792,-92,52,4352
2119,1.109297,2195,284709193,-92,52,4352
2120,1.109712,2196,284709608,-72,40,4359
2121,1.110112,2197,284710008,-72,40,4359
2122,1.110515,2198,284710411,-72,40,4359
2123,1.110918,2199,284710814,-71,56,4377
2124,1.111325,2200,284711221,-71,56,4377
2125,1.111728,2201,284711624,-103,52,4403
2126,1.112140,2202,284712036,-103,52,4403
2127,1.112537,2203,284712433,-103,52,4403
2128,1.112939,2204,284712835,-106,56,4397
2129,1.113341,2205,284713237,-106,56,4397
2130,1.113756,2206,284713652,-93,54,4358
2131,1.114154,2207,284714050,-93,54,4358
2132,1.114557,2208,284714453,-93,54,4358
2133,1.114952,2209,284714848,-109,51,4336
2134,1.115361,2210,284715257,-109,51,4336
2135,1.115757,2211,284715653,-127,59,4360
2136,1.116161,2212,284716057,-127,59,4360
2137,1.116551,2213,284716447,-127,59,4360
2138,1.116970,2214,284716866,-109,52,4361
2139,1.117365,2215,284717261,-109,52,4361
2140,1.117780,2216,284717676,-98,48,4361
2141,1.118170,2217,284718066,-98,48,4361
2142,1.118584,2218,284718480,-98,48,4361
2143,1.118979,2219,284718875,-100,63,4338
2144,1.119388,2220,284719284,-100,63,4338
2145,1.119789,2221,284719685,-100,54,4338
2146,1.120189,2222,284720085,-100,54,4338
2147,1.120598,2223,284720494,-100,54,4338
2148,1.120999,2224,284720895,-99,41,4363
2149,1.121406,2225,284721302,-99,41,4363
2150,1.121815,2226,284721711,-80,51,4367
2151,1.122202,2227,284722098,-80,51,4367
2152,1.122621,2228,284722517,-80,51,4367
2153,1.123016,2229,284722912,-85,56,4370
2154,1.123428,2230,284723324,-85,56,4370
2155,1.123825,2231,284723721,-92,60,4370
2156,1.124222,2232,284724118,-92,60,4370
2157,1.124615,2233,284724511,-92,60,4370
2158,1.125016,2234,284724912,-80,51,4387
2159,1.125423,2235,284725319,-80,51,4387
2160,1.125825,2236,284725721,-81,56,4380
2161,1.126208,2237,284726104,-81,56,4380
2162,1.126619,2238,284726515,-81,56,4380
2163,1.127016,2239,284726912,-87,42,4352
2164,1.127420,2240,284727316,-87,42,4352
2165,1.127819,2241,284727715,-86,45,4356
2166,1.128208,2242,284728104,-86,45,4356
2167,1.128606,2243,284728502,-86,45,4356
2168,1.129009,2244,284728905,-73,65,4358
2169,1.129416,2245,284729312,-73,65,4358
2170,1.129817,2246,284729713,-83,69,4358
2171,1.130207,2247,284730103,-83,69,4358
2172,1.130614,2248,284730510,-83,69,4358
2173,1.131017,2249,284730913,-110,69,4373
2174,1.131429,2250,284731325,-110,69,4373
2175,1.131826,2251,284731722,-93,71,4347
2176,1.132223,2252,284732119,-93,71,4347
2177,1.132615,2253,284732511,-93,71,4347
2178,1.133018,2254,284732914,-79,69,4338
2179,1.133424,2255,284733320,-79,69,4338
2180,1.133834,2256,284733730,-89,50,4369
2181,1.134231,2257,284734127,-89,50,4369
2182,1.134634,2258,284734530,-89,50,4369
2183,1.135030,2259,284734926,-100,44,4359
2184,1.135443,2260,284735339,-100,44,4359
2185,1.135841,2261,284735737,-77,50,4349
2186,1.136238,2262,284736134,-77,50,4349
2187,1.136636,2263,284736532,-77,50,4349
2188,1.137038,2264,284736934,-59,76,4357
2189,1.137438,2265,284737334,-59,76,4357
2190,1.137847,2266,284737743,-73,93,4377
2191,1.138243,2267,284738139,-73,93,4377
2192,1.138647,2268,284738543,-73,93,4377
2193,1.139055,2269,284738951,-68,87,4374
2194,1.139462,2270,284739358,-68,87,4374
2195,1.139866,2271,284739762,-56,77,4375
2196,1.140273,2272,284740169,-56,77,4375
2197,1.140675,2273,284740571,-76,70,4366
2198,1.141084,2274,284740980,-76,70,4366
2199,1.141480,2275,284741376,-76,70,4366
2200,1.141889,2276,284741785,-109,54,4334
2201,1.142285,2277,284742181,-109,54,4334
2202,1.142700,2278,284742596,-102,53,4347
2203,1.143097,2279,284742993,-102,53,4347
2204,1.143507,2280,284743403,-102,53,4347
2205,1.143910,2281,284743806,-103,54,4370
2206,1.144319,2282,284744215,-103,54,4370
2207,1.144714,2283,284744610,-92,59,4369
2208,1.145134,2284,284745030,-92,59,4369
2209,1.145531,2285,284745427,-92,59,4369
2210,1.145940,2286,284745836,-80,65,4334
2211,1.146342,2287,284746238,-80,65,4334
2212,1.146750,2288,284746646,-96,59,4332
2213,1.147149,2289,284747045,-96,59,4332
2214,1.147546,2290,284747442,-96,59,4332
2215,1.147948,2291,284747844,-86,58,4383
2216,1.148334,2292,284748230,-86,58,4383
2217,1.148731,2293,284748627,-63,51,4407
2218,1.149139,2294,284749035,-63,51,4407
2219,1.149536,2295,284749432,-63,51,4407
2220,1.149945,2296,284749841,-64,57,4374
2221,1.150347,2297,284750243,-64,57,4374
2222,1.150749,2298,284750645,-80,60,4365
2223,1.151155,2299,284751051,-80,60,4365
2224,1.151551,2300,284751447,-80,60,4365
2225,1.151968,2301,284751864,-82,52,4377
2226,1.152363,2302,284752259,-82,52,4377
2227,1.152772,2303,284752668,-82,43,4374
2228,1.153169,2304,284753065,-82,43,4374
2229,1.153578,2305,284753474,-82,43,4374
2230,1.153974,2306,284753870,-88,55,4372
2231,1.154382,2307,284754278,-88,55,4372
2232,1.154778,2308,284754674,-100,71,4361
2233,1.155182,2309,284755078,-100,71,4361
2234,1.155583,2310,284755479,-100,71,4361
2235,1.155984,2311,284755880,-92,74,4357
2236,1.156379,2312,284756275,-92,74,4357
2237,1.156790,2313,284756686,-90,72,4344
2238,1.157183,2314,284757079,-90,72,4344
2239,1.157597,2315,284757493,-90,72,4344
2240,1.157999,2316,284757895,-96,43,4371
2241,1.158405,2317,284758301,-96,43,4371
2242,1.158815,2318,284758711,-90,26,4399
2243,1.159203,2319,284759099,-90,26,4399
2244,1.159610,2320,284759506,-90,26,4399
2245,1.160016,2321,284759912,-95,31,4377
2246,1.160414,2322,284760310,-95,31,4377
2247,1.160822,2323,284760718,-74,43,4356
2248,1.161210,2324,284761106,-74,43,4356
2249,1.161618,2325,284761514,-74,43,4356
2250,1.162014,2326,284761910,-62,66,4383
2251,1.162427,2327,284762323,-62,66,4383
2252,1.162829,2328,284762725,-77,70,4413
2253,1.163228,2329,284763124,-77,70,4413
2254,1.163620,2330,284763516,-77,70,4413
2255,1.164028,2331,284763924,-95,62,4382
2256,1.164429,2332,284764325,-95,62,4382
2257,1.164824,2333,284764720,-101,49,4380
2258,1.165205,2334,284765101,-101,49,4380
2259,1.165603,2335,284765499,-101,49,4380
2260,1.165993,2336,284765889,-100,38,4397
2261,1.166405,2337,284766301,-100,38,4397
2262,1.166807,2338,284766703,-105,35,4384
2263,1.167202,2339,284767098,-105,35,4384
2264,1.167605,2340,284767501,-105,35,4384
2265,1.168007,2341,284767903,-84,49,4367
2266,1.168409,2342,284768305,-84,49,4367
2267,1.168818,2343,284768714,-95,69,4352
2268,1.169200,2344,284769096,-95,69,4352
2269,1.169609,2345,284769505,-95,69,4352
2270,1.170011,2346,284769907,-108,45,4349
2271,1.170425,2347,284770321,-108,45,4349
2272,1.170823,2348,284770719,-81,41,4365
2273,1.171220,2349,284771116,-81,41,4365
2274,1.171622,2350,284771518,-81,41,4365
2275,1.172023,2351,284771919,-75,60,4360
2276,1.172430,2352,284772326,-75,60,4360
2277,1.172844,2353,284772740,-73,47,4349
2278,1.173235,2354,284773131,-73,47,4349
2279,1.173638,2355,284773534,-73,47,4349
2280,1.174034,2356,284773930,-72,47,4357
2281,1.174446,2357,284774342,-72,47,4357
2282,1.174843,2358,284774739,-79,65,4370
2283,1.175244,2359,284775140,-79,65,4370
2284,1.175643,2360,284775539,-79,65,4370
2285,1.176043,2361,284775939,-99,68,4381
2286,1.176448,2362,284776344,-99,68,4381
2287,1.176857,2363,284776753,-108,49,4393
2288,1.177252,2364,284777148,-108,49,4393
2289,1.177657,2365,284777553,-108,49,4393
2290,1.178065,2366,284777961,-97,45,4395
2291,1.178473,2367,284778369,-97,45,4395
2292,1.178876,2368,284778772,-80,36,4353
2293,1.179285,2369,284779181,-80,36,4353
2294,1.179681,2370,284779577,-99,34,4356
2295,1.180097,2371,284779993,-99,34,4356
2296,1.180492,2372,284780388,-99,34,4356
2297,1.180906,2373,284780802,-102,55,4373
2298,1.181302,2374,284781198,-102,55,4373
2299,1.181694,2375,284781590,-85,59,4398
2300,1.182093,2376,284781989,-85,59,4398
2301,1.182496,2377,284782392,-85,59,4398
2302,1.182892,2378,284782788,-89,64,4418
2303,1.183301,2379,284783197,-89,64,4418
2304,1.183698,2380,284783594,-82,55,4392
2305,1.184110,2381,284784006,-82,55,4392
2306,1.184505,2382,284784401,-82,55,4392
2307,1.184915,2383,284784811,-93,39,4395
2308,1.185317,2384,284785213,-93,39,4395
2309,1.185725,2385,284785621,-91,40,4414
2310,1.186139,2386,284786035,-91,40,4414
2311,1.186541,2387,284786437,-91,40,4414
2312,1.186929,2388,284786825,-79,36,4394
2313,1.187339,2389,284787235,-79,36,4394
2314,1.187715,2390,284787611,-76,47,4381
2315,1.188109,2391,284788005,-76,47,4381
2316,1.188519,2392,284788415,-76,47,4381
2317,1.188922,2393,284788818,-80,57,4387
2318,1.189330,2394,284789226,-80,57,4387
2319,1.189733,2395,284789629,-112,60,4397
2320,1.190146,2396,284790042,-112,60,4397
2321,1.190535,2397,284790431,-112,60,4397
2322,1.190951,2398,284790847,-105,59,4376
2323,1.191354,2399,284791250,-105,59,4376
2324,1.191754,2400,284791650,-89,51,4338
2325,1.192162,2401,284792058,-89,51,4338
2326,1.192558,2402,284792454,-89,51,4338
2327,1.192967,2403,284792863,-95,48,4354
2328,1.193368,2404,284793264,-95,48,4354
2329,1.193770,2405,284793666,-85,18,4364
2330,1.194173,2406,284794069,-85,18,4364
2331,1.194582,2407,284794478,-85,18,4364
2332,1.194990,2408,284794886,-84,15,4379
2333,1.195377,2409,284795273,-84,15,4379
2334,1.195788,2410,284795684,-100,42,4371
2335,1.196179,2411,284796075,-100,42,4371
2336,1.196566,2412,284796462,-100,42,4371
2337,1.196957,2413,284796853,-114,55,4343
2338,1.197360,2414,284797256,-114,55,4343
2339,1.197762,2415,284797658,-101,52,4358
2340,1.198165,2416,284798061,-101,52,4358
2341,1.198567,2417,284798463,-101,52,4358
2342,1.198980,2418,284798876,-85,60,4362
2343,1.199376,2419,284799272,-85,60,4362
2344,1.199785,2420,284799681,-76,65,4377
2345,1.200179,2421,284800075,-76,65,4377
2346,1.200585,2422,284800481,-76,65,4377
2347,1.200994,2423,284800890,-80,53,4406
2348,1.201400,2424,284801296,-80,53,4406
2349,1.201802,2425,284801698,-105,52,4363
2350,1.202203,2426,284802099,-105,52,4363
2351,1.202604,2427,284802500,-105,52,4363
2352,1.203008,2428,284802904,-107,50,4318
2353,1.203414,2429,284803310,-107,50,4318
2354,1.203830,2430,284803726,-91,41,4341
2355,1.204211,2431,284804107,-91,41,4341
2356,1.204618,2432,284804514,-91,41,4341
2357,1.205020,2433,284804916,-78,33,4360
2358,1.205432,2434,284805328,-78,33,4360
2359,1.205829,2435,284805725,-89,54,4373
2360,1.206231,2436,284806127,-89,54,4373
2361,1.206632,2437,284806528,-89,54,4373
2362,1.207027,2438,284806923,-84,74,4383
2363,1.207433,2439,284807329,-84,74,4383
2364,1.207841,2440,284807737,-79,75,4370
2365,1.208238,2441,284808134,-79,75,4370
2366,1.208634,2442,284808530,-79,75,4370
2367,1.209036,2443,284808932,-93,71,4351
2368,1.209454,2444,284809350,-93,71,4351
2369,1.209850,2445,284809746,-92,59,4337
2370,1.210253,2446,284810149,-92,59,4337
2371,1.210649,2447,284810545,-92,59,4337
2372,1.211063,2448,284810959,-91,43,4358
2373,1.211458,2449,284811354,-91,43,4358
2374,1.211867,2450,284811763,-89,42,4377
2375,1.212258,2451,284812154,-89,42,4377
2376,1.212667,2452,284812563,-86,58,4365
2377,1.213080,2453,284812976,-86,58,4365
2378,1.213489,2454,284813385,-86,58,4365
2379,1.213892,2455,284813788,-71,50,4376
2380,1.214294,2456,284814190,-71,50,4376
2381,1.214696,2457,284814592,-82,51,4381
2382,1.215102,2458,284814998,-82,51,4381
2383,1.215498,2459,284815394,-82,51,4381
2384,1.215913,2460,284815809,-80,67,4343
2385,1.216308,2461,284816204,-80,67,4343
2386,1.216715,2462,284816611,-65,60,4338
2387,1.217123,2463,284817019,-65,60,4338
2388,1.217526,2464,284817422,-65,60,4338
2389,1.217929,2465,284817825,-75,64,4346
2390,1.218336,2466,284818232,-75,64,4346
2391,1.218738,2467,284818634,-96,68,4366
2392,1.219150,2468,284819046,-96,68,4366
2393,1.219540,2469,284819436,-96,68,4366
2394,1.219956,2470,284819852,-88,64,4365
2395,1.220359,2471,284820255,-88,64,4365
2396,1.220767,2472,284820663,-86,46,4321
2397,1.221164,2473,284821060,-86,46,4321
2398,1.221576,2474,284821472,-86,46,4321
2399,1.221979,2475,284821875,-92,37,4325
2400,1.222387,2476,284822283,-92,37,4325
2401,1.222782,2477,284822678,-76,50,4351
2402,1.223183,2478,284823079,-76,50,4351
2403,1.223590,2479,284823486,-76,50,4351
2404,1.223997,2480,284823893,-68,45,4355
2405,1.224398,2481,284824294,-68,45,4355
2406,1.224812,2482,284824708,-77,40,4366
2407,1.225200,2483,284825096,-77,40,4366
2408,1.225614,2484,284825510,-77,40,4366
2409,1.226008,2485,284825904,-87,47,4368
2410,1.226427,2486,284826323,-87,47,4368
2411,1.226830,2487,284826726,-92,56,4375
2412,1.227225,2488,284827121,-92,56,4375
2413,1.227623,2489,284827519,-92,56,4375
2414,1.228036,2490,284827932,-66,51,4353
2415,1.228443,2491,284828339,-66,51,4353
2416,1.228850,2492,284828746,-86,47,4349
2417,1.229239,2493,284829135,-86,47,4349
2418,1.229642,2494,284829538,-86,47,4349
2419,1.230056,2495,284829952,-115,49,4394
2420,1.230463,2496,284830359,-115,49,4394
2421,1.230867,2497,284830763,-91,34,4414
2422,1.231262,2498,284831158,-91,34,4414
2423,1.231672,2499,284831568,-69,16,4374
2424,1.232085,2500,284831981,-69,16,4374
2425,1.232480,2501,284832376,-69,16,4374
2426,1.232894,2502,284832790,-64,28,4363
2427,1.233290,2503,284833186,-64,28,4363
2428,1.233705,2504,284833601,-97,44,4384
2429,1.234110,2505,284834006,-97,44,4384
2430,1.234513,2506,284834409,-97,44,4384
2431,1.234909,2507,284834805,-109,52,4381
2432,1.235311,2508,284835207,-109,52,4381
2433,1.235713,2509,284835609,-87,54,4384
2434,1.236131,2510,284836027,-87,54,4384
2435,1.236528,2511,284836424,-87,54,4384
2436,1.236936,2512,284836832,-106,43,4382
2437,1.237331,2513,284837227,-106,43,4382
2438,1.237745,2514,284837641,-115,39,4385
2439,1.238145,2515,284838041,-115,39,4385
2440,1.238541,2516,284838437,-115,39,4385
2441,1.238951,2517,284838847,-79,39,4350
2442,1.239358,2518,284839254,-79,39,4350
2443,1.239760,2519,284839656,-90,60,4328
2444,1.240165,2520,284840061,-90,60,4328
2445,1.240561,2521,284840457,-90,60,4328
2446,1.240958,2522,284840854,-78,64,4333
2447,1.241349,2523,284841245,-78,64,4333
2448,1.241751,2524,284841647,-97,55,4348
2449,1.242135,2525,284842031,-97,55,4348
2450,1.242530,2526,284842426,-97,55,4348
2451,1.242940,2527,284842836,-125,61,4345
2452,1.243349,2528,284843245,-125,61,4345
2453,1.243745,2529,284843641,-98,69,4365
2454,1.244155,2530,284844051,-98,69,4365
2455,1.244545,2531,284844441,-98,69,4365
2456,1.244953,2532,284844849,-95,64,4383
2457,1.245355,2533,284845251,-95,64,4383
2458,1.245763,2534,284845659,-101,54,4373
2459,1.246161,2535,284846057,-101,54,4373
2460,1.246569,2536,284846465,-101,54,4373
2461,1.246971,2537,284846867,-79,74,4372
2462,1.247378,2538,284847274,-79,74,4372
2463,1.247788,2539,284847684,-66,70,4370
2464,1.248181,2540,284848077,-66,70,4370
2465,1.248579,2541,284848475,-66,70,4370
2466,1.248988,2542,284848884,-80,58,4390
2467,1.249384,2543,284849280,-80,58,4390
2468,1.249793,2544,284849689,-102,67,4408
2469,1.250188,2545,284850084,-102,67,4408
2470,1.250593,2546,284850489,-102,67,4408
2471,1.250990,2547,284850886,-100,51,4381
2472,1.251404,2548,284851300,-100,51,4381
2473,1.251807,2549,284851703,-90,46,4374
2474,1.252200,2550,284852096,-90,46,4374
2475,1.252599,2551,284852495,-90,46,4374
2476,1.253007,2552,284852903,-99,63,4380
2477,1.253413,2553,284853309,-99,63,4380
2478,1.253821,2554,284853717,-99,73,4372
2479,1.254208,2555,284854104,-99,73,4372
2480,1.254624,2556,284854520,-99,73,4372
2481,1.255019,2557,284854915,-100,61,4399
2482,1.255432,2558,284855328,-100,61,4399
2483,1.255835,2559,284855731,-97,53,4391
2484,1.256232,2560,284856128,-97,53,4391
2485,1.256637,2561,284856533,-97,53,4391
2486,1.257045,2562,284856941,-82,57,4383
2487,1.257451,2563,284857347,-82,57,4383
2488,1.257853,2564,284857749,-107,45,4399
2489,1.258250,2565,284858146,-107,45,4399
2490,1.258658,2566,284858554,-107,45,4399
2491,1.259065,2567,284858961,-121,43,4389
2492,1.259473,2568,284859369,-121,43,4389
2493,1.259876,2569,284859772,-108,63,4405
2494,1.260286,2570,284860182,-108,63,4405
2495,1.260685,2571,284860581,-113,43,4422
2496,1.261101,2572,284860997,-113,43,4422
2497,1.261498,2573,284861394,-113,43,4422
2498,1.261900,2574,284861796,-109,39,4377
2499,1.262305,2575,284862201,-109,39,4377
2500,1.262713,2576,284862609,-107,58,4369
2501,1.263120,2577,284863016,-107,58,4369
2502,1.263524,2578,284863420,-107,58,4369
2503,1.263920,2579,284863816,-105,48,4376
2504,1.264334,2580,284864230,-105,48,4376
2505,1.264737,2581,284864633,-105,37,4393
2506,1.265142,2582,284865038,-105,37,4393
2507,1.265531,2583,284865427,-105,37,4393
2508,1.265947,2584,284865843,-109,23,4401
2509,1.266349,2585,284866245,-109,23,4401
2510,1.266753,2586,284866649,-99,56,4367
2511,1.267151,2587,284867047,-99,56,4367
2512,1.267546,2588,284867442,-99,56,4367
2513,1.267943,2589,284867839,-116,75,4368
2514,1.268358,2590,284868254,-116,75,4368
2515,1.268754,2591,284868650,-143,67,4358
2516,1.269153,2592,284869049,-143,67,4358
2517,1.269542,2593,284869438,-143,67,4358
2518,1.269951,2594,284869847,-138,64,4362
2519,1.270361,2595,284870257,-138,64,4362
2520,1.270769,2596,284870665,-126,69,4393
2521,1.271161,2597,284871057,-126,69,4393
2522,1.271557,2598,284871453,-126,69,4393
2523,1.271958,2599,284871854,-135,59,4399
2524,1.272368,2600,284872264,-135,59,4399
2525,1.272772,2601,284872668,-135,47,4407
2526,1.273169,2602,284873065,-135,47,4407
2527,1.273568,2603,284873464,-135,47,4407
2528,1.273978,2604,284873874,-113,51,4418
2529,1.274368,2605,284874264,-113,51,4418
2530,1.274744,2606,284874640,-88,57,4410
2531,1.275137,2607,284875033,-88,57,4410
2532,1.275530,2608,284875426,-88,57,4410
2533,1.275931,2609,284875827,-88,52,4416
2534,1.276333,2610,284876229,-88,52,4416
2535,1.276729,2611,284876625,-122,39,4432
2536,1.277147,2612,284877043,-122,39,4432
2537,1.277537,2613,284877433,-122,39,4432
2538,1.277945,2614,284877841,-120,50,4420
2539,1.278355,2615,284878251,-120,50,4420
2540,1.278764,2616,284878660,-114,65,4429
2541,1.279164,2617,284879060,-114,65,4429
2542,1.279561,2618,284879457,-114,65,4429
2543,1.279955,2619,284879851,-110,83,4422
2544,1.280356,2620,284880252,-110,83,4422
2545,1.280759,2621,284880655,-93,62,4364
2546,1.281165,2622,284881061,-93,62,4364
2547,1.281559,2623,284881455,-93,62,4364
2548,1.281959,2624,284881855,-93,43,4342
2549,1.282350,2625,284882246,-93,43,4342
2550,1.282748,2626,284882644,-93,41,4338
2551,1.283137,2627,284883033,-93,41,4338
2552,1.283513,2628,284883409,-93,41,4338
2553,1.283914,2629,284883810,-89,40,4342
2554,1.284323,2630,284884219,-89,40,4342
2555,1.284720,2631,284884616,-100,54,4363
2556,1.285134,2632,284885030,-100,54,4363
2557,1.285524,2633,284885420,-100,54,4363
2558,1.285924,2634,284885820,-111,66,4378
2559,1.286299,2635,284886195,-111,66,4378
2560,1.286692,2636,284886588,-114,68,4369
2561,1.287094,2637,284886990,-114,68,4369
2562,1.287504,2638,284887400,-114,68,4369
2563,1.287907,2639,284887803,-99,56,4372
2564,1.288314,2640,284888210,-99,56,4372
2565,1.288710,2641,284888606,-78,62,4373
2566,1.289131,2642,284889027,-78,62,4373
2567,1.289520,2643,284889416,-78,62,4373
2568,1.289936,2644,284889832,-77,64,4378
2569,1.290339,2645,284890235,-77,64,4378
2570,1.290746,2646,284890642,-81,69,4382
2571,1.291145,2647,284891041,-81,69,4382
2572,1.291541,2648,284891437,-81,69,4382
2573,1.291944,2649,284891840,-73,76,4366
2574,1.292352,2650,284892248,-73,76,4366
2575,1.292754,2651,284892650,-72,58,4388
2576,1.293167,2652,284893063,-72,58,4388
2577,1.293564,2653,284893460,-72,58,4388
2578,1.293965,2654,284893861,-81,65,4406
2579,1.294374,2655,284894270,-81,65,4406
2580,1.294782,2656,284894678,-84,66,4395
2581,1.295173,2657,284895069,-84,66,4395
2582,1.295579,2658,284895475,-84,66,4395
2583,1.295980,2659,284895876,-96,48,4357
2584,1.296396,2660,284896292,-96,48,4357
2585,1.296799,2661,284896695,-93,40,4336
2586,1.297193,2662,284897089,-93,40,4336
2587,1.297591,2663,284897487,-93,40,4336
2588,1.297994,2664,284897890,-77,41,4346
2589,1.298401,2665,284898297,-77,41,4346
2590,1.298810,2666,284898706,-79,44,4375
2591,1.299199,2667,284899095,-79,44,4375
2592,1.299607,2668,284899503,-79,44,4375
2593,1.300010,2669,284899906,-72,44,4377
2594,1.300423,2670,284900319,-72,44,4377
2595,1.300824,2671,284900720,-81,79,4369
2596,1.301229,2672,284901125,-81,79,4369
2597,1.301635,2673,284901531,-81,79,4369
2598,1.302043,2674,284901939,-99,81,4371
2599,1.302443,2675,284902339,-99,81,4371
2600,1.302851,2676,284902747,-107,63,4399
2601,1.303248,2677,284903144,-107,63,4399
2602,1.303658,2678,284903554,-107,63,4399
2603,1.304066,2679,284903962,-96,62,4406
2604,1.304467,2680,284904363,-96,62,4406
2605,1.304864,2681,284904760,-79,47,4382
2606,1.305273,2682,284905169,-79,47,4382
2607,1.305670,2683,284905566,-73,52,4378
2608,1.306090,2684,284905986,-73,52,4378
2609,1.306486,2685,284906382,-73,52,4378
2610,1.306901,2686,284906797,-76,61,4350
2611,1.307296,2687,284907192,-76,61,4350
2612,1.307703,2688,284907599,-73,50,4360
2613,1.308116,2689,284908012,-73,50,4360
2614,1.308518,2690,284908414,-73,50,4360
2615,1.308913,2691,284908809,-75,49,4367
2616,1.309327,2692,284909223,-75,49,4367
2617,1.309722,2693,284909618,-90,60,4358
2618,1.310140,2694,284910036,-90,60,4358
2619,1.310530,2695,284910426,-90,60,4358
2620,1.310933,2696,284910829,-66,62,4356
2621,1.311331,2697,284911227,-66,62,4356
2622,1.311732,2698,284911628,-34,45,4341
2623,1.312138,2699,284912034,-34,45,4341
2624,1.312534,2700,284912430,-34,45,4341
2625,1.312931,2701,284912827,-59,35,4330
2626,1.313334,2702,284913230,-59,35,4330
2627,1.313737,2703,284913633,-88,41,4371
2628,1.314149,2704,284914045,-88,41,4371
2629,1.314538,2705,284914434,-88,41,4371
2630,1.314946,2706,284914842,-77,55,4372
2631,1.315347,2707,284915243,-77,55,4372
2632,1.315756,2708,284915652,-70,60,4333
2633,1.316162,2709,284916058,-70,60,4333
2634,1.316567,2710,284916463,-70,60,4333
2635,1.316970,2711,284916866,-78,56,4369
2636,1.317363,2712,284917259,-78,56,4369
2637,1.317768,2713,284917664,-95,64,4403
2638,1.318173,2714,284918069,-95,64,4403
2639,1.318571,2715,284918467,-95,64,4403
2640,1.318972,2716,284918868,-97,47,4383
2641,1.319381,2717,284919277,-97,47,4383
2642,1.319789,2718,284919685,-103,57,4368
2643,1.320179,2719,284920075,-103,57,4368
2644,1.320585,2720,284920481,-103,57,4368
2645,1.320982,2721,284920878,-87,58,4356
2646,1.321389,2722,284921285,-87,58,4356
2647,1.321791,2723,284921687,-83,45,4353
2648,1.322192,2724,284922088,-83,45,4353
2649,1.322598,2725,284922494,-83,45,4353
2650,1.323005,2726,284922901,-90,45,4374
2651,1.323405,2727,284923301,-90,45,4374
2652,1.323813,2728,284923709,-73,49,4374
2653,1.324207,2729,284924103,-73,49,4374
2654,1.324617,2730,284924513,-73,49,4374
2655,1.325019,2731,284924915,-78,70,4384
2656,1.325430,2732,284925326,-78,70,4384
2657,1.325841,2733,284925737,-84,71,4380
2658,1.326237,2734,284926133,-84,71,4380
2659,1.326634,2735,284926530,-84,71,4380
2660,1.327053,2736,284926949,-87,67,4372
2661,1.327448,2737,284927344,-87,67,4372
2662,1.327856,2738,284927752,-76,61,4383
2663,1.328253,2739,284928149,-76,61,4383
2664,1.328667,2740,284928563,-72,74,4374
2665,1.329068,2741,284928964,-72,74,4374
2666,1.329470,2742,284929366,-72,74,4374
2667,1.329873,2743,284929769,-69,67,4357
2668,1.330274,2744,284930170,-69,67,4357
2669,1.330680,2745,284930576,-60,51,4364
2670,1.331094,2746,284930990,-60,51,4364
2671,1.331489,2747,284931385,-60,51,4364
2672,1.331892,2748,284931788,-80,79,4376
2673,1.332294,2749,284932190,-80,79,4376
2674,1.332697,2750,284932593,-92,60,4344
2675,1.333099,2751,284932995,-92,60,4344
2676,1.333502,2752,284933398,-92,60,4344
2677,1.333904,2753,284933800,-82,57,4333
2678,1.334313,2754,284934209,-82,57,4333
2679,1.334715,2755,284934611,-108,81,4340
2680,1.335135,2756,284935031,-108,81,4340
2681,1.335525,2757,284935421,-108,81,4340
2682,1.335933,2758,284935829,-120,68,4337
2683,1.336336,2759,284936232,-120,68,4337
2684,1.336744,2760,284936640,-106,61,4345
2685,1.337150,2761,284937046,-106,61,4345
2686,1.337545,2762,284937441,-106,61,4345
2687,1.337949,2763,284937845,-91,67,4363
2688,1.338357,2764,284938253,-91,67,4363
2689,1.338760,2765,284938656,-79,57,4393
2690,1.339164,2766,284939060,-79,57,4393
2691,1.339554,2767,284939450,-79,57,4393
2692,1.339962,2768,284939858,-92,36,4378
2693,1.340364,2769,284940260,-92,36,4378
2694,1.340764,2770,284940660,-100,65,4345
2695,1.341160,2771,284941056,-100,65,4345
2696,1.341556,2772,284941452,-100,65,4345
2697,1.341958,2773,284941854,-102,68,4331
2698,1.342366,2774,284942262,-102,68,4331
2699,1.342768,2775,284942664,-103,44,4358
2700,1.343171,2776,284943067,-103,44,4358
2701,1.343572,2777,284943468,-103,44,4358
2702,1.343980,2778,284943876,-107,57,4370
2703,1.344377,2779,284944273,-107,57,4370
2704,1.344791,2780,284944687,-102,57,4367
2705,1.345179,2781,284945075,-102,57,4367
2706,1.345585,2782,284945481,-102,57,4367
2707,1.345995,2783,284945891,-85,65,4412
2708,1.346408,2784,284946304,-85,65,4412
2709,1.346809,2785,284946705,-65,72,4400
2710,1.347203,2786,284947099,-65,72,4400
2711,1.347604,2787,284947500,-65,72,4400
2712,1.348011,2788,284947907,-93,67,4331
2713,1.348408,2789,284948304,-93,67,4331
2714,1.348816,2790,284948712,-116,54,4341
2715,1.349202,2791,284949098,-116,54,4341
2716,1.349621,2792,284949517,-116,54,4341
2717,1.350024,2793,284949920,-90,52,4368
2718,1.350438,2794,284950334,-90,52,4368
2719,1.350840,2795,284950736,-88,65,4379
2720,1.351236,2796,284951132,-88,65,4379
2721,1.351643,2797,284951539,-88,65,4379
2722,1.352054,2798,284951950,-104,58,4403
2723,1.352457,2799,284952353,-104,58,4403
2724,1.352865,2800,284952761,-94,51,4407
2725,1.353255,2801,284953151,-94,51,4407
2726,1.353670,2802,284953566,-74,49,4400
2727,1.354078,2803,284953974,-74,49,4400
2728,1.354486,2804,284954382,-74,49,4400
2729,1.354888,2805,284954784,-83,62,4376
2730,1.355290,2806,284955186,-83,62,4376
2731,1.355699,2807,284955595,-80,60,4357
2732,1.356110,2808,284956006,-80,60,4357
2733,1.356513,2809,284956409,-80,60,4357
2734,1.356919,2810,284956815,-57,47,4374
2735,1.357321,2811,284957217,-57,47,4374
2736,1.357730,2812,284957626,-75,41,4371
2737,1.358137,2813,284958033,-75,41,4371
2738,1.358540,2814,284958436,-75,41,4371
2739,1.358943,2815,284958839,-89,35,4392
2740,1.359351,2816,284959247,-89,35,4392
2741,1.359747,2817,284959643,-67,52,4405
2742,1.360151,2818,284960047,-67,52,4405
2743,1.360548,2819,284960444,-67,52,4405
2744,1.360958,2820,284960854,-79,60,4392
2745,1.361354,2821,284961250,-79,60,4392
2746,1.361770,2822,284961666,-123,77,4386
2747,1.362170,2823,284962066,-123,77,4386
2748,1.362575,2824,284962471,-123,77,4386
2749,1.362970,2825,284962866,-129,78,4361
2750,1.363378,2826,284963274,-129,78,4361
2751,1.363780,2827,284963676,-119,41,4372
2752,1.364181,2828,284964077,-119,41,4372
2753,1.364583,2829,284964479,-119,41,4372
2754,1.364983,2830,284964879,0,0,0
2755,1.365262,2831,284965158,-121,35,4358
2756,1.365673,2832,284965569,-110,43,4359
2757,1.366087,2833,284965983,-110,43,4359
2758,1.366487,2834,284966383,-110,43,4359
2759,1.366890,2835,284966786,-151,66,4400
2760,1.367299,2836,284967195,-151,66,4400
2761,1.367701,2837,284967597,-178,93,4459
2762,1.368114,2838,284968010,-178,93,4459
2763,1.368510,2839,284968406,-178,93,4459
2764,1.368919,2840,284968815,-51,106,4475
2765,1.369322,2841,284969218,-51,106,4475
2766,1.369736,2842,284969632,21,88,4387
2767,1.370128,2843,284970024,21,88,4387
2768,1.370522,2844,284970418,21,88,4387
2769,1.370917,2845,284970813,60,51,4302
2770,1.371318,2846,284971214,60,51,4302
2771,1.371712,2847,284971608,118,69,4322
2772,1.372124,2848,284972020,118,69,4322
2773,1.372505,2849,284972401,118,69,4322
2774,1.372906,2850,284972802,-20,101,4316
2775,1.373315,2851,284973211,-20,101,4316
2776,1.373724,2852,284973620,-142,65,4256
2777,1.374132,2853,284974028,-142,65,4256
2778,1.374535,2854,284974431,-142,65,4256
2779,1.374938,2855,284974834,-201,16,4247
2780,1.375345,2856,284975241,-201,16,4247
2781,1.375741,2857,284975637,-178,23,4341
2782,1.376154,2858,284976050,-178,23,4341
2783,1.376544,2859,284976440,-178,23,4341
2784,1.376959,2860,284976855,-125,60,4465
2785,1.377361,2861,284977257,-125,60,4465
2786,1.377771,2862,284977667,-193,58,4391
2787,1.378170,2863,284978066,-193,58,4391
2788,1.378569,2864,284978465,-193,58,4391
2789,1.378979,2865,284978875,-172,21,4283
2790,1.379380,2866,284979276,-172,21,4283
2791,1.379782,2867,284979678,-68,30,4354
2792,1.380181,2868,284980077,-68,30,4354
2793,1.380583,2869,284980479,-68,30,4354
2794,1.380991,2870,284980887,-12,73,4443
2795,1.381390,2871,284981286,-12,73,4443
2796,1.381786,2872,284981682,-59,69,4417
2797,1.382171,2873,284982067,-59,69,4417
2798,1.382577,2874,284982473,-59,69,4417
2799,1.382986,2875,284982882,-140,47,4362
2800,1.383394,2876,284983290,-140,47,4362
2801,1.383782,2877,284983678,-145,59,4386
2802,1.384181,2878,284984077,-145,59,4386
2803,1.384575,2879,284984471,-145,59,4386
2804,1.384974,2880,284984870,-105,70,4437
2805,1.385364,2881,284985260,-105,70,4437
2806,1.385769,2882,284985665,-78,74,4407
2807,1.386163,2883,284986059,-78,74,4407
2808,1.386561,2884,284986457,-78,74,4407
2809,1.386951,2885,284986847,-92,69,4345
2810,1.387346,2886,284987242,-92,69,4345
2811,1.387745,2887,284987641,-84,62,4382
2812,1.388152,2888,284988048,-84,62,4382
2813,1.388542,2889,284988438,-84,62,4382
2814,1.388937,2890,284988833,-25,77,4430
2815,1.389336,2891,284989232,-25,77,4430
2816,1.389747,2892,284989643,6,72,4352
2817,1.390137,2893,284990033,6,72,4352
2818,1.390525,2894,284990421,6,72,4352
2819,1.390905,2895,284990801,-31,56,4260
2820,1.391317,2896,284991213,-31,56,4260
2821,1.391719,2897,284991615,-86,51,4277
2822,1.392132,2898,284992028,-86,51,4277
2823,1.392521,2899,284992417,-86,51,4277
2824,1.392929,2900,284992825,-109,65,4360
2825,1.393332,2901,284993228,-109,65,4360
2826,1.393739,2902,284993635,-135,55,4362
2827,1.394147,2903,284994043,-135,55,4362
2828,1.394542,2904,284994438,-135,55,4362
2829,1.394945,2905,284994841,-157,12,4273
2830,1.395348,2906,284995244,-157,12,4273
2831,1.395745,2907,284995641,-156,10,4247
2832,1.396152,2908,284996048,-156,10,4247
2833,1.396542,2909,284996438,-156,10,4247
2834,1.396960,2910,284996856,-126,56,4330
2835,1.397355,2911,284997251,-126,56,4330
2836,1.397763,2912,284997659,-107,90,4404
2837,1.398162,2913,284998058,-107,90,4404
2838,1.398569,2914,284998465,-107,90,4404
2839,1.398964,2915,284998860,-103,89,4376
2840,1.399373,2916,284999269,-103,89,4376
2841,1.399775,2917,284999671,-68,63,4335
2842,1.400176,2918,285000072,-68,63,4335
2843,1.400583,2919,285000479,-68,63,4335
2844,1.400990,2920,285000886,-39,54,4354
2845,1.401385,2921,285001281,-39,54,4354
2846,1.401793,2922,285001689,-21,68,4406
2847,1.402181,2923,285002077,-21,68,4406
2848,1.402587,2924,285002483,-21,68,4406
2849,1.402989,2925,285002885,-50,53,4366
2850,1.403408,2926,285003304,-50,53,4366
2851,1.403804,2927,285003700,-126,13,4227
2852,1.404204,2928,285004100,-126,13,4227
2853,1.404604,2929,285004500,-126,13,4227
2854,1.405008,2930,285004904,-119,5,4274
2855,1.405409,2931,285005305,-119,5,4274
2856,1.405817,2932,285005713,-99,61,4441
2857,1.406211,2933,285006107,-99,61,4441
2858,1.406632,2934,285006528,-99,61,4441
2859,1.407019,2935,285006915,-113,88,4472
2860,1.407442,2936,285007338,-113,88,4472
2861,1.407845,2937,285007741,-58,64,4409
2862,1.408241,2938,285008137,-58,64,4409
2863,1.408647,2939,285008543,-58,64,4409
2864,1.409058,2940,285008954,-7,44,4353
2865,1.409453,2941,285009349,-7,44,4353
2866,1.409861,2942,285009757,40,30,4339
2867,1.410251,2943,285010147,40,30,4339
2868,1.410651,2944,285010547,43,29,4335
2869,1.411045,2945,285010941,43,29,4335
2870,1.411450,2946,285011346,43,29,4335
2871,1.411839,2947,285011735,-79,39,4293
2872,1.412243,2948,285012139,-79,39,4293
2873,1.412633,2949,285012529,-79,39,4293
2874,1.413043,2950,285012939,-204,34,4247
2875,1.413450,2951,285013346,-204,34,4247
2876,1.413858,2952,285013754,-188,53,4301
2877,1.414248,2953,285014144,-188,53,4301
2878,1.414657,2954,285014553,-108,74,4346
2879,1.415064,2955,285014960,-108,74,4346
