row,seconds,esp32_index,micros,ax,ay,az
1,0.000000,71,154825995,-62,-5,4343
2,0.000404,72,154826399,-62,-5,4343
3,0.000820,73,154826815,-62,-5,4343
4,0.001229,74,154827224,-58,-4,4390
5,0.001638,75,154827633,-58,-4,4390
6,0.002036,76,154828031,-49,11,4410
7,0.002427,77,154828422,-49,11,4410
8,0.002829,78,154828824,-49,11,4410
9,0.003224,79,154829219,-48,13,4404
10,0.003619,80,154829614,-48,13,4404
11,0.004015,81,154830010,-45,-2,4414
12,0.004412,82,154830407,-45,-2,4414
13,0.004823,83,154830818,-45,-2,4414
14,0.005225,84,154831220,-42,9,4412
15,0.005621,85,154831616,-42,9,4412
16,0.006020,86,154832015,-48,23,4404
17,0.006401,87,154832396,-48,23,4404
18,0.006790,88,154832785,-48,23,4404
19,0.007180,89,154833175,-48,8,4398
20,0.007582,90,154833577,-48,8,4398
21,0.007982,91,154833977,-8,19,4367
22,0.008378,92,154834373,-8,19,4367
23,0.008780,93,154834775,-8,19,4367
24,0.009170,94,154835165,6,21,4375
25,0.009558,95,154835553,6,21,4375
26,0.009949,96,154835944,-63,20,4403
27,0.010338,97,154836333,-63,20,4403
28,0.010738,98,154836733,-63,20,4403
29,0.011137,99,154837132,-68,25,4394
30,0.011526,100,154837521,-68,25,4394
31,0.011932,101,154837927,-51,20,4377
32,0.012328,102,154838323,-51,20,4377
33,0.012724,103,154838719,-51,20,4377
34,0.013113,104,154839108,-85,32,4380
35,0.013512,105,154839507,-85,32,4380
36,0.013908,106,154839903,-85,32,4380
37,0.014308,107,154840303,-86,34,4395
38,0.014703,108,154840698,-86,34,4395
39,0.015084,109,154841079,-46,21,4389
40,0.015475,110,154841470,-46,21,4389
41,0.015864,111,154841859,-46,21,4389
42,0.016269,112,154842264,-23,31,4386
43,0.016669,113,154842664,-23,31,4386
44,0.017063,114,154843058,-55,27,4391
45,0.017447,115,154843442,-55,27,4391
46,0.017843,116,154843838,-55,27,4391
47,0.018238,117,154844233,-61,10,4388
48,0.018636,118,154844631,-61,10,4388
49,0.019041,119,154845036,-62,29,4373
50,0.019416,120,154845411,-62,29,4373
51,0.019789,121,154845784,-62,29,4373
52,0.020169,122,154846164,-59,31,4361
53,0.020571,123,154846566,-59,31,4361
54,0.020967,124,154846962,-27,19,4347
55,0.021356,125,154847351,-27,19,4347
56,0.021757,126,154847752,-27,19,4347
57,0.022154,127,154848149,-45,24,4343
58,0.022546,128,154848541,-45,24,4343
59,0.022953,129,154848948,-47,25,4354
60,0.023336,130,154849331,-47,25,4354
61,0.023705,131,154849700,-47,25,4354
62,0.024082,132,154850077,-53,22,4379
63,0.024475,133,154850470,-53,22,4379
64,0.024862,134,154850857,-53,22,4379
65,0.025232,135,154851227,-52,32,4409
66,0.025641,136,154851636,-52,32,4409
67,0.026040,137,154852035,-50,8,4410
68,0.026443,138,154852438,-50,8,4410
69,0.026837,139,154852832,-50,8,4410
70,0.027227,140,154853222,-58,-11,4396
71,0.027624,141,154853619,-58,-11,4396
72,0.028030,142,154854025,-63,19,4397
73,0.028427,143,154854422,-63,19,4397
74,0.028828,144,154854823,-63,19,4397
75,0.029225,145,154855220,-73,36,4392
76,0.029621,146,154855616,-73,36,4392
77,0.030019,147,154856014,-59,37,4375
78,0.030416,148,154856411,-59,37,4375
79,0.030813,149,154856808,-59,37,4375
80,0.031210,150,154857205,-49,7,4374
81,0.031605,151,154857600,-49,7,4374
82,0.032010,152,154858005,-59,-12,4410
83,0.032407,153,154858402,-59,-12,4410
84,0.032812,154,154858807,-59,-12,4410
85,0.033212,155,154859207,-77,-2,4386
86,0.033619,156,154859614,-77,-2,4386
87,0.034025,157,154860020,-57,1,4344
88,0.034414,158,154860409,-57,1,4344
89,0.034811,159,154860806,-57,1,4344
90,0.035193,160,154861188,-55,4,4368
91,0.035590,161,154861585,-55,4,4368
92,0.035984,162,154861979,-57,26,4393
93,0.036381,163,154862376,-57,26,4393
94,0.036777,164,154862772,-57,26,4393
95,0.037161,165,154863156,-43,36,4402
96,0.037537,166,154863532,-43,36,4402
97,0.037925,167,154863920,-49,13,4441
98,0.038308,168,154864303,-49,13,4441
99,0.038704,169,154864699,-49,13,4441
100,0.039092,170,154865087,-62,-9,4435
101,0.039487,171,154865482,-62,-9,4435
102,0.039864,172,154865859,-62,-9,4435
103,0.040261,173,154866256,-82,-2,4363
104,0.040663,174,154866658,-82,-2,4363
105,0.041069,175,154867064,-88,25,4348
106,0.041459,176,154867454,-88,25,4348
107,0.041847,177,154867842,-88,25,4348
108,0.042222,178,154868217,-57,9,4374
109,0.042621,179,154868616,-57,9,4374
110,0.043020,180,154869015,-45,-11,4408
111,0.043417,181,154869412,-45,-11,4408
112,0.043824,182,154869819,-45,-11,4408
113,0.044228,183,154870223,-57,5,4384
114,0.044615,184,154870610,-57,5,4384
115,0.045017,185,154871012,-53,11,4381
116,0.045407,186,154871402,-53,11,4381
117,0.045805,187,154871800,-53,11,4381
118,0.046182,188,154872177,-49,0,4416
119,0.046578,189,154872573,-49,0,4416
120,0.046990,190,154872985,-44,1,4412
121,0.047385,191,154873380,-44,1,4412
122,0.047794,192,154873789,-44,1,4412
123,0.048189,193,154874184,-55,3,4394
124,0.048584,194,154874579,-55,3,4394
125,0.048990,195,154874985,-55,-1,4378
126,0.049402,196,154875397,-55,-1,4378
127,0.049811,197,154875806,-55,-1,4378
128,0.050221,198,154876216,-38,4,4342
129,0.050616,199,154876611,-38,4,4342
130,0.051028,200,154877023,-40,9,4341
131,0.051417,201,154877412,-40,9,4341
132,0.051817,202,154877812,-40,9,4341
133,0.052226,203,154878221,-58,25,4357
134,0.052627,204,154878622,-58,25,4357
135,0.053034,205,154879029,-81,34,4379
136,0.053427,206,154879422,-81,34,4379
137,0.053828,207,154879823,-81,34,4379
138,0.054221,208,154880216,-63,15,4397
139,0.054603,209,154880598,-63,15,4397
140,0.055004,210,154880999,-29,-6,4377
141,0.055398,211,154881393,-29,-6,4377
142,0.055806,212,154881801,-29,-6,4377
143,0.056216,213,154882211,-40,-18,4381
144,0.056625,214,154882620,-40,-18,4381
145,0.057038,215,154883033,-57,0,4396
146,0.057427,216,154883422,-57,0,4396
147,0.057824,217,154883819,-57,0,4396
148,0.058225,218,154884220,-36,17,4409
149,0.058627,219,154884622,-36,17,4409
150,0.059033,220,154885028,-27,14,4390
151,0.059432,221,154885427,-27,14,4390
152,0.059841,222,154885836,-27,14,4390
153,0.060241,223,154886236,-40,5,4374
154,0.060635,224,154886630,-40,5,4374
155,0.061047,225,154887042,-51,17,4366
156,0.061447,226,154887442,-51,17,4366
157,0.061841,227,154887836,-51,17,4366
158,0.062230,228,154888225,-43,18,4346
159,0.062627,229,154888622,-43,18,4346
160,0.063019,230,154889014,-36,19,4337
161,0.063409,231,154889404,-36,19,4337
162,0.063804,232,154889799,-36,19,4337
163,0.064194,233,154890189,-58,22,4368
164,0.064592,234,154890587,-58,22,4368
165,0.064993,235,154890988,-56,42,4417
166,0.065389,236,154891384,-56,42,4417
167,0.065786,237,154891781,-56,42,4417
168,0.066176,238,154892171,-70,39,4420
169,0.066574,239,154892569,-70,39,4420
170,0.066975,240,154892970,-81,3,4423
171,0.067369,241,154893364,-81,3,4423
172,0.067767,242,154893762,-81,3,4423
173,0.068156,243,154894151,-58,17,4399
174,0.068553,244,154894548,-58,17,4399
175,0.068946,245,154894941,-57,14,4359
176,0.069342,246,154895337,-57,14,4359
177,0.069738,247,154895733,-57,14,4359
178,0.070114,248,154896109,-76,-1,4369
179,0.070521,249,154896516,-76,-1,4369
180,0.070913,250,154896908,-48,7,4389
181,0.071307,251,154897302,-48,7,4389
182,0.071708,252,154897703,-48,7,4389
183,0.072095,253,154898090,-39,22,4404
184,0.072496,254,154898491,-39,22,4404
185,0.072892,255,154898887,-39,22,4404
186,0.073293,256,154899288,-68,25,4388
187,0.073690,257,154899685,-68,25,4388
188,0.074077,258,154900072,-52,16,4378
189,0.074476,259,154900471,-52,16,4378
190,0.074865,260,154900860,-52,16,4378
191,0.075266,261,154901261,-30,9,4387
192,0.075663,262,154901658,-30,9,4387
193,0.076059,263,154902054,-55,32,4393
194,0.076451,264,154902446,-55,32,4393
195,0.076848,265,154902843,-55,32,4393
196,0.077245,266,154903240,-72,15,4377
197,0.077634,267,154903629,-72,15,4377
198,0.078035,268,154904030,-69,-7,4362
199,0.078444,269,154904439,-69,-7,4362
200,0.078855,270,154904850,-69,-7,4362
201,0.079264,271,154905259,-48,9,4357
202,0.079658,272,154905653,-48,9,4357
203,0.080060,273,154906055,-30,13,4366
204,0.080450,274,154906445,-30,13,4366
205,0.080859,275,154906854,-30,13,4366
206,0.081261,276,154907256,-58,23,4372
207,0.081655,277,154907650,-58,23,4372
208,0.082057,278,154908052,-79,34,4389
209,0.082454,279,154908449,-79,34,4389
210,0.082857,280,154908852,-79,34,4389
211,0.083252,281,154909247,-66,31,4434
212,0.083653,282,154909648,-66,31,4434
213,0.084054,283,154910049,-58,19,4422
214,0.084450,284,154910445,-58,19,4422
215,0.084852,285,154910847,-58,19,4422
216,0.085254,286,154911249,-57,3,4374
217,0.085649,287,154911644,-57,3,4374
218,0.086049,288,154912044,-39,-4,4380
219,0.086452,289,154912447,-39,-4,4380
220,0.086863,290,154912858,-39,-4,4380
221,0.087272,291,154913267,-50,15,4397
222,0.087646,292,154913641,-50,15,4397
223,0.088040,293,154914035,-46,15,4393
224,0.088439,294,154914434,-46,15,4393
225,0.088840,295,154914835,-46,15,4393
226,0.089237,296,154915232,-19,27,4411
227,0.089645,297,154915640,-19,27,4411
228,0.090048,298,154916043,-12,23,4409
229,0.090447,299,154916442,-12,23,4409
230,0.090848,300,154916843,-12,23,4409
231,0.091242,301,154917237,-31,5,4383
232,0.091643,302,154917638,-31,5,4383
233,0.092047,303,154918042,-49,11,4367
234,0.092444,304,154918439,-49,11,4367
235,0.092846,305,154918841,-49,11,4367
236,0.093232,306,154919227,-53,17,4394
237,0.093631,307,154919626,-53,17,4394
238,0.094023,308,154920018,-53,31,4410
239,0.094412,309,154920407,-53,31,4410
240,0.094809,310,154920804,-53,31,4410
241,0.095207,311,154921202,-54,35,4420
242,0.095595,312,154921590,-54,35,4420
243,0.095990,313,154921985,-53,29,4445
244,0.096387,314,154922382,-53,29,4445
245,0.096783,315,154922778,-53,29,4445
246,0.097173,316,154923168,-32,16,4439
247,0.097570,317,154923565,-32,16,4439
248,0.097971,318,154923966,-37,20,4382
249,0.098361,319,154924356,-37,20,4382
250,0.098758,320,154924753,-37,20,4382
251,0.099149,321,154925144,-62,13,4368
252,0.099539,322,154925534,-62,13,4368
253,0.099938,323,154925933,-52,-2,4388
254,0.100342,324,154926337,-52,-2,4388
255,0.100738,325,154926733,-52,-2,4388
256,0.101138,326,154927133,-42,22,4381
257,0.101526,327,154927521,-42,22,4381
258,0.101929,328,154927924,-39,38,4358
259,0.102324,329,154928319,-39,38,4358
260,0.102721,330,154928716,-39,38,4358
261,0.103109,331,154929104,-23,25,4339
262,0.103509,332,154929504,-23,25,4339
263,0.103910,333,154929905,-46,20,4386
264,0.104295,334,154930290,-46,20,4386
265,0.104684,335,154930679,-46,20,4386
266,0.105077,336,154931072,-55,21,4409
267,0.105464,337,154931459,-55,21,4409
268,0.105861,338,154931856,-55,21,4409
269,0.106267,339,154932262,-30,23,4418
270,0.106662,340,154932657,-30,23,4418
271,0.107055,341,154933050,-42,6,4414
272,0.107445,342,154933440,-42,6,4414
273,0.107833,343,154933828,-42,6,4414
274,0.108232,344,154934227,-41,-14,4394
275,0.108635,345,154934630,-41,-14,4394
276,0.109042,346,154935037,-45,2,4399
277,0.109434,347,154935429,-45,2,4399
278,0.109822,348,154935817,-45,2,4399
279,0.110221,349,154936216,-59,33,4388
280,0.110611,350,154936606,-59,33,4388
281,0.111009,351,154937004,-53,25,4379
282,0.111400,352,154937395,-53,25,4379
283,0.111796,353,154937791,-53,25,4379
284,0.112185,354,154938180,-59,7,4382
285,0.112582,355,154938577,-59,7,4382
286,0.112982,356,154938977,-67,-3,4390
287,0.113386,357,154939381,-67,-3,4390
288,0.113791,358,154939786,-67,-3,4390
289,0.114188,359,154940183,-48,11,4402
290,0.114585,360,154940580,-48,11,4402
291,0.114985,361,154940980,-37,31,4409
292,0.115382,362,154941377,-37,31,4409
293,0.115766,363,154941761,-37,31,4409
294,0.116157,364,154942152,-28,12,4385
295,0.116545,365,154942540,-28,12,4385
296,0.116944,366,154942939,-22,10,4373
297,0.117340,367,154943335,-22,10,4373
298,0.117736,368,154943731,-22,10,4373
299,0.118118,369,154944113,-42,17,4365
300,0.118521,370,154944516,-42,17,4365
301,0.118923,371,154944918,-37,15,4382
302,0.119313,372,154945308,-37,15,4382
303,0.119709,373,154945704,-37,15,4382
304,0.120097,374,154946092,-19,37,4424
305,0.120498,375,154946493,-19,37,4424
306,0.120874,376,154946869,-19,37,4424
307,0.121280,377,154947275,-31,33,4388
308,0.121670,378,154947665,-31,33,4388
309,0.122039,379,154948034,-41,11,4339
310,0.122422,380,154948417,-41,11,4339
311,0.122819,381,154948814,-41,11,4339
312,0.123207,382,154949202,-32,-4,4357
313,0.123605,383,154949600,-32,-4,4357
314,0.124006,384,154950001,-23,8,4383
315,0.124402,385,154950397,-23,8,4383
316,0.124804,386,154950799,-23,8,4383
317,0.125201,387,154951196,-12,27,4393
318,0.125597,388,154951592,-12,27,4393
319,0.125991,389,154951986,-23,6,4401
320,0.126367,390,154952362,-23,6,4401
321,0.126736,391,154952731,-23,6,4401
322,0.127135,392,154953130,-49,11,4384
323,0.127524,393,154953519,-49,11,4384
324,0.127931,394,154953926,-58,40,4349
325,0.128333,395,154954328,-58,40,4349
326,0.128734,396,154954729,-58,40,4349
327,0.129122,397,154955117,-81,42,4385
328,0.129521,398,154955516,-81,42,4385
329,0.129928,399,154955923,-85,21,4418
330,0.130324,400,154956319,-85,21,4418
331,0.130720,401,154956715,-85,21,4418
332,0.131107,402,154957102,-56,25,4389
333,0.131505,403,154957500,-56,25,4389
334,0.131902,404,154957897,-31,31,4369
335,0.132308,405,154958303,-31,31,4369
336,0.132704,406,154958699,-31,31,4369
337,0.133093,407,154959088,-13,16,4355
338,0.133492,408,154959487,-13,16,4355
339,0.133888,409,154959883,-18,19,4350
340,0.134294,410,154960289,-18,19,4350
341,0.134691,411,154960686,-18,19,4350
342,0.135079,412,154961074,-22,24,4372
343,0.135480,413,154961475,-22,24,4372
344,0.135876,414,154961871,-22,24,4372
345,0.136282,415,154962277,-33,15,4387
346,0.136678,416,154962673,-33,15,4387
347,0.137070,417,154963065,-66,29,4380
348,0.137451,418,154963446,-66,29,4380
349,0.137841,419,154963836,-66,29,4380
350,0.138228,420,154964223,-55,27,4370
351,0.138619,421,154964614,-55,27,4370
352,0.139017,422,154965012,-29,12,4379
353,0.139400,423,154965395,-29,12,4379
354,0.139797,424,154965792,-29,12,4379
355,0.140187,425,154966182,-46,27,4418
356,0.140584,426,154966579,-46,27,4418
357,0.140985,427,154966980,-51,21,4435
358,0.141381,428,154967376,-51,21,4435
359,0.141763,429,154967758,-51,21,4435
360,0.142156,430,154968151,-49,10,4436
361,0.142553,431,154968548,-49,10,4436
362,0.142952,432,154968947,-58,26,4422
363,0.143349,433,154969344,-58,26,4422
364,0.143739,434,154969734,-58,26,4422
365,0.144121,435,154970116,-67,11,4402
366,0.144520,436,154970515,-67,11,4402
367,0.144922,437,154970917,-51,13,4384
368,0.145319,438,154971314,-51,13,4384
369,0.145714,439,154971709,-51,13,4384
370,0.146102,440,154972097,-35,23,4352
371,0.146502,441,154972497,-35,23,4352
372,0.146900,442,154972895,-50,21,4345
373,0.147301,443,154973296,-50,21,4345
374,0.147698,444,154973693,-50,21,4345
375,0.148079,445,154974074,-43,-1,4371
376,0.148487,446,154974482,-43,-1,4371
377,0.148891,447,154974886,-54,-9,4384
378,0.149300,448,154975295,-54,-9,4384
379,0.149704,449,154975699,-54,-9,4384
380,0.150100,450,154976095,-55,11,4382
381,0.150498,451,154976493,-55,11,4382
382,0.150895,452,154976890,-39,11,4353
383,0.151289,453,154977284,-39,11,4353
384,0.151685,454,154977680,-39,11,4353
385,0.152073,455,154978068,-46,22,4367
386,0.152464,456,154978459,-46,22,4367
387,0.152860,457,154978855,-46,22,4367
388,0.153257,458,154979252,-39,37,4411
389,0.153648,459,154979643,-39,37,4411
390,0.154033,460,154980028,-36,36,4400
391,0.154401,461,154980396,-36,36,4400
392,0.154794,462,154980789,-36,36,4400
393,0.155177,463,154981172,-43,4,4398
394,0.155573,464,154981568,-43,4,4398
395,0.155976,465,154981971,-45,-1,4398
396,0.156372,466,154982367,-45,-1,4398
397,0.156776,467,154982771,-45,-1,4398
398,0.157174,468,154983169,-42,11,4369
399,0.157571,469,154983566,-42,11,4369
400,0.157966,470,154983961,-55,11,4381
401,0.158364,471,154984359,-55,11,4381
402,0.158753,472,154984748,-55,11,4381
403,0.159144,473,154985139,-50,9,4403
404,0.159536,474,154985531,-50,9,4403
405,0.159941,475,154985936,-47,16,4378
406,0.160343,476,154986338,-47,16,4378
407,0.160739,477,154986734,-47,16,4378
408,0.161121,478,154987116,-56,28,4347
409,0.161520,479,154987515,-56,28,4347
410,0.161921,480,154987916,-46,27,4359
411,0.162323,481,154988318,-46,27,4359
412,0.162718,482,154988713,-46,27,4359
413,0.163112,483,154989107,-35,17,4388
414,0.163513,484,154989508,-35,17,4388
415,0.163909,485,154989904,-8,20,4400
416,0.164315,486,154990310,-8,20,4400
417,0.164716,487,154990711,-8,20,4400
418,0.165104,488,154991099,8,18,4400
419,0.165496,489,154991491,8,18,4400
420,0.165884,490,154991879,-14,6,4373
421,0.166285,491,154992280,-14,6,4373
422,0.166681,492,154992676,-14,6,4373
423,0.167076,493,154993071,-28,7,4367
424,0.167466,494,154993461,-28,7,4367
425,0.167867,495,154993862,-28,7,4367
426,0.168273,496,154994268,-22,10,4365
427,0.168669,497,154994664,-22,10,4365
428,0.169066,498,154995061,-55,15,4368
429,0.169463,499,154995458,-55,15,4368
430,0.169857,500,154995852,-55,15,4368
431,0.170245,501,154996240,-77,21,4382
432,0.170636,502,154996631,-77,21,4382
433,0.171030,503,154997025,-61,32,4366
434,0.171427,504,154997422,-61,32,4366
435,0.171828,505,154997823,-61,32,4366
436,0.172225,506,154998220,-54,16,4372
437,0.172621,507,154998616,-54,16,4372
438,0.173019,508,154999014,-49,13,4368
439,0.173417,509,154999412,-49,13,4368
440,0.173821,510,154999816,-49,13,4368
441,0.174217,511,155000212,-45,-2,4369
442,0.174621,512,155000616,-45,-2,4369
443,0.175034,513,155001029,-34,6,4401
444,0.175432,514,155001427,-34,6,4401
445,0.175819,515,155001814,-34,6,4401
446,0.176217,516,155002212,-40,24,4410
447,0.176614,517,155002609,-40,24,4410
448,0.177018,518,155003013,-36,-4,4401
449,0.177429,519,155003424,-36,-4,4401
450,0.177831,520,155003826,-36,-4,4401
451,0.178239,521,155004234,-44,10,4361
452,0.178636,522,155004631,-44,10,4361
453,0.179036,523,155005031,-48,27,4362
454,0.179427,524,155005422,-48,27,4362
455,0.179823,525,155005818,-48,27,4362
456,0.180224,526,155006219,-54,27,4381
457,0.180619,527,155006614,-54,27,4381
458,0.181019,528,155007014,-59,-5,4359
459,0.181423,529,155007418,-59,-5,4359
460,0.181832,530,155007827,-59,-5,4359
461,0.182241,531,155008236,-45,3,4345
462,0.182636,532,155008631,-45,3,4345
463,0.183036,533,155009031,-49,26,4366
464,0.183434,534,155009429,-49,26,4366
465,0.183830,535,155009825,-49,26,4366
466,0.184226,536,155010221,-65,25,4396
467,0.184623,537,155010618,-65,25,4396
468,0.185022,538,155011017,-53,46,4370
469,0.185418,539,155011413,-53,46,4370
470,0.185815,540,155011810,-53,46,4370
471,0.186216,541,155012211,-55,33,4402
472,0.186613,542,155012608,-55,33,4402
473,0.187013,543,155013008,-67,30,4418
474,0.187400,544,155013395,-67,30,4418
475,0.187770,545,155013765,-67,30,4418
476,0.188153,546,155014148,-42,30,4366
477,0.188551,547,155014546,-42,30,4366
478,0.188956,548,155014951,-14,21,4398
479,0.189357,549,155015352,-14,21,4398
480,0.189759,550,155015754,-14,21,4398
481,0.190150,551,155016145,-12,17,4417
482,0.190547,552,155016542,-12,17,4417
483,0.190948,553,155016943,-52,33,4398
484,0.191350,554,155017345,-52,33,4398
485,0.191746,555,155017741,-52,33,4398
486,0.192139,556,155018134,-64,49,4388
487,0.192528,557,155018523,-64,49,4388
488,0.192928,558,155018923,-46,55,4385
489,0.193325,559,155019320,-46,55,4385
490,0.193721,560,155019716,-46,55,4385
491,0.194113,561,155020108,-50,27,4400
492,0.194513,562,155020508,-50,27,4400
493,0.194909,563,155020904,-66,-22,4419
494,0.195318,564,155021313,-66,-22,4419
495,0.195729,565,155021724,-66,-22,4419
496,0.196117,566,155022112,-52,-3,4405
497,0.196532,567,155022527,-52,-3,4405
498,0.196934,568,155022929,-33,23,4385
499,0.197336,569,155023331,-33,23,4385
500,0.197732,570,155023727,-33,23,4385
501,0.198125,571,155024120,-49,27,4386
502,0.198524,572,155024519,-49,27,4386
503,0.198925,573,155024920,-54,24,4363
504,0.199321,574,155025316,-54,24,4363
505,0.199717,575,155025712,-54,24,4363
506,0.200104,576,155026099,-51,12,4372
507,0.200503,577,155026498,-51,12,4372
508,0.200904,578,155026899,-54,9,4394
509,0.201305,579,155027300,-54,9,4394
510,0.201701,580,155027696,-54,9,4394
511,0.202089,581,155028084,-67,31,4393
512,0.202497,582,155028492,-67,31,4393
513,0.202891,583,155028886,-85,36,4375
514,0.203305,584,155029300,-85,36,4375
515,0.203706,585,155029701,-85,36,4375
516,0.204093,586,155030088,-71,34,4366
517,0.204464,587,155030459,-71,34,4366
518,0.204860,588,155030855,-71,34,4366
519,0.205255,589,155031250,-42,16,4346
520,0.205656,590,155031651,-42,16,4346
521,0.206050,591,155032045,-41,9,4347
522,0.206440,592,155032435,-41,9,4347
523,0.206835,593,155032830,-41,9,4347
524,0.207238,594,155033233,-63,37,4375
525,0.207632,595,155033627,-63,37,4375
526,0.208038,596,155034033,-53,55,4375
527,0.208443,597,155034438,-53,55,4375
528,0.208837,598,155034832,-53,55,4375
529,0.209238,599,155035233,-51,34,4383
530,0.209647,600,155035642,-51,34,4383
531,0.210044,601,155036039,-46,13,4365
532,0.210441,602,155036436,-46,13,4365
533,0.210835,603,155036830,-46,13,4365
534,0.211244,604,155037239,-42,26,4342
535,0.211638,605,155037633,-42,26,4342
536,0.212041,606,155038036,-23,23,4363
537,0.212447,607,155038442,-23,23,4363
538,0.212841,608,155038836,-23,23,4363
539,0.213249,609,155039244,-26,22,4370
540,0.213651,610,155039646,-26,22,4370
541,0.214056,611,155040051,-63,11,4368
542,0.214455,612,155040450,-63,11,4368
543,0.214857,613,155040852,-63,11,4368
544,0.215251,614,155041246,-73,9,4364
545,0.215647,615,155041642,-73,9,4364
546,0.216049,616,155042044,-49,24,4369
547,0.216446,617,155042441,-49,24,4369
548,0.216849,618,155042844,-49,24,4369
549,0.217245,619,155043240,-36,13,4382
550,0.217645,620,155043640,-36,13,4382
551,0.218035,621,155044030,-48,1,4375
552,0.218427,622,155044422,-48,1,4375
553,0.218824,623,155044819,-48,1,4375
554,0.219220,624,155045215,-20,3,4390
555,0.219616,625,155045611,-20,3,4390
556,0.220016,626,155046011,-15,38,4360
557,0.220405,627,155046400,-15,38,4360
558,0.220794,628,155046789,-15,38,4360
559,0.221171,629,155047166,-44,62,4327
560,0.221569,630,155047564,-44,62,4327
561,0.221969,631,155047964,-43,49,4366
562,0.222364,632,155048359,-43,49,4366
563,0.222762,633,155048757,-43,49,4366
564,0.223142,634,155049137,-17,45,4378
565,0.223531,635,155049526,-17,45,4378
566,0.223927,636,155049922,-16,30,4378
567,0.224302,637,155050297,-16,30,4378
568,0.224681,638,155050676,-16,30,4378
569,0.225064,639,155051059,-30,19,4381
570,0.225455,640,155051450,-30,19,4381
571,0.225851,641,155051846,-30,19,4381
572,0.226248,642,155052243,-36,36,4415
573,0.226637,643,155052632,-36,36,4415
574,0.227039,644,155053034,-60,35,4454
575,0.227429,645,155053424,-60,35,4454
576,0.227819,646,155053814,-60,35,4454
577,0.228188,647,155054183,-59,-6,4419
578,0.228584,648,155054579,-59,-6,4419
579,0.228992,649,155054987,-45,-18,4390
580,0.229396,650,155055391,-45,-18,4390
581,0.229803,651,155055798,-45,-18,4390
582,0.230211,652,155056206,-48,15,4391
583,0.230600,653,155056595,-48,15,4391
584,0.231007,654,155057002,-44,14,4390
585,0.231403,655,155057398,-44,14,4390
586,0.231793,656,155057788,-44,14,4390
587,0.232182,657,155058177,-62,-2,4394
588,0.232587,658,155058582,-62,-2,4394
589,0.232995,659,155058990,-65,6,4395
590,0.233391,660,155059386,-65,6,4395
591,0.233789,661,155059784,-65,6,4395
592,0.234178,662,155060173,-62,19,4378
593,0.234567,663,155060562,-62,19,4378
594,0.234966,664,155060961,-61,23,4401
595,0.235362,665,155061357,-61,23,4401
596,0.235764,666,155061759,-61,23,4401
597,0.236155,667,155062150,-57,2,4412
598,0.236551,668,155062546,-57,2,4412
599,0.236950,669,155062945,-53,7,4383
600,0.237343,670,155063338,-53,7,4383
601,0.237721,671,155063716,-53,7,4383
602,0.238098,672,155064093,-54,28,4379
603,0.238498,673,155064493,-54,28,4379
604,0.238886,674,155064881,-78,34,4406
605,0.239289,675,155065284,-78,34,4406
606,0.239690,676,155065685,-78,34,4406
607,0.240084,677,155066079,-87,36,4402
608,0.240482,678,155066477,-87,36,4402
609,0.240884,679,155066879,-93,23,4367
610,0.241284,680,155067279,-93,23,4367
611,0.241685,681,155067680,-93,23,4367
612,0.242073,682,155068068,-78,16,4408
613,0.242463,683,155068458,-78,16,4408
614,0.242860,684,155068855,-78,16,4408
615,0.243249,685,155069244,-57,6,4433
616,0.243645,686,155069640,-57,6,4433
617,0.244044,687,155070039,-51,-14,4389
618,0.244450,688,155070445,-51,-14,4389
619,0.244859,689,155070854,-51,-14,4389
620,0.245262,690,155071257,-53,-5,4401
621,0.245677,691,155071672,-53,-5,4401
622,0.246079,692,155072074,-38,11,4417
623,0.246468,693,155072463,-38,11,4417
624,0.246864,694,155072859,-24,9,4385
625,0.247268,695,155073263,-24,9,4385
626,0.247664,696,155073659,-24,9,4385
627,0.248059,697,155074054,-38,3,4376
628,0.248451,698,155074446,-38,3,4376
629,0.248838,699,155074833,-38,3,4376
630,0.249237,700,155075232,-62,-3,4379
631,0.249640,701,155075635,-62,-3,4379
632,0.250053,702,155076048,-65,22,4395
633,0.250443,703,155076438,-65,22,4395
634,0.250844,704,155076839,-65,22,4395
635,0.251244,705,155077239,-52,34,4402
636,0.251646,706,155077641,-52,34,4402
637,0.252045,707,155078040,-58,10,4366
638,0.252434,708,155078429,-58,10,4366
639,0.252833,709,155078828,-58,10,4366
640,0.253228,710,155079223,-48,4,4351
641,0.253625,711,155079620,-48,4,4351
642,0.254023,712,155080018,-26,4,4364
643,0.254398,713,155080393,-26,4,4364
644,0.254783,714,155080778,-26,4,4364
645,0.255166,715,155081161,-33,-2,4395
646,0.255570,716,155081565,-33,-2,4395
647,0.255973,717,155081968,-41,11,4405
648,0.256354,718,155082349,-41,11,4405
649,0.256735,719,155082730,-41,11,4405
650,0.257109,720,155083104,-26,15,4418
651,0.257510,721,155083505,-26,15,4418
652,0.257899,722,155083894,-44,7,4439
653,0.258300,723,155084295,-44,7,4439
654,0.258695,724,155084690,-44,7,4439
655,0.259083,725,155085078,-51,9,4426
656,0.259483,726,155085478,-51,9,4426
657,0.259879,727,155085874,-34,17,4400
658,0.260273,728,155086268,-34,17,4400
659,0.260669,729,155086664,-34,17,4400
660,0.261065,730,155087060,-55,15,4392
661,0.261457,731,155087452,-55,15,4392
662,0.261853,732,155087848,-55,15,4392
663,0.262249,733,155088244,-48,0,4372
664,0.262645,734,155088640,-48,0,4372
665,0.263039,735,155089034,-50,-3,4345
666,0.263436,736,155089431,-50,-3,4345
667,0.263838,737,155089833,-50,-3,4345
668,0.264244,738,155090239,-76,3,4357
669,0.264639,739,155090634,-76,3,4357
670,0.265039,740,155091034,-82,14,4384
671,0.265428,741,155091423,-82,14,4384
672,0.265830,742,155091825,-82,14,4384
673,0.266237,743,155092232,-79,28,4379
674,0.266632,744,155092627,-79,28,4379
675,0.267037,745,155093032,-61,22,4352
676,0.267434,746,155093429,-61,22,4352
677,0.267831,747,155093826,-61,22,4352
678,0.268234,748,155094229,-41,19,4390
679,0.268630,749,155094625,-41,19,4390
680,0.269036,750,155095031,-48,21,4430
681,0.269434,751,155095429,-48,21,4430
682,0.269836,752,155095831,-48,21,4430
683,0.270237,753,155096232,-54,10,4416
684,0.270638,754,155096633,-54,10,4416
685,0.271038,755,155097033,-52,20,4389
686,0.271435,756,155097430,-52,20,4389
687,0.271830,757,155097825,-52,20,4389
688,0.272238,758,155098233,-64,23,4388
689,0.272640,759,155098635,-64,23,4388
690,0.273039,760,155099034,-47,30,4417
691,0.273435,761,155099430,-47,30,4417
692,0.273837,762,155099832,-47,30,4417
693,0.274239,763,155100234,-27,33,4414
694,0.274640,764,155100635,-27,33,4414
695,0.275051,765,155101046,-44,25,4392
696,0.275450,766,155101445,-44,25,4392
697,0.275845,767,155101840,-44,25,4392
698,0.276246,768,155102241,-55,10,4389
699,0.276655,769,155102650,-55,10,4389
700,0.277049,770,155103044,-37,14,4374
701,0.277455,771,155103450,-37,14,4374
702,0.277858,772,155103853,-37,14,4374
703,0.278252,773,155104247,-24,23,4378
704,0.278660,774,155104655,-24,23,4378
705,0.279061,775,155105056,-29,21,4368
706,0.279459,776,155105454,-29,21,4368
707,0.279860,777,155105855,-29,21,4368
708,0.280262,778,155106257,-31,26,4360
709,0.280664,779,155106659,-31,26,4360
710,0.281059,780,155107054,-38,20,4392
711,0.281448,781,155107443,-38,20,4392
712,0.281844,782,155107839,-38,20,4392
713,0.282247,783,155108242,-39,17,4381
714,0.282643,784,155108638,-39,17,4381
715,0.283044,785,155109039,-43,8,4370
716,0.283435,786,155109430,-43,8,4370
717,0.283831,787,155109826,-43,8,4370
718,0.284227,788,155110222,-69,-14,4356
719,0.284625,789,155110620,-69,-14,4356
720,0.285033,790,155111028,-67,6,4339
721,0.285423,791,155111418,-67,6,4339
722,0.285820,792,155111815,-67,6,4339
723,0.286215,793,155112210,-57,14,4351
724,0.286602,794,155112597,-57,14,4351
725,0.287003,795,155112998,-52,4,4370
726,0.287400,796,155113395,-52,4,4370
727,0.287769,797,155113764,-52,4,4370
728,0.288138,798,155114133,-39,10,4396
729,0.288530,799,155114525,-39,10,4396
730,0.288899,800,155114894,-32,1,4409
731,0.289281,801,155115276,-32,1,4409
732,0.289679,802,155115674,-32,1,4409
733,0.290048,803,155116043,-35,5,4380
734,0.290434,804,155116429,-35,5,4380
735,0.290833,805,155116828,-35,5,4380
736,0.291226,806,155117221,-56,14,4368
737,0.291595,807,155117590,-56,14,4368
738,0.291984,808,155117979,-68,18,4394
739,0.292380,809,155118375,-68,18,4394
740,0.292749,810,155118744,-68,18,4394
741,0.293118,811,155119113,-74,13,4411
742,0.293524,812,155119519,-74,13,4411
743,0.293925,813,155119920,-74,21,4413
744,0.294321,814,155120316,-74,21,4413
745,0.294717,815,155120712,-74,21,4413
746,0.295105,816,155121100,-46,23,4390
747,0.295505,817,155121500,-46,23,4390
748,0.295902,818,155121897,-51,2,4366
749,0.296309,819,155122304,-51,2,4366
750,0.296704,820,155122699,-51,2,4366
751,0.297092,821,155123087,-57,8,4357
752,0.297491,822,155123486,-57,8,4357
753,0.297899,823,155123894,-58,35,4362
754,0.298305,824,155124300,-58,35,4362
755,0.298706,825,155124701,-58,35,4362
756,0.299093,826,155125088,-62,39,4396
757,0.299492,827,155125487,-62,39,4396
758,0.299893,828,155125888,-47,51,4385
759,0.300307,829,155126302,-47,51,4385
760,0.300709,830,155126704,-47,51,4385
761,0.301096,831,155127091,-43,52,4371
762,0.301504,832,155127499,-43,52,4371
763,0.301906,833,155127901,-48,30,4385
764,0.302313,834,155128308,-48,30,4385
765,0.302707,835,155128702,-48,30,4385
766,0.303096,836,155129091,-55,0,4394
767,0.303505,837,155129500,-55,0,4394
768,0.303899,838,155129894,-61,8,4434
769,0.304297,839,155130292,-61,8,4434
770,0.304684,840,155130679,-61,8,4434
771,0.305085,841,155131080,-31,32,4431
772,0.305474,842,155131469,-31,32,4431
773,0.305876,843,155131871,-10,28,4384
774,0.306283,844,155132278,-10,28,4384
775,0.306678,845,155132673,-10,28,4384
776,0.307059,846,155133054,-40,21,4361
777,0.307451,847,155133446,-40,21,4361
778,0.307846,848,155133841,-40,21,4361
779,0.308242,849,155134237,-77,17,4395
780,0.308650,850,155134645,-77,17,4395
781,0.309055,851,155135050,-60,25,4408
782,0.309444,852,155135439,-60,25,4408
783,0.309846,853,155135841,-60,25,4408
784,0.310247,854,155136242,-33,48,4360
785,0.310655,855,155136650,-33,48,4360
786,0.311049,856,155137044,-40,62,4371
787,0.311456,857,155137451,-40,62,4371
788,0.311857,858,155137852,-36,37,4380
789,0.312244,859,155138239,-36,37,4380
790,0.312613,860,155138608,-36,37,4380
791,0.313000,861,155138995,-45,37,4345
792,0.313402,862,155139397,-45,37,4345
793,0.313803,863,155139798,-45,37,4345
794,0.314204,864,155140199,-57,43,4362
795,0.314607,865,155140602,-57,43,4362
796,0.315012,866,155141007,-55,24,4378
797,0.315406,867,155141401,-55,24,4378
798,0.315807,868,155141802,-55,24,4378
799,0.316209,869,155142204,-57,29,4373
800,0.316618,870,155142613,-57,29,4373
801,0.317007,871,155143002,-45,30,4381
802,0.317397,872,155143392,-45,30,4381
803,0.317799,873,155143794,-45,30,4381
804,0.318194,874,155144189,-32,28,4404
805,0.318590,875,155144585,-32,28,4404
806,0.319004,876,155144999,-54,28,4413
807,0.319399,877,155145394,-54,28,4413
808,0.319800,878,155145795,-54,28,4413
809,0.320202,879,155146197,-56,10,4411
810,0.320605,880,155146600,-56,10,4411
811,0.321002,881,155146997,-59,10,4406
812,0.321403,882,155147398,-59,10,4406
813,0.321804,883,155147799,-59,10,4406
814,0.322206,884,155148201,-41,20,4378
815,0.322602,885,155148597,-41,20,4378
816,0.323009,886,155149004,-53,30,4378
817,0.323410,887,155149405,-53,30,4378
818,0.323798,888,155149793,-53,30,4378
819,0.324188,889,155150183,-79,34,4413
820,0.324590,890,155150585,-79,34,4413
821,0.324996,891,155150991,-58,23,4387
822,0.325398,892,155151393,-58,23,4387
823,0.325800,893,155151795,-58,23,4387
824,0.326195,894,155152190,-42,7,4352
825,0.326590,895,155152585,-42,7,4352
826,0.327003,896,155152998,-16,-1,4376
827,0.327412,897,155153407,-16,-1,4376
828,0.327822,898,155153817,-16,-1,4376
829,0.328215,899,155154210,-16,-1,4382
830,0.328591,900,155154586,-16,-1,4382
831,0.328993,901,155154988,-43,7,4380
832,0.329394,902,155155389,-43,7,4380
833,0.329795,903,155155790,-43,7,4380
834,0.330192,904,155156187,-47,16,4367
835,0.330586,905,155156581,-47,16,4367
836,0.330992,906,155156987,-31,30,4392
837,0.331394,907,155157389,-31,30,4392
838,0.331790,908,155157785,-31,30,4392
839,0.332178,909,155158173,-23,40,4418
840,0.332577,910,155158572,-23,40,4418
841,0.332978,911,155158973,-26,25,4409
842,0.333379,912,155159374,-26,25,4409
843,0.333775,913,155159770,-26,25,4409
844,0.334166,914,155160161,-59,34,4410
845,0.334563,915,155160558,-59,34,4410
846,0.334963,916,155160958,-59,22,4380
847,0.335364,917,155161359,-59,22,4380
848,0.335761,918,155161756,-59,22,4380
849,0.336146,919,155162141,-50,-1,4366
850,0.336546,920,155162541,-50,-1,4366
851,0.336946,921,155162941,-58,13,4390
852,0.337343,922,155163338,-58,13,4390
853,0.337717,923,155163712,-58,13,4390
854,0.338100,924,155164095,-50,15,4401
855,0.338498,925,155164493,-50,15,4401
856,0.338894,926,155164889,-35,24,4391
857,0.339295,927,155165290,-35,24,4391
858,0.339685,928,155165680,-35,24,4391
859,0.340073,929,155166068,-35,34,4383
860,0.340464,930,155166459,-35,34,4383
861,0.340861,931,155166856,-38,14,4374
862,0.341257,932,155167252,-38,14,4374
863,0.341655,933,155167650,-38,14,4374
864,0.342048,934,155168043,-35,14,4369
865,0.342432,935,155168427,-35,14,4369
866,0.342829,936,155168824,-35,14,4369
867,0.343225,937,155169220,-39,13,4365
868,0.343621,938,155169616,-39,13,4365
869,0.344027,939,155170022,-52,-2,4372
870,0.344432,940,155170427,-52,-2,4372
871,0.344835,941,155170830,-52,-2,4372
872,0.345232,942,155171227,-75,14,4390
873,0.345628,943,155171623,-75,14,4390
874,0.346028,944,155172023,-82,26,4388
875,0.346427,945,155172422,-82,26,4388
876,0.346829,946,155172824,-82,26,4388
877,0.347231,947,155173226,-65,12,4379
878,0.347626,948,155173621,-65,12,4379
879,0.348027,949,155174022,-52,5,4370
880,0.348423,950,155174418,-52,5,4370
881,0.348819,951,155174814,-52,5,4370
882,0.349216,952,155175211,-57,1,4349
883,0.349612,953,155175607,-57,1,4349
884,0.350011,954,155176006,-50,7,4373
885,0.350407,955,155176402,-50,7,4373
886,0.350808,956,155176803,-50,7,4373
887,0.351210,957,155177205,-47,12,4394
888,0.351605,958,155177600,-47,12,4394
889,0.352010,959,155178005,-70,19,4381
890,0.352406,960,155178401,-70,19,4381
891,0.352803,961,155178798,-70,19,4381
892,0.353200,962,155179195,-90,20,4382
893,0.353595,963,155179590,-90,20,4382
894,0.353997,964,155179992,-78,7,4369
895,0.354377,965,155180372,-78,7,4369
896,0.354754,966,155180749,-78,7,4369
897,0.355146,967,155181141,-82,20,4389
898,0.355537,968,155181532,-82,20,4389
899,0.355938,969,155181933,-90,32,4403
900,0.356340,970,155182335,-90,32,4403
901,0.356736,971,155182731,-90,32,4403
902,0.357124,972,155183119,-59,30,4405
903,0.357522,973,155183517,-59,30,4405
904,0.357923,974,155183918,-39,2,4434
905,0.358316,975,155184311,-39,2,4434
906,0.358715,976,155184710,-39,2,4434
907,0.359102,977,155185097,-33,-14,4411
908,0.359482,978,155185477,-33,-14,4411
909,0.359879,979,155185874,-50,17,4351
910,0.360287,980,155186282,-50,17,4351
911,0.360676,981,155186671,-50,17,4351
912,0.361064,982,155187059,-73,34,4357
913,0.361456,983,155187451,-73,34,4357
914,0.361853,984,155187848,-69,11,4392
915,0.362248,985,155188243,-69,11,4392
916,0.362638,986,155188633,-69,11,4392
917,0.363041,987,155189036,-55,3,4394
918,0.363432,988,155189427,-55,3,4394
919,0.363828,989,155189823,-55,3,4394
920,0.364225,990,155190220,-69,15,4377
921,0.364621,991,155190616,-69,15,4377
922,0.365015,992,155191010,-79,38,4362
923,0.365406,993,155191401,-79,38,4362
924,0.365803,994,155191798,-79,38,4362
925,0.366192,995,155192187,-55,43,4374
926,0.366589,996,155192584,-55,43,4374
927,0.366984,997,155192979,-51,35,4383
928,0.367380,998,155193375,-51,35,4383
929,0.367777,999,155193772,-51,35,4383
930,0.368168,1000,155194163,-63,35,4360
931,0.368565,1001,155194560,-63,35,4360
932,0.368960,1002,155194955,-49,8,4388
933,0.369357,1003,155195352,-49,8,4388
934,0.369738,1004,155195733,-49,8,4388
935,0.370126,1005,155196121,-48,-9,4407
936,0.370532,1006,155196527,-48,-9,4407
937,0.370932,1007,155196927,-69,11,4383
938,0.371316,1008,155197311,-69,11,4383
939,0.371713,1009,155197708,-69,11,4383
940,0.372101,1010,155198096,-69,7,4395
941,0.372503,1011,155198498,-69,7,4395
942,0.372899,1012,155198894,-73,-20,4386
943,0.373301,1013,155199296,-73,-20,4386
944,0.373705,1014,155199700,-73,-20,4386
945,0.374100,1015,155200095,-57,0,4372
946,0.374502,1016,155200497,-57,0,4372
947,0.374900,1017,155200895,-29,18,4357
948,0.375300,1018,155201295,-29,18,4357
949,0.375701,1019,155201696,-29,18,4357
950,0.376094,1020,155202089,-9,-5,4351
951,0.376510,1021,155202505,-9,-5,4351
952,0.376912,1022,155202907,4,-17,4363
953,0.377319,1023,155203314,4,-17,4363
954,0.377720,1024,155203715,4,-17,4363
955,0.378113,1025,155204108,-10,-6,4364
956,0.378520,1026,155204515,-10,-6,4364
957,0.378936,1027,155204931,-20,-3,4357
958,0.379346,1028,155205341,-20,-3,4357
959,0.379756,1029,155205751,-20,-3,4357
960,0.380154,1030,155206149,-9,0,4354
961,0.380551,1031,155206546,-9,0,4354
962,0.380955,1032,155206950,-27,-7,4349
963,0.381360,1033,155207355,-27,-7,4349
964,0.381770,1034,155207765,-27,-7,4349
965,0.382169,1035,155208164,-39,-18,4353
966,0.382573,1036,155208568,-39,-18,4353
967,0.382995,1037,155208990,-33,-7,4353
968,0.383397,1038,155209392,-33,-7,4353
969,0.383808,1039,155209803,-33,-7,4353
970,0.384211,1040,155210206,-46,18,4364
971,0.384606,1041,155210601,-46,18,4364
972,0.385007,1042,155211002,-44,21,4367
973,0.385404,1043,155211399,-44,21,4367
974,0.385801,1044,155211796,-44,21,4367
975,0.386199,1045,155212194,-56,-9,4369
976,0.386601,1046,155212596,-56,-9,4369
977,0.387013,1047,155213008,-66,-1,4409
978,0.387417,1048,155213412,-66,-1,4409
979,0.387803,1049,155213798,-66,-1,4409
980,0.388188,1050,155214183,-40,19,4407
981,0.388584,1051,155214579,-40,19,4407
982,0.388985,1052,155214980,-26,26,4367
983,0.389388,1053,155215383,-26,26,4367
984,0.389784,1054,155215779,-26,26,4367
985,0.390175,1055,155216170,-46,40,4354
986,0.390572,1056,155216567,-46,40,4354
987,0.390972,1057,155216967,-42,57,4395
988,0.391362,1058,155217357,-42,57,4395
989,0.391763,1059,155217758,-42,57,4395
990,0.392160,1060,155218155,-26,59,4396
991,0.392557,1061,155218552,-26,59,4396
992,0.392956,1062,155218951,-47,52,4404
993,0.393352,1063,155219347,-47,52,4404
994,0.393749,1064,155219744,-47,52,4404
995,0.394131,1065,155220126,-64,49,4402
996,0.394533,1066,155220528,-64,49,4402
997,0.394934,1067,155220929,-69,48,4366
998,0.395336,1068,155221331,-69,48,4366
999,0.395738,1069,155221733,-69,48,4366
1000,0.396127,1070,155222122,-77,38,4372
1001,0.396526,1071,155222521,-77,38,4372
1002,0.396932,1072,155222927,-82,28,4393
1003,0.397327,1073,155223322,-82,28,4393
1004,0.397728,1074,155223723,-82,28,4393
1005,0.398117,1075,155224112,-86,24,4385
1006,0.398518,1076,155224513,-86,24,4385
1007,0.398914,1077,155224909,-84,7,4372
1008,0.399321,1078,155225316,-84,7,4372
1009,0.399722,1079,155225717,-84,7,4372
1010,0.400110,1080,155226105,-71,15,4375
1011,0.400512,1081,155226507,-71,15,4375
1012,0.400908,1082,155226903,-74,20,4388
1013,0.401313,1083,155227308,-74,20,4388
1014,0.401709,1084,155227704,-74,20,4388
1015,0.402098,1085,155228093,-79,2,4409
1016,0.402498,1086,155228493,-79,2,4409
1017,0.402892,1087,155228887,-73,10,4394
1018,0.403300,1088,155229295,-73,10,4394
1019,0.403697,1089,155229692,-73,10,4394
1020,0.404085,1090,155230080,-59,30,4402
1021,0.404467,1091,155230462,-59,30,4402
1022,0.404851,1092,155230846,-36,24,4420
1023,0.405247,1093,155231242,-36,24,4420
1024,0.405645,1094,155231640,-36,24,4420
1025,0.406043,1095,155232038,-26,13,4406
1026,0.406442,1096,155232437,-26,13,4406
1027,0.406838,1097,155232833,-34,-3,4382
1028,0.407243,1098,155233238,-34,-3,4382
1029,0.407646,1099,155233641,-34,-3,4382
1030,0.408053,1100,155234048,-58,-6,4375
1031,0.408457,1101,155234452,-58,-6,4375
1032,0.408860,1102,155234855,-55,-6,4375
1033,0.409262,1103,155235257,-55,-6,4375
1034,0.409671,1104,155235666,-55,-6,4375
1035,0.410067,1105,155236062,-50,-14,4372
1036,0.410467,1106,155236462,-50,-14,4372
1037,0.410871,1107,155236866,-75,8,4391
1038,0.411270,1108,155237265,-75,8,4391
1039,0.411667,1109,155237662,-75,8,4391
1040,0.412057,1110,155238052,-65,21,4410
1041,0.412447,1111,155238442,-65,21,4410
1042,0.412845,1112,155238840,-63,22,4393
1043,0.413235,1113,155239230,-63,22,4393
1044,0.413631,1114,155239626,-63,22,4393
1045,0.414033,1115,155240028,-56,23,4347
1046,0.414422,1116,155240417,-56,23,4347
1047,0.414820,1117,155240815,-56,23,4347
1048,0.415217,1118,155241212,-39,8,4333
1049,0.415607,1119,155241602,-39,8,4333
1050,0.416001,1120,155241996,-57,14,4358
1051,0.416397,1121,155242392,-57,14,4358
1052,0.416793,1122,155242788,-57,14,4358
1053,0.417183,1123,155243178,-47,29,4369
1054,0.417580,1124,155243575,-47,29,4369
1055,0.417982,1125,155243977,-51,18,4381
1056,0.418378,1126,155244373,-51,18,4381
1057,0.418767,1127,155244762,-51,18,4381
1058,0.419155,1128,155245150,-63,3,4369
1059,0.419546,1129,155245541,-63,3,4369
1060,0.419946,1130,155245941,-49,-11,4345
1061,0.420350,1131,155246345,-49,-11,4345
1062,0.420746,1132,155246741,-49,-11,4345
1063,0.421123,1133,155247118,-55,-17,4353
1064,0.421530,1134,155247525,-55,-17,4353
1065,0.421942,1135,155247937,-30,-9,4372
1066,0.422345,1136,155248340,-30,-9,4372
1067,0.422749,1137,155248744,-30,-9,4372
1068,0.423148,1138,155249143,-13,3,4371
1069,0.423537,1139,155249532,-13,3,4371
1070,0.423931,1140,155249926,-36,24,4365
1071,0.424320,1141,155250315,-36,24,4365
1072,0.424716,1142,155250711,-36,24,4365
1073,0.425104,1143,155251099,-38,45,4385
1074,0.425504,1144,155251499,-38,45,4385
1075,0.425900,1145,155251895,-23,46,4375
1076,0.426301,1146,155252296,-23,46,4375
1077,0.426698,1147,155252693,-23,46,4375
1078,0.427086,1148,155253081,-33,35,4377
1079,0.427488,1149,155253483,-33,35,4377
1080,0.427889,1150,155253884,-40,28,4386
1081,0.428294,1151,155254289,-40,28,4386
1082,0.428693,1152,155254688,-40,28,4386
1083,0.429080,1153,155255075,-45,18,4398
1084,0.429451,1154,155255446,-45,18,4398
1085,0.429840,1155,155255835,-70,8,4412
1086,0.430242,1156,155256237,-70,8,4412
1087,0.430611,1157,155256606,-70,8,4412
1088,0.431004,1158,155256999,-62,12,4367
1089,0.431405,1159,155257400,-62,12,4367
1090,0.431799,1160,155257794,-62,12,4367
1091,0.432168,1161,155258163,-52,21,4379
1092,0.432559,1162,155258554,-52,21,4379
1093,0.432958,1163,155258953,-39,29,4423
1094,0.433359,1164,155259354,-39,29,4423
1095,0.433745,1165,155259740,-39,29,4423
1096,0.434142,1166,155260137,-25,51,4425
1097,0.434532,1167,155260527,-25,51,4425
1098,0.434934,1168,155260929,-38,42,4390
1099,0.435336,1169,155261331,-38,42,4390
1100,0.435733,1170,155261728,-38,42,4390
1101,0.436122,1171,155262117,-38,7,4363
1102,0.436491,1172,155262486,-38,7,4363
1103,0.436860,1173,155262855,-32,7,4368
1104,0.437264,1174,155263259,-32,7,4368
1105,0.437658,1175,155263653,-32,7,4368
1106,0.438029,1176,155264024,-34,25,4370
1107,0.438427,1177,155264422,-34,25,4370
1108,0.438821,1178,155264816,-47,7,4399
1109,0.439229,1179,155265224,-47,7,4399
1110,0.439624,1180,155265619,-47,7,4399
1111,0.440023,1181,155266018,-57,-3,4425
1112,0.440427,1182,155266422,-57,-3,4425
1113,0.440836,1183,155266831,-44,11,4391
1114,0.441233,1184,155267228,-44,11,4391
1115,0.441630,1185,155267625,-44,11,4391
1116,0.442030,1186,155268025,-57,34,4381
1117,0.442427,1187,155268422,-57,34,4381
1118,0.442822,1188,155268817,-72,42,4403
1119,0.443221,1189,155269216,-72,42,4403
1120,0.443618,1190,155269613,-72,42,4403
1121,0.444017,1191,155270012,-65,22,4385
1122,0.444413,1192,155270408,-65,22,4385
1123,0.444809,1193,155270804,-65,22,4385
1124,0.445200,1194,155271195,-69,37,4373
1125,0.445598,1195,155271593,-69,37,4373
1126,0.445999,1196,155271994,-58,40,4393
1127,0.446387,1197,155272382,-58,40,4393
1128,0.446792,1198,155272787,-58,40,4393
1129,0.447183,1199,155273178,-52,35,4402
1130,0.447586,1200,155273581,-52,35,4402
1131,0.447987,1201,155273982,-72,33,4374
1132,0.448388,1202,155274383,-72,33,4374
1133,0.448790,1203,155274785,-72,33,4374
1134,0.449181,1204,155275176,-91,15,4392
1135,0.449577,1205,155275572,-91,15,4392
1136,0.449983,1206,155275978,-87,-6,4389
1137,0.450392,1207,155276387,-87,-6,4389
1138,0.450802,1208,155276797,-87,-6,4389
1139,0.451212,1209,155277207,-81,3,4340
1140,0.451608,1210,155277603,-81,3,4340
1141,0.452007,1211,155278002,-76,26,4347
1142,0.452405,1212,155278400,-76,26,4347
1143,0.452802,1213,155278797,-76,26,4347
1144,0.453199,1214,155279194,-68,24,4365
1145,0.453593,1215,155279588,-68,24,4365
1146,0.453993,1216,155279988,-65,10,4366
1147,0.454381,1217,155280376,-65,10,4366
1148,0.454763,1218,155280758,-65,10,4366
1149,0.455155,1219,155281150,-67,20,4355
1150,0.455551,1220,155281546,-67,20,4355
1151,0.455956,1221,155281951,-74,40,4365
1152,0.456358,1222,155282353,-74,40,4365
1153,0.456756,1223,155282751,-74,40,4365
1154,0.457145,1224,155283140,-56,32,4394
1155,0.457537,1225,155283532,-56,32,4394
1156,0.457938,1226,155283933,-44,26,4401
1157,0.458334,1227,155284329,-44,26,4401
1158,0.458731,1228,155284726,-44,26,4401
1159,0.459124,1229,155285119,-54,23,4417
1160,0.459523,1230,155285518,-54,23,4417
1161,0.459929,1231,155285924,-71,31,4435
1162,0.460330,1232,155286325,-71,31,4435
1163,0.460727,1233,155286722,-71,31,4435
1164,0.461115,1234,155287110,-72,25,4415
1165,0.461518,1235,155287513,-72,25,4415
1166,0.461924,1236,155287919,-61,27,4396
1167,0.462318,1237,155288313,-61,27,4396
1168,0.462716,1238,155288711,-61,27,4396
1169,0.463104,1239,155289099,-46,25,4412
1170,0.463504,1240,155289499,-46,25,4412
1171,0.463900,1241,155289895,-41,22,4409
1172,0.464305,1242,155290300,-41,22,4409
1173,0.464699,1243,155290694,-41,22,4409
1174,0.465089,1244,155291084,-22,27,4376
1175,0.465490,1245,155291485,-22,27,4376
1176,0.465886,1246,155291881,-37,14,4397
1177,0.466292,1247,155292287,-37,14,4397
1178,0.466682,1248,155292677,-37,14,4397
1179,0.467070,1249,155293065,-70,8,4408
1180,0.467461,1250,155293456,-70,8,4408
1181,0.467852,1251,155293847,-74,18,4403
1182,0.468234,1252,155294229,-74,18,4403
1183,0.468630,1253,155294625,-74,18,4403
1184,0.469037,1254,155295032,-97,41,4396
1185,0.469434,1255,155295429,-97,41,4396
1186,0.469836,1256,155295831,-67,52,4398
1187,0.470238,1257,155296233,-67,52,4398
1188,0.470635,1258,155296630,-67,52,4398
1189,0.471033,1259,155297028,-41,37,4410
1190,0.471415,1260,155297410,-41,37,4410
1191,0.471811,1261,155297806,-45,15,4393
1192,0.472213,1262,155298208,-45,15,4393
1193,0.472609,1263,155298604,-45,15,4393
1194,0.473009,1264,155299004,-50,22,4356
1195,0.473406,1265,155299401,-50,22,4356
1196,0.473803,1266,155299798,-50,22,4356
1197,0.474206,1267,155300201,-79,48,4343
1198,0.474602,1268,155300597,-79,48,4343
1199,0.475007,1269,155301002,-93,45,4382
1200,0.475403,1270,155301398,-93,45,4382
1201,0.475805,1271,155301800,-93,45,4382
1202,0.476203,1272,155302198,-84,25,4397
1203,0.476598,1273,155302593,-84,25,4397
1204,0.476999,1274,155302994,-59,31,4395
1205,0.477403,1275,155303398,-59,31,4395
1206,0.477798,1276,155303793,-59,31,4395
1207,0.478187,1277,155304182,-33,33,4411
1208,0.478590,1278,155304585,-33,33,4411
1209,0.478991,1279,155304986,-33,11,4405
1210,0.479386,1280,155305381,-33,11,4405
1211,0.479783,1281,155305778,-33,11,4405
1212,0.480180,1282,155306175,-45,17,4362
1213,0.480577,1283,155306572,-45,17,4362
1214,0.480971,1284,155306966,-43,39,4346
1215,0.481372,1285,155307367,-43,39,4346
1216,0.481775,1286,155307770,-43,39,4346
1217,0.482166,1287,155308161,-39,18,4359
1218,0.482562,1288,155308557,-39,18,4359
1219,0.482961,1289,155308956,-35,13,4399
1220,0.483358,1290,155309353,-35,13,4399
1221,0.483754,1291,155309749,-35,13,4399
1222,0.484129,1292,155310124,-31,28,4411
1223,0.484529,1293,155310524,-31,28,4411
1224,0.484938,1294,155310933,-18,31,4384
1225,0.485327,1295,155311322,-18,31,4384
1226,0.485724,1296,155311719,-18,31,4384
1227,0.486112,1297,155312107,-35,29,4376
1228,0.486511,1298,155312506,-35,29,4376
1229,0.486909,1299,155312904,-54,16,4360
1230,0.487301,1300,155313296,-54,16,4360
1231,0.487697,1301,155313692,-54,16,4360
1232,0.488066,1302,155314061,-38,19,4361
1233,0.488466,1303,155314461,-38,19,4361
1234,0.488856,1304,155314851,-52,34,4382
1235,0.489253,1305,155315248,-52,34,4382
1236,0.489650,1306,155315645,-52,34,4382
1237,0.490048,1307,155316043,-64,13,4376
1238,0.490440,1308,155316435,-64,13,4376
1239,0.490837,1309,155316832,-54,1,4391
1240,0.491233,1310,155317228,-54,1,4391
1241,0.491629,1311,155317624,-54,1,4391
1242,0.492029,1312,155318024,-56,19,4376
1243,0.492427,1313,155318422,-56,19,4376
1244,0.492823,1314,155318818,-77,10,4360
1245,0.493219,1315,155319214,-77,10,4360
1246,0.493601,1316,155319596,-77,10,4360
1247,0.494008,1317,155320003,-91,-5,4381
1248,0.494412,1318,155320407,-91,-5,4381
1249,0.494821,1319,155320816,-71,9,4390
1250,0.495222,1320,155321217,-71,9,4390
1251,0.495618,1321,155321613,-71,9,4390
1252,0.496009,1322,155322004,-50,22,4360
1253,0.496408,1323,155322403,-50,22,4360
1254,0.496805,1324,155322800,-50,22,4360
1255,0.497195,1325,155323190,-48,9,4347
1256,0.497591,1326,155323586,-48,9,4347
1257,0.497992,1327,155323987,-49,20,4393
1258,0.498386,1328,155324381,-49,20,4393
1259,0.498786,1329,155324781,-49,20,4393
1260,0.499176,1330,155325171,-42,30,4395
1261,0.499573,1331,155325568,-42,30,4395
1262,0.499975,1332,155325970,-43,2,4403
1263,0.500371,1333,155326366,-43,2,4403
1264,0.500761,1334,155326756,-43,2,4403
1265,0.501152,1335,155327147,-53,-3,4410
1266,0.501550,1336,155327545,-53,-3,4410
1267,0.501959,1337,155327954,-78,24,4392
1268,0.502346,1338,155328341,-78,24,4392
1269,0.502746,1339,155328741,-78,24,4392
1270,0.503128,1340,155329123,-92,40,4381
1271,0.503527,1341,155329522,-92,40,4381
1272,0.503929,1342,155329924,-82,40,4360
1273,0.504311,1343,155330306,-82,40,4360
1274,0.504680,1344,155330675,-82,40,4360
1275,0.505063,1345,155331058,-54,47,4384
1276,0.505453,1346,155331448,-54,47,4384
1277,0.505850,1347,155331845,-43,45,4385
1278,0.506238,1348,155332233,-43,45,4385
1279,0.506638,1349,155332633,-43,45,4385
1280,0.507033,1350,155333028,-60,38,4376
1281,0.507423,1351,155333418,-60,38,4376
1282,0.507820,1352,155333815,-68,36,4392
1283,0.508216,1353,155334211,-68,36,4392
1284,0.508618,1354,155334613,-68,36,4392
1285,0.509021,1355,155335016,-64,30,4398
1286,0.509410,1356,155335405,-64,30,4398
1287,0.509812,1357,155335807,-50,19,4387
1288,0.510190,1358,155336185,-50,19,4387
1289,0.510593,1359,155336588,-50,19,4387
1290,0.510994,1360,155336989,-21,24,4378
1291,0.511395,1361,155337390,-21,24,4378
1292,0.511797,1362,155337792,-21,24,4378
1293,0.512193,1363,155338188,-19,18,4388
1294,0.512595,1364,155338590,-19,18,4388
1295,0.513001,1365,155338996,-34,-18,4400
1296,0.513404,1366,155339399,-34,-18,4400
1297,0.513806,1367,155339801,-34,-18,4400
1298,0.514197,1368,155340192,-13,8,4389
1299,0.514594,1369,155340589,-13,8,4389
1300,0.514995,1370,155340990,-17,45,4366
1301,0.515396,1371,155341391,-17,45,4366
1302,0.515798,1372,155341793,-29,-4,4379
1303,0.516208,1373,155342203,-29,-4,4379
1304,0.516612,1374,155342607,-29,-4,4379
1305,0.517032,1375,155343027,-23,-20,4361
1306,0.517432,1376,155343427,-23,-20,4361
1307,0.517837,1377,155343832,-31,12,4343
1308,0.518239,1378,155344234,-31,12,4343
1309,0.518635,1379,155344630,-31,12,4343
1310,0.519036,1380,155345031,-38,4,4374
1311,0.519434,1381,155345429,-38,4,4374
1312,0.519831,1382,155345826,-28,19,4414
1313,0.520227,1383,155346222,-28,19,4414
1314,0.520616,1384,155346611,-28,19,4414
1315,0.521013,1385,155347008,-21,48,4404
1316,0.521396,1386,155347391,-21,48,4404
1317,0.521794,1387,155347789,-21,48,4404
1318,0.522177,1388,155348172,-45,50,4372
1319,0.522574,1389,155348569,-45,50,4372
1320,0.522975,1390,155348970,-62,29,4359
1321,0.523360,1391,155349355,-62,29,4359
1322,0.523748,1392,155349743,-62,29,4359
1323,0.524129,1393,155350124,-36,3,4356
1324,0.524528,1394,155350523,-36,3,4356
1325,0.524934,1395,155350929,-15,14,4339
1326,0.525331,1396,155351326,-15,14,4339
1327,0.525727,1397,155351722,-15,14,4339
1328,0.526116,1398,155352111,-25,32,4339
1329,0.526517,1399,155352512,-25,32,4339
1330,0.526915,1400,155352910,-47,52,4359
1331,0.527316,1401,155353311,-47,52,4359
1332,0.527712,1402,155353707,-47,52,4359
1333,0.528101,1403,155354096,-56,37,4366
1334,0.528503,1404,155354498,-56,37,4366
1335,0.528904,1405,155354899,-76,7,4390
1336,0.529293,1406,155355288,-76,7,4390
1337,0.529691,1407,155355686,-76,7,4390
1338,0.530084,1408,155356079,-81,-17,4406
1339,0.530481,1409,155356476,-81,-17,4406
1340,0.530892,1410,155356887,-79,-15,4389
1341,0.531295,1411,155357290,-79,-15,4389
1342,0.531684,1412,155357679,-79,-15,4389
1343,0.532061,1413,155358056,-78,7,4397
1344,0.532445,1414,155358440,-78,7,4397
1345,0.532845,1415,155358840,-62,6,4421
1346,0.533245,1416,155359240,-62,6,4421
1347,0.533645,1417,155359640,-62,6,4421
1348,0.534045,1418,155360040,-49,16,4420
1349,0.534443,1419,155360438,-49,16,4420
1350,0.534844,1420,155360839,-57,14,4394
1351,0.535241,1421,155361236,-57,14,4394
1352,0.535637,1422,155361632,-57,14,4394
1353,0.536039,1423,155362034,-60,15,4360
1354,0.536421,1424,155362416,-60,15,4360
1355,0.536791,1425,155362786,-60,15,4360
1356,0.537160,1426,155363155,-44,14,4367
1357,0.537538,1427,155363533,-44,14,4367
1358,0.537907,1428,155363902,-38,12,4382
1359,0.538310,1429,155364305,-38,12,4382
1360,0.538711,1430,155364706,-38,12,4382
1361,0.539105,1431,155365100,-58,24,4360
1362,0.539503,1432,155365498,-58,24,4360
1363,0.539900,1433,155365895,-78,29,4368
1364,0.540300,1434,155366295,-78,29,4368
1365,0.540697,1435,155366692,-78,29,4368
1366,0.541091,1436,155367086,-50,16,4375
1367,0.541491,1437,155367486,-50,16,4375
1368,0.541887,1438,155367882,-28,27,4365
1369,0.542289,1439,155368284,-28,27,4365
1370,0.542665,1440,155368660,-28,27,4365
1371,0.543049,1441,155369044,-41,30,4360
1372,0.543440,1442,155369435,-41,30,4360
1373,0.543836,1443,155369831,-63,22,4364
1374,0.544233,1444,155370228,-63,22,4364
1375,0.544636,1445,155370631,-63,22,4364
1376,0.545042,1446,155371037,-34,31,4397
1377,0.545434,1447,155371429,-34,31,4397
1378,0.545836,1448,155371831,-23,19,4413
1379,0.546233,1449,155372228,-23,19,4413
1380,0.546630,1450,155372625,-23,19,4413
1381,0.547031,1451,155373026,-30,32,4398
1382,0.547428,1452,155373423,-30,32,4398
1383,0.547823,1453,155373818,-29,43,4398
1384,0.548221,1454,155374216,-29,43,4398
1385,0.548616,1455,155374611,-29,43,4398
1386,0.549017,1456,155375012,-63,30,4418
1387,0.549414,1457,155375409,-63,30,4418
1388,0.549810,1458,155375805,-66,6,4404
1389,0.550207,1459,155376202,-66,6,4404
1390,0.550603,1460,155376598,-66,6,4404
1391,0.551002,1461,155376997,-51,1,4377
1392,0.551398,1462,155377393,-51,1,4377
1393,0.551794,1463,155377789,-44,5,4375
1394,0.552190,1464,155378185,-44,5,4375
1395,0.552591,1465,155378586,-44,5,4375
1396,0.552992,1466,155378987,-48,42,4407
1397,0.553389,1467,155379384,-48,42,4407
1398,0.553785,1468,155379780,-48,42,4407
1399,0.554175,1469,155380170,-39,40,4397
1400,0.554545,1470,155380540,-39,40,4397
1401,0.554933,1471,155380928,-35,0,4356
1402,0.555320,1472,155381315,-35,0,4356
1403,0.555709,1473,155381704,-35,0,4356
1404,0.556102,1474,155382097,-67,15,4367
1405,0.556503,1475,155382498,-67,15,4367
1406,0.556906,1476,155382901,-59,13,4375
1407,0.557306,1477,155383301,-59,13,4375
1408,0.557702,1478,155383697,-59,13,4375
1409,0.558091,1479,155384086,-31,7,4351
1410,0.558490,1480,155384485,-31,7,4351
1411,0.558886,1481,155384881,-56,-5,4366
1412,0.559300,1482,155385295,-56,-5,4366
1413,0.559710,1483,155385705,-56,-5,4366
1414,0.560106,1484,155386101,-67,-1,4394
1415,0.560515,1485,155386510,-67,-1,4394
1416,0.560928,1486,155386923,-47,10,4396
1417,0.561323,1487,155387318,-47,10,4396
1418,0.561725,1488,155387720,-47,10,4396
1419,0.562118,1489,155388113,-56,5,4372
1420,0.562520,1490,155388515,-56,5,4372
1421,0.562927,1491,155388922,-59,11,4369
1422,0.563329,1492,155389324,-59,11,4369
1423,0.563725,1493,155389720,-59,11,4369
1424,0.564114,1494,155390109,-41,14,4384
1425,0.564514,1495,155390509,-41,14,4384
1426,0.564902,1496,155390897,-47,16,4383
1427,0.565311,1497,155391306,-47,16,4383
1428,0.565708,1498,155391703,-47,16,4383
1429,0.566096,1499,155392091,-50,24,4410
1430,0.566494,1500,155392489,-50,24,4410
1431,0.566883,1501,155392878,-34,16,4438
1432,0.567289,1502,155393284,-34,16,4438
1433,0.567690,1503,155393685,-34,16,4438
1434,0.568084,1504,155394079,-25,9,4445
1435,0.568475,1505,155394470,-25,9,4445
1436,0.568871,1506,155394866,-23,2,4410
1437,0.569272,1507,155395267,-23,2,4410
1438,0.569669,1508,155395664,-23,2,4410
1439,0.570065,1509,155396060,-29,11,4386
1440,0.570456,1510,155396451,-29,11,4386
1441,0.570850,1511,155396845,-40,14,4380
1442,0.571231,1512,155397226,-40,14,4380
1443,0.571622,1513,155397617,-40,14,4380
1444,0.572007,1514,155398002,-26,23,4376
1445,0.572398,1515,155398393,-26,23,4376
1446,0.572805,1516,155398800,-30,27,4391
1447,0.573201,1517,155399196,-30,27,4391
1448,0.573603,1518,155399598,-30,27,4391
1449,0.574010,1519,155400005,-47,4,4399
1450,0.574406,1520,155400401,-47,4,4399
1451,0.574809,1521,155400804,-35,31,4397
1452,0.575197,1522,155401192,-35,31,4397
1453,0.575607,1523,155401602,-35,31,4397
1454,0.576012,1524,155402007,-57,37,4374
1455,0.576400,1525,155402395,-57,37,4374
1456,0.576804,1526,155402799,-65,23,4388
1457,0.577187,1527,155403182,-65,23,4388
1458,0.577586,1528,155403581,-65,23,4388
1459,0.577987,1529,155403982,-48,7,4399
1460,0.578383,1530,155404378,-48,7,4399
1461,0.578780,1531,155404775,-48,7,4399
1462,0.579170,1532,155405165,-31,14,4391
1463,0.579568,1533,155405563,-31,14,4391
1464,0.579963,1534,155405958,-37,25,4383
1465,0.580354,1535,155406349,-37,25,4383
1466,0.580751,1536,155406746,-37,25,4383
1467,0.581133,1537,155407128,-50,7,4362
1468,0.581533,1538,155407528,-50,7,4362
1469,0.581928,1539,155407923,-59,4,4375
1470,0.582324,1540,155408319,-59,4,4375
1471,0.582693,1541,155408688,-59,4,4375
1472,0.583085,1542,155409080,-74,5,4367
1473,0.583475,1543,155409470,-74,5,4367
1474,0.583872,1544,155409867,-58,15,4342
1475,0.584272,1545,155410267,-58,15,4342
1476,0.584653,1546,155410648,-58,15,4342
1477,0.585050,1547,155411045,-45,36,4364
1478,0.585443,1548,155411438,-45,36,4364
1479,0.585840,1549,155411835,-51,61,4367
1480,0.586230,1550,155412225,-51,61,4367
1481,0.586626,1551,155412621,-51,61,4367
1482,0.587027,1552,155413022,-66,40,4352
1483,0.587417,1553,155413412,-66,40,4352
1484,0.587796,1554,155413791,-56,17,4377
1485,0.588179,1555,155414174,-56,17,4377
1486,0.588568,1556,155414563,-56,17,4377
1487,0.588975,1557,155414970,-32,23,4408
1488,0.589376,1558,155415371,-32,23,4408
1489,0.589780,1559,155415775,-32,23,4408
1490,0.590164,1560,155416159,-41,37,4410
1491,0.590553,1561,155416548,-41,37,4410
1492,0.590943,1562,155416938,-59,28,4401
1493,0.591339,1563,155417334,-59,28,4401
1494,0.591741,1564,155417736,-59,28,4401
1495,0.592129,1565,155418124,-60,10,4391
1496,0.592529,1566,155418524,-60,10,4391
1497,0.592922,1567,155418917,-48,3,4376
1498,0.593320,1568,155419315,-48,3,4376
1499,0.593722,1569,155419717,-48,3,4376
1500,0.594115,1570,155420110,-31,0,4396
1501,0.594513,1571,155420508,-31,0,4396
1502,0.594921,1572,155420916,-33,22,4395
1503,0.595316,1573,155421311,-33,22,4395
1504,0.595716,1574,155421711,-33,22,4395
1505,0.596106,1575,155422101,-35,30,4358
1506,0.596507,1576,155422502,-35,30,4358
1507,0.596903,1577,155422898,-20,12,4334
1508,0.597304,1578,155423299,-20,12,4334
1509,0.597702,1579,155423697,-20,12,4334
1510,0.598083,1580,155424078,-8,27,4343
1511,0.598475,1581,155424470,-8,27,4343
1512,0.598871,1582,155424866,-27,28,4373
1513,0.599250,1583,155425245,-27,28,4373
1514,0.599640,1584,155425635,-27,28,4373
1515,0.600040,1585,155426035,-19,19,4374
1516,0.600432,1586,155426427,-19,19,4374
1517,0.600820,1587,155426815,-24,30,4350
1518,0.601220,1588,155427215,-24,30,4350
1519,0.601615,1589,155427610,-24,30,4350
1520,0.602008,1590,155428003,-69,13,4363
1521,0.602405,1591,155428400,-69,13,4363
1522,0.602802,1592,155428797,-68,6,4406
1523,0.603192,1593,155429187,-68,6,4406
1524,0.603582,1594,155429577,-68,6,4406
1525,0.603975,1595,155429970,-43,6,4405
1526,0.604357,1596,155430352,-43,6,4405
1527,0.604727,1597,155430722,-43,6,4405
1528,0.605108,1598,155431103,-43,14,4386
1529,0.605508,1599,155431503,-43,14,4386
1530,0.605904,1600,155431899,-68,30,4374
1531,0.606305,1601,155432300,-68,30,4374
1532,0.606702,1602,155432697,-68,30,4374
1533,0.607084,1603,155433079,-78,40,4346
1534,0.607466,1604,155433461,-78,40,4346
1535,0.607850,1605,155433845,-74,26,4356
1536,0.608253,1606,155434248,-74,26,4356
1537,0.608649,1607,155434644,-74,26,4356
1538,0.609040,1608,155435035,-65,16,4404
1539,0.609443,1609,155435438,-65,16,4404
1540,0.609845,1610,155435840,-51,32,4408
1541,0.610233,1611,155436228,-51,32,4408
1542,0.610632,1612,155436627,-51,32,4408
1543,0.611034,1613,155437029,-55,25,4383
1544,0.611423,1614,155437418,-55,25,4383
1545,0.611821,1615,155437816,-82,28,4375
1546,0.612218,1616,155438213,-82,28,4375
1547,0.612615,1617,155438610,-82,28,4375
1548,0.613015,1618,155439010,-83,23,4369
1549,0.613413,1619,155439408,-83,23,4369
1550,0.613801,1620,155439796,-56,8,4340
1551,0.614193,1621,155440188,-56,8,4340
1552,0.614590,1622,155440585,-56,8,4340
1553,0.614991,1623,155440986,-57,23,4343
1554,0.615388,1624,155441383,-57,23,4343
1555,0.615785,1625,155441780,-61,15,4360
1556,0.616175,1626,155442170,-61,15,4360
1557,0.616572,1627,155442567,-61,15,4360
1558,0.616974,1628,155442969,-34,3,4365
1559,0.617370,1629,155443365,-34,3,4365
1560,0.617767,1630,155443762,-34,3,4365
1561,0.618158,1631,155444153,-33,12,4377
1562,0.618528,1632,155444523,-33,12,4377
1563,0.618923,1633,155444918,-51,15,4392
1564,0.619313,1634,155445308,-51,15,4392
1565,0.619710,1635,155445705,-51,15,4392
1566,0.620099,1636,155446094,-46,-7,4391
1567,0.620506,1637,155446501,-46,-7,4391
1568,0.620902,1638,155446897,-55,-10,4374
1569,0.621300,1639,155447295,-55,-10,4374
1570,0.621696,1640,155447691,-55,-10,4374
1571,0.622098,1641,155448093,-58,2,4382
1572,0.622490,1642,155448485,-58,2,4382
1573,0.622886,1643,155448881,-33,-3,4401
1574,0.623294,1644,155449289,-33,-3,4401
1575,0.623697,1645,155449692,-33,-3,4401
1576,0.624082,1646,155450077,-26,-6,4422
1577,0.624486,1647,155450481,-26,-6,4422
1578,0.624897,1648,155450892,-34,7,4427
1579,0.625295,1649,155451290,-34,7,4427
1580,0.625704,1650,155451699,-34,7,4427
1581,0.626099,1651,155452094,-34,30,4413
1582,0.626505,1652,155452500,-34,30,4413
1583,0.626907,1653,155452902,-36,12,4413
1584,0.627314,1654,155453309,-36,12,4413
1585,0.627716,1655,155453711,-36,12,4413
1586,0.628103,1656,155454098,-57,-15,4404
1587,0.628518,1657,155454513,-57,-15,4404
1588,0.628931,1658,155454926,-60,-10,4396
1589,0.629340,1659,155455335,-60,-10,4396
1590,0.629750,1660,155455745,-60,-10,4396
1591,0.630149,1661,155456144,-51,8,4401
1592,0.630546,1662,155456541,-51,8,4401
1593,0.630960,1663,155456955,-49,21,4404
1594,0.631362,1664,155457357,-49,21,4404
1595,0.631763,1665,155457758,-49,21,4404
1596,0.632150,1666,155458145,-46,28,4395
1597,0.632551,1667,155458546,-46,28,4395
1598,0.632959,1668,155458954,-50,36,4393
1599,0.633347,1669,155459342,-50,36,4393
1600,0.633743,1670,155459738,-50,36,4393
1601,0.634129,1671,155460124,-59,12,4416
1602,0.634543,1672,155460538,-59,12,4416
1603,0.634950,1673,155460945,-51,0,4393
1604,0.635343,1674,155461338,-51,0,4393
1605,0.635752,1675,155461747,-51,0,4393
1606,0.636133,1676,155462128,-36,25,4380
1607,0.636540,1677,155462535,-36,25,4380
1608,0.636947,1678,155462942,-36,42,4399
1609,0.637349,1679,155463344,-36,42,4399
1610,0.637736,1680,155463731,-36,42,4399
1611,0.638106,1681,155464101,-42,36,4410
1612,0.638501,1682,155464496,-42,36,4410
1613,0.638901,1683,155464896,-72,14,4398
1614,0.639305,1684,155465300,-72,14,4398
1615,0.639708,1685,155465703,-72,14,4398
1616,0.640097,1686,155466092,-88,25,4372
1617,0.640497,1687,155466492,-88,25,4372
1618,0.640899,1688,155466894,-66,13,4385
1619,0.641306,1689,155467301,-66,13,4385
1620,0.641702,1690,155467697,-66,13,4385
1621,0.642091,1691,155468086,-57,-1,4395
1622,0.642497,1692,155468492,-57,-1,4395
1623,0.642906,1693,155468901,-62,13,4398
1624,0.643311,1694,155469306,-62,13,4398
1625,0.643709,1695,155469704,-62,13,4398
1626,0.644097,1696,155470092,-72,25,4416
1627,0.644498,1697,155470493,-72,25,4416
1628,0.644895,1698,155470890,-74,40,4412
1629,0.645301,1699,155471296,-74,40,4412
1630,0.645702,1700,155471697,-74,40,4412
1631,0.646091,1701,155472086,-64,18,4344
1632,0.646491,1702,155472486,-64,18,4344
1633,0.646887,1703,155472882,-46,1,4333
1634,0.647293,1704,155473288,-46,1,4333
1635,0.647690,1705,155473685,-46,1,4333
1636,0.648085,1706,155474080,-53,14,4403
1637,0.648475,1707,155474470,-53,14,4403
1638,0.648876,1708,155474871,-61,17,4424
1639,0.649278,1709,155475273,-61,17,4424
1640,0.649679,1710,155475674,-61,17,4424
1641,0.650075,1711,155476070,-49,17,4414
1642,0.650466,1712,155476461,-49,17,4414
1643,0.650863,1713,155476858,-68,20,4400
1644,0.651264,1714,155477259,-68,20,4400
1645,0.651662,1715,155477657,-68,20,4400
1646,0.652058,1716,155478053,-52,19,4399
1647,0.652448,1717,155478443,-52,19,4399
1648,0.652844,1718,155478839,-38,22,4406
1649,0.653253,1719,155479248,-38,22,4406
1650,0.653647,1720,155479642,-38,22,4406
1651,0.654042,1721,155480037,-51,22,4380
1652,0.654411,1722,155480406,-51,22,4380
1653,0.654780,1723,155480775,-62,9,4358
1654,0.655179,1724,155481174,-62,9,4358
1655,0.655568,1725,155481563,-62,9,4358
1656,0.655969,1726,155481964,-42,-20,4383
1657,0.656373,1727,155482368,-42,-20,4383
1658,0.656777,1728,155482772,-24,-8,4390
1659,0.657175,1729,155483170,-24,-8,4390
1660,0.657579,1730,155483574,-24,-8,4390
1661,0.657981,1731,155483976,-40,21,4401
1662,0.658378,1732,155484373,-40,21,4401
1663,0.658775,1733,155484770,-20,29,4392
1664,0.659166,1734,155485161,-20,29,4392
1665,0.659557,1735,155485552,-20,29,4392
1666,0.659950,1736,155485945,-6,41,4340
1667,0.660341,1737,155486336,-6,41,4340
1668,0.660736,1738,155486731,-6,41,4340
1669,0.661124,1739,155487119,-46,48,4368
1670,0.661522,1740,155487517,-46,48,4368
1671,0.661923,1741,155487918,-66,22,4411
1672,0.662320,1742,155488315,-66,22,4411
1673,0.662717,1743,155488712,-66,22,4411
1674,0.663099,1744,155489094,-46,25,4376
1675,0.663499,1745,155489494,-46,25,4376
1676,0.663896,1746,155489891,-40,33,4331
1677,0.664297,1747,155490292,-40,33,4331
1678,0.664694,1748,155490689,-40,33,4331
1679,0.665081,1749,155491076,-65,24,4331
1680,0.665472,1750,155491467,-65,24,4331
1681,0.665869,1751,155491864,-74,52,4350
1682,0.666269,1752,155492264,-74,52,4350
1683,0.666666,1753,155492661,-74,52,4350
1684,0.667056,1754,155493051,-64,55,4368
1685,0.667448,1755,155493443,-64,55,4368
1686,0.667845,1756,155493840,-62,43,4384
1687,0.668242,1757,155494237,-62,43,4384
1688,0.668638,1758,155494633,-62,43,4384
1689,0.669039,1759,155495034,-48,27,4389
1690,0.669429,1760,155495424,-48,27,4389
1691,0.669825,1761,155495820,-79,27,4392
1692,0.670227,1762,155496222,-79,27,4392
1693,0.670629,1763,155496624,-79,27,4392
1694,0.671026,1764,155497021,-85,13,4406
1695,0.671416,1765,155497411,-85,13,4406
1696,0.671812,1766,155497807,-66,-13,4386
1697,0.672218,1767,155498213,-66,-13,4386
1698,0.672629,1768,155498624,-66,-13,4386
1699,0.673043,1769,155499038,-49,0,4365
1700,0.673434,1770,155499429,-49,0,4365
1701,0.673830,1771,155499825,-30,28,4383
1702,0.674226,1772,155500221,-30,28,4383
1703,0.674623,1773,155500618,-30,28,4383
1704,0.675022,1774,155501017,-43,42,4379
1705,0.675419,1775,155501414,-43,42,4379
1706,0.675816,1776,155501811,-61,24,4361
1707,0.676215,1777,155502210,-61,24,4361
1708,0.676604,1778,155502599,-61,24,4361
1709,0.677009,1779,155503004,-83,16,4371
1710,0.677405,1780,155503400,-83,16,4371
1711,0.677803,1781,155503798,-57,17,4402
1712,0.678193,1782,155504188,-57,17,4402
1713,0.678596,1783,155504591,-57,17,4402
1714,0.679001,1784,155504996,-12,19,4420
1715,0.679401,1785,155505396,-12,19,4420
1716,0.679800,1786,155505795,-5,32,4400
1717,0.680190,1787,155506185,-5,32,4400
1718,0.680592,1788,155506587,-5,32,4400
1719,0.680998,1789,155506993,-26,36,4374
1720,0.681399,1790,155507394,-26,36,4374
1721,0.681796,1791,155507791,-30,50,4365
1722,0.682186,1792,155508181,-30,50,4365
1723,0.682581,1793,155508576,-30,50,4365
1724,0.682982,1794,155508977,-44,30,4378
1725,0.683385,1795,155509380,-44,30,4378
1726,0.683781,1796,155509776,-53,9,4400
1727,0.684172,1797,155510167,-53,9,4400
1728,0.684560,1798,155510555,-53,9,4400
1729,0.684963,1799,155510958,-32,21,4396
1730,0.685359,1800,155511354,-32,21,4396
1731,0.685756,1801,155511751,-32,21,4396
1732,0.686153,1802,155512148,-37,25,4403
1733,0.686548,1803,155512543,-37,25,4403
1734,0.686956,1804,155512951,-47,19,4418
1735,0.687351,1805,155513346,-47,19,4418
1736,0.687740,1806,155513735,-47,19,4418
1737,0.688109,1807,155514104,-61,13,4399
1738,0.688513,1808,155514508,-61,13,4399
1739,0.688910,1809,155514905,-66,15,4379
1740,0.689316,1810,155515311,-66,15,4379
1741,0.689713,1811,155515708,-66,15,4379
1742,0.690101,1812,155516096,-46,11,4328
1743,0.690503,1813,155516498,-46,11,4328
1744,0.690904,1814,155516899,-32,21,4304
1745,0.691309,1815,155517304,-32,21,4304
1746,0.691706,1816,155517701,-32,21,4304
1747,0.692099,1817,155518094,-42,20,4336
1748,0.692491,1818,155518486,-42,20,4336
1749,0.692860,1819,155518855,-59,32,4372
1750,0.693249,1820,155519244,-59,32,4372
1751,0.693651,1821,155519646,-59,32,4372
1752,0.694024,1822,155520019,-62,49,4392
1753,0.694405,1823,155520400,-62,49,4392
1754,0.694808,1824,155520803,-52,26,4385
1755,0.695210,1825,155521205,-52,26,4385
1756,0.695607,1826,155521602,-52,26,4385
1757,0.696012,1827,155522007,-49,25,4400
1758,0.696409,1828,155522404,-49,25,4400
1759,0.696811,1829,155522806,-54,39,4390
1760,0.697209,1830,155523204,-54,39,4390
1761,0.697603,1831,155523598,-54,39,4390
1762,0.698004,1832,155523999,-57,29,4371
1763,0.698400,1833,155524395,-57,29,4371
1764,0.698798,1834,155524793,-47,13,4381
1765,0.699188,1835,155525183,-47,13,4381
1766,0.699590,1836,155525585,-47,13,4381
1767,0.699990,1837,155525985,-20,3,4370
1768,0.700393,1838,155526388,-20,3,4370
1769,0.700789,1839,155526784,-30,3,4373
1770,0.701184,1840,155527179,-30,3,4373
1771,0.701587,1841,155527582,-30,3,4373
1772,0.701995,1842,155527990,-57,20,4415
1773,0.702390,1843,155528385,-57,20,4415
1774,0.702786,1844,155528781,-73,29,4419
1775,0.703177,1845,155529172,-73,29,4419
1776,0.703574,1846,155529569,-73,29,4419
1777,0.703974,1847,155529969,-71,18,4400
1778,0.704363,1848,155530358,-71,18,4400
1779,0.704732,1849,155530727,-71,18,4400
1780,0.705115,1850,155531110,-51,29,4412
1781,0.705514,1851,155531509,-51,29,4412
1782,0.705904,1852,155531899,-37,32,4405
1783,0.706303,1853,155532298,-37,32,4405
1784,0.706699,1854,155532694,-37,32,4405
1785,0.707087,1855,155533082,-40,11,4384
1786,0.707480,1856,155533475,-40,11,4384
1787,0.707876,1857,155533871,-48,0,4381
1788,0.708282,1858,155534277,-48,0,4381
1789,0.708678,1859,155534673,-48,0,4381
1790,0.709068,1860,155535063,-57,4,4378
1791,0.709460,1861,155535455,-57,4,4378
1792,0.709841,1862,155535836,-63,24,4371
1793,0.710231,1863,155536226,-63,24,4371
1794,0.710628,1864,155536623,-63,24,4371
1795,0.711027,1865,155537022,-67,30,4372
1796,0.711417,1866,155537412,-67,30,4372
1797,0.711820,1867,155537815,-61,26,4399
1798,0.712217,1868,155538212,-61,26,4399
1799,0.712613,1869,155538608,-61,26,4399
1800,0.713018,1870,155539013,-47,1,4431
1801,0.713414,1871,155539409,-47,1,4431
1802,0.713811,1872,155539806,-33,-9,4431
1803,0.714216,1873,155540211,-33,-9,4431
1804,0.714619,1874,155540614,-33,-9,4431
1805,0.715025,1875,155541020,-38,18,4406
1806,0.715408,1876,155541403,-38,18,4406
1807,0.715804,1877,155541799,-46,24,4375
1808,0.716208,1878,155542203,-46,24,4375
1809,0.716604,1879,155542599,-46,24,4375
1810,0.717003,1880,155542998,-24,15,4380
1811,0.717405,1881,155543400,-24,15,4380
1812,0.717803,1882,155543798,-30,19,4367
1813,0.718193,1883,155544188,-30,19,4367
1814,0.718595,1884,155544590,-30,19,4367
1815,0.718996,1885,155544991,-53,31,4352
1816,0.719393,1886,155545388,-53,31,4352
1817,0.719790,1887,155545785,-48,41,4368
1818,0.720181,1888,155546176,-48,41,4368
1819,0.720578,1889,155546573,-48,41,4368
1820,0.720971,1890,155546966,-14,7,4353
1821,0.721349,1891,155547344,-14,7,4353
1822,0.721732,1892,155547727,-14,7,4353
1823,0.722123,1893,155548118,-6,-19,4394
1824,0.722529,1894,155548524,-6,-19,4394
1825,0.722936,1895,155548931,-52,11,4422
1826,0.723325,1896,155549320,-52,11,4422
1827,0.723716,1897,155549711,-52,11,4422
1828,0.724103,1898,155550098,-78,34,4412
1829,0.724492,1899,155550487,-78,34,4412
1830,0.724893,1900,155550888,-68,27,4417
1831,0.725299,1901,155551294,-68,27,4417
1832,0.725695,1902,155551690,-68,27,4417
1833,0.726083,1903,155552078,-55,18,4366
1834,0.726475,1904,155552470,-55,18,4366
1835,0.726871,1905,155552866,-38,30,4327
1836,0.727278,1906,155553273,-38,30,4327
1837,0.727674,1907,155553669,-38,30,4327
1838,0.728071,1908,155554066,-40,26,4371
1839,0.728460,1909,155554455,-40,26,4371
1840,0.728856,1910,155554851,-40,29,4412
1841,0.729258,1911,155555253,-40,29,4412
1842,0.729655,1912,155555650,-40,29,4412
1843,0.730055,1913,155556050,-49,30,4392
1844,0.730445,1914,155556440,-49,30,4392
1845,0.730833,1915,155556828,-49,32,4375
1846,0.731234,1916,155557229,-49,32,4375
1847,0.731629,1917,155557624,-49,32,4375
1848,0.732035,1918,155558030,-35,40,4394
1849,0.732434,1919,155558429,-35,40,4394
1850,0.732836,1920,155558831,-29,38,4399
1851,0.733233,1921,155559228,-29,38,4399
1852,0.733634,1922,155559629,-29,38,4399
1853,0.734033,1923,155560028,-34,30,4400
1854,0.734436,1924,155560431,-34,30,4400
1855,0.734817,1925,155560812,-30,8,4417
1856,0.735217,1926,155561212,-30,8,4417
1857,0.735607,1927,155561602,-30,8,4417
1858,0.736006,1928,155562001,-36,5,4403
1859,0.736382,1929,155562377,-36,5,4403
1860,0.736751,1930,155562746,-36,5,4403
1861,0.737120,1931,155563115,-42,22,4381
1862,0.737490,1932,155563485,-42,22,4381
1863,0.737885,1933,155563880,-29,28,4401
1864,0.738284,1934,155564279,-29,28,4401
1865,0.738686,1935,155564681,-29,28,4401
1866,0.739087,1936,155565082,-37,15,4381
1867,0.739479,1937,155565474,-37,15,4381
1868,0.739881,1938,155565876,-44,25,4349
1869,0.740288,1939,155566283,-44,25,4349
1870,0.740692,1940,155566687,-44,25,4349
1871,0.741085,1941,155567080,-57,38,4380
1872,0.741475,1942,155567470,-57,38,4380
1873,0.741844,1943,155567839,-49,16,4414
1874,0.742235,1944,155568230,-49,16,4414
1875,0.742631,1945,155568626,-49,16,4414
1876,0.743023,1946,155569018,-44,30,4399
1877,0.743406,1947,155569401,-44,30,4399
1878,0.743804,1948,155569799,-71,54,4396
1879,0.744193,1949,155570188,-71,54,4396
1880,0.744592,1950,155570587,-71,54,4396
1881,0.744987,1951,155570982,-68,24,4412
1882,0.745383,1952,155571378,-68,24,4412
1883,0.745780,1953,155571775,-50,-5,4384
1884,0.746177,1954,155572172,-50,-5,4384
1885,0.746581,1955,155572576,-50,-5,4384
1886,0.746989,1956,155572984,-51,1,4359
1887,0.747385,1957,155573380,-51,1,4359
1888,0.747782,1958,155573777,-56,17,4375
1889,0.748166,1959,155574161,-56,17,4375
1890,0.748555,1960,155574550,-56,17,4375
1891,0.748957,1961,155574952,-36,7,4404
1892,0.749354,1962,155575349,-36,7,4404
1893,0.749751,1963,155575746,-20,0,4392
1894,0.750133,1964,155576128,-20,0,4392
1895,0.750532,1965,155576527,-20,0,4392
1896,0.750932,1966,155576927,-41,2,4387
1897,0.751328,1967,155577323,-41,2,4387
1898,0.751725,1968,155577720,-41,2,4387
1899,0.752112,1969,155578107,-39,-1,4386
1900,0.752516,1970,155578511,-39,-1,4386
1901,0.752924,1971,155578919,-36,12,4396
1902,0.753321,1972,155579316,-36,12,4396
1903,0.753718,1973,155579713,-36,12,4396
1904,0.754099,1974,155580094,-36,21,4426
1905,0.754488,1975,155580483,-36,21,4426
1906,0.754857,1976,155580852,-57,17,4402
1907,0.755266,1977,155581261,-57,17,4402
1908,0.755661,1978,155581656,-57,17,4402
1909,0.756059,1979,155582054,-57,2,4374
1910,0.756449,1980,155582444,-57,2,4374
1911,0.756839,1981,155582834,-38,8,4372
1912,0.757228,1982,155583223,-38,8,4372
1913,0.757624,1983,155583619,-38,8,4372
1914,0.758024,1984,155584019,-52,38,4386
1915,0.758421,1985,155584416,-52,38,4386
1916,0.758818,1986,155584813,-46,43,4382
1917,0.759208,1987,155585203,-46,43,4382
1918,0.759606,1988,155585601,-46,43,4382
1919,0.760006,1989,155586001,-36,38,4383
1920,0.760403,1990,155586398,-36,38,4383
1921,0.760801,1991,155586796,-64,40,4380
1922,0.761185,1992,155587180,-64,40,4380
1923,0.761583,1993,155587578,-64,40,4380
1924,0.761976,1994,155587971,-65,37,4375
1925,0.762366,1995,155588361,-65,37,4375
1926,0.762764,1996,155588759,-36,26,4371
1927,0.763155,1997,155589150,-36,26,4371
1928,0.763547,1998,155589542,-36,26,4371
1929,0.763946,1999,155589941,-41,25,4372
1930,0.764423,2000,155590418,-41,25,4372
1931,0.764822,2001,155590817,-53,22,4372
1932,0.765220,2002,155591215,-53,22,4372
1933,0.765616,2003,155591611,-53,22,4372
1934,0.766009,2004,155592004,-55,3,4343
1935,0.766404,2005,155592399,-55,3,4343
1936,0.766801,2006,155592796,-31,2,4348
1937,0.767191,2007,155593186,-31,2,4348
1938,0.767588,2008,155593583,-31,2,4348
1939,0.767989,2009,155593984,-25,-9,4371
1940,0.768393,2010,155594388,-25,-9,4371
1941,0.768797,2011,155594792,-34,-10,4401
1942,0.769195,2012,155595190,-34,-10,4401
1943,0.769600,2013,155595595,-34,-10,4401
1944,0.770009,2014,155596004,-49,8,4415
1945,0.770405,2015,155596400,-49,8,4415
1946,0.770803,2016,155596798,-59,-4,4373
1947,0.771193,2017,155597188,-59,-4,4373
1948,0.771599,2018,155597594,-59,-4,4373
1949,0.772008,2019,155598003,-64,1,4361
1950,0.772403,2020,155598398,-64,1,4361
1951,0.772801,2021,155598796,-77,27,4366
1952,0.773191,2022,155599186,-77,27,4366
1953,0.773586,2023,155599581,-77,27,4366
1954,0.773990,2024,155599985,-57,40,4357
1955,0.774381,2025,155600376,-57,40,4357
1956,0.774777,2026,155600772,-51,32,4347
1957,0.775167,2027,155601162,-51,32,4347
1958,0.775557,2028,155601552,-51,32,4347
1959,0.775957,2029,155601952,-66,36,4383
1960,0.776354,2030,155602349,-66,36,4383
1961,0.776744,2031,155602739,-66,36,4383
1962,0.777125,2032,155603120,-50,20,4408
1963,0.777523,2033,155603518,-50,20,4408
1964,0.777924,2034,155603919,-59,-4,4400
1965,0.778328,2035,155604323,-59,-4,4400
1966,0.778739,2036,155604734,-59,-4,4400
1967,0.779133,2037,155605128,-74,6,4414
1968,0.779533,2038,155605528,-74,6,4414
1969,0.779934,2039,155605929,-51,15,4401
1970,0.780329,2040,155606324,-51,15,4401
1971,0.780731,2041,155606726,-51,15,4401
1972,0.781119,2042,155607114,-56,40,4394
1973,0.781519,2043,155607514,-56,40,4394
1974,0.781922,2044,155607917,-61,29,4407
1975,0.782317,2045,155608312,-61,29,4407
1976,0.782718,2046,155608713,-61,29,4407
1977,0.783112,2047,155609107,-58,-2,4383
1978,0.783518,2048,155609513,-58,-2,4383
1979,0.783934,2049,155609929,-52,20,4369
1980,0.784329,2050,155610324,-52,20,4369
1981,0.784725,2051,155610720,-52,20,4369
1982,0.785113,2052,155611108,-24,17,4370
1983,0.785512,2053,155611507,-24,17,4370
1984,0.785914,2054,155611909,-24,0,4362
1985,0.786320,2055,155612315,-24,0,4362
1986,0.786721,2056,155612716,-24,0,4362
1987,0.787109,2057,155613104,-64,11,4360
1988,0.787509,2058,155613504,-64,11,4360
1989,0.787891,2059,155613886,-85,7,4362
1990,0.788301,2060,155614296,-85,7,4362
1991,0.788696,2061,155614691,-85,7,4362
1992,0.789089,2062,155615084,-49,10,4374
1993,0.789480,2063,155615475,-49,10,4374
1994,0.789874,2064,155615869,-20,25,4359
1995,0.790269,2065,155616264,-20,25,4359
1996,0.790659,2066,155616654,-20,25,4359
1997,0.791061,2067,155617056,-33,39,4365
1998,0.791451,2068,155617446,-33,39,4365
1999,0.791851,2069,155617846,-35,19,4387
2000,0.792248,2070,155618243,-35,19,4387
2001,0.792649,2071,155618644,-35,19,4387
2002,0.793049,2072,155619044,-33,11,4393
2003,0.793448,2073,155619443,-33,11,4393
2004,0.793842,2074,155619837,-42,33,4414
2005,0.794232,2075,155620227,-42,33,4414
2006,0.794629,2076,155620624,-42,33,4414
2007,0.795036,2077,155621031,-43,38,4420
2008,0.795433,2078,155621428,-43,38,4420
2009,0.795835,2079,155621830,-55,28,4403
2010,0.796236,2080,155622231,-55,28,4403
2011,0.796637,2081,155622632,-55,28,4403
2012,0.797036,2082,155623031,-60,-7,4393
2013,0.797450,2083,155623445,-60,-7,4393
2014,0.797860,2084,155623855,-64,-3,4369
2015,0.798270,2085,155624265,-64,-3,4369
2016,0.798680,2086,155624675,-64,-3,4369
2017,0.799082,2087,155625077,-76,24,4373
2018,0.799479,2088,155625474,-76,24,4373
2019,0.799874,2089,155625869,-63,14,4385
2020,0.800286,2090,155626281,-63,14,4385
2021,0.800680,2091,155626675,-63,14,4385
2022,0.801081,2092,155627076,-47,19,4403
2023,0.801479,2093,155627474,-47,19,4403
2024,0.801881,2094,155627876,-57,29,4408
2025,0.802287,2095,155628282,-57,29,4408
2026,0.802682,2096,155628677,-57,29,4408
2027,0.803084,2097,155629079,-57,17,4375
2028,0.803481,2098,155629476,-57,17,4375
2029,0.803876,2099,155629871,-42,7,4368
2030,0.804281,2100,155630276,-42,7,4368
2031,0.804657,2101,155630652,-42,7,4368
2032,0.805050,2102,155631045,-43,10,4394
2033,0.805440,2103,155631435,-43,10,4394
2034,0.805848,2104,155631843,-18,4,4390
2035,0.806250,2105,155632245,-18,4,4390
2036,0.806644,2106,155632639,-18,4,4390
2037,0.807056,2107,155633051,-28,28,4387
2038,0.807445,2108,155633440,-28,28,4387
2039,0.807846,2109,155633841,-68,54,4434
2040,0.808247,2110,155634242,-68,54,4434
2041,0.808656,2111,155634651,-68,54,4434
2042,0.809057,2112,155635052,-77,7,4428
2043,0.809427,2113,155635422,-77,7,4428
2044,0.809796,2114,155635791,-74,-13,4393
2045,0.810209,2115,155636204,-74,-13,4393
2046,0.810612,2116,155636607,-74,-13,4393
2047,0.811000,2117,155636995,-60,6,4364
2048,0.811369,2118,155637364,-60,6,4364
2049,0.811738,2119,155637733,-60,6,4364
2050,0.812112,2120,155638107,-49,34,4348
2051,0.812514,2121,155638509,-49,34,4348
2052,0.812909,2122,155638904,-54,44,4368
2053,0.813309,2123,155639304,-54,44,4368
2054,0.813710,2124,155639705,-54,44,4368
2055,0.814105,2125,155640100,-37,25,4376
2056,0.814474,2126,155640469,-37,25,4376
2057,0.814865,2127,155640860,-32,21,4379
2058,0.815266,2128,155641261,-32,21,4379
2059,0.815669,2129,155641664,-32,21,4379
2060,0.816065,2130,155642060,-43,11,4370
2061,0.816457,2131,155642452,-43,11,4370
2062,0.816853,2132,155642848,-29,7,4378
2063,0.817249,2133,155643244,-29,7,4378
2064,0.817652,2134,155643647,-29,7,4378
2065,0.818049,2135,155644044,-29,21,4406
2066,0.818448,2136,155644443,-29,21,4406
2067,0.818849,2137,155644844,-35,30,4408
2068,0.819251,2138,155645246,-35,30,4408
2069,0.819652,2139,155645647,-35,30,4408
2070,0.820055,2140,155646050,-51,36,4390
2071,0.820445,2141,155646440,-51,36,4390
2072,0.820841,2142,155646836,-45,34,4383
2073,0.821222,2143,155647217,-45,34,4383
2074,0.821619,2144,155647614,-45,34,4383
2075,0.822024,2145,155648019,-36,31,4387
2076,0.822421,2146,155648416,-36,31,4387
2077,0.822824,2147,155648819,-37,19,4393
2078,0.823214,2148,155649209,-37,19,4393
2079,0.823611,2149,155649606,-37,19,4393
2080,0.824007,2150,155650002,-21,17,4401
2081,0.824409,2151,155650404,-21,17,4401
2082,0.824804,2152,155650799,-20,17,4390
2083,0.825208,2153,155651203,-20,17,4390
2084,0.825603,2154,155651598,-20,17,4390
2085,0.826002,2155,155651997,-47,-3,4373
2086,0.826412,2156,155652407,-47,-3,4373
2087,0.826817,2157,155652812,-69,-9,4398
2088,0.827221,2158,155653216,-69,-9,4398
2089,0.827625,2159,155653620,-69,-9,4398
2090,0.828033,2160,155654028,-37,5,4405
2091,0.828420,2161,155654415,-37,5,4405
2092,0.828821,2162,155654816,-30,16,4415
2093,0.829210,2163,155655205,-30,16,4415
2094,0.829608,2164,155655603,-30,16,4415
2095,0.830008,2165,155656003,-41,7,4406
2096,0.830405,2166,155656400,-41,7,4406
2097,0.830801,2167,155656796,-45,2,4372
2098,0.831192,2168,155657187,-45,2,4372
2099,0.831589,2169,155657584,-45,2,4372
2100,0.831989,2170,155657984,-61,19,4378
2101,0.832386,2171,155658381,-61,19,4378
2102,0.832784,2172,155658779,-68,15,4380
2103,0.833174,2173,155659169,-68,15,4380
2104,0.833562,2174,155659557,-68,15,4380
2105,0.833952,2175,155659947,-72,4,4390
2106,0.834340,2176,155660335,-72,4,4390
2107,0.834721,2177,155660716,-72,4,4390
2108,0.835110,2178,155661105,-67,12,4389
2109,0.835510,2179,155661505,-67,12,4389
2110,0.835906,2180,155661901,-58,32,4400
2111,0.836306,2181,155662301,-58,32,4400
2112,0.836697,2182,155662692,-58,32,4400
2113,0.837085,2183,155663080,-53,28,4418
2114,0.837476,2184,155663471,-53,28,4418
2115,0.837851,2185,155663846,-61,35,4381
2116,0.838221,2186,155664216,-61,35,4381
2117,0.838625,2187,155664620,-61,35,4381
2118,0.839025,2188,155665020,-46,40,4358
2119,0.839414,2189,155665409,-46,40,4358
2120,0.839812,2190,155665807,-50,5,4402
2121,0.840202,2191,155666197,-50,5,4402
2122,0.840599,2192,155666594,-50,5,4402
2123,0.841009,2193,155667004,-38,2,4430
2124,0.841405,2194,155667400,-38,2,4430
2125,0.841808,2195,155667803,0,11,4405
2126,0.842189,2196,155668184,0,11,4405
2127,0.842578,2197,155668573,0,11,4405
2128,0.842971,2198,155668966,-14,13,4410
2129,0.843368,2199,155669363,-14,13,4410
2130,0.843761,2200,155669756,-35,13,4428
2131,0.844161,2201,155670156,-35,13,4428
2132,0.844552,2202,155670547,-35,13,4428
2133,0.844946,2203,155670941,-18,14,4429
2134,0.845342,2204,155671337,-18,14,4429
2135,0.845738,2205,155671733,-32,6,4410
2136,0.846127,2206,155672122,-32,6,4410
2137,0.846525,2207,155672520,-32,6,4410
2138,0.846939,2208,155672934,-62,11,4387
2139,0.847334,2209,155673329,-62,11,4387
2140,0.847736,2210,155673731,-48,25,4398
2141,0.848129,2211,155674124,-48,25,4398
2142,0.848520,2212,155674515,-48,25,4398
2143,0.848930,2213,155674925,-41,34,4383
2144,0.849324,2214,155675319,-41,34,4383
2145,0.849726,2215,155675721,-48,46,4361
2146,0.850119,2216,155676114,-48,46,4361
2147,0.850520,2217,155676515,-48,46,4361
2148,0.850921,2218,155676916,-45,50,4387
2149,0.851324,2219,155677319,-45,50,4387
2150,0.851726,2220,155677721,-47,31,4410
2151,0.852113,2221,155678108,-47,31,4410
2152,0.852512,2222,155678507,-47,31,4410
2153,0.852913,2223,155678908,-45,21,4410
2154,0.853318,2224,155679313,-45,21,4410
2155,0.853715,2225,155679710,-45,21,4410
2156,0.854109,2226,155680104,-28,38,4377
2157,0.854500,2227,155680495,-28,38,4377
2158,0.854869,2228,155680864,-23,51,4366
2159,0.855264,2229,155681259,-23,51,4366
2160,0.855652,2230,155681647,-23,51,4366
2161,0.856055,2231,155682050,-36,43,4383
2162,0.856445,2232,155682440,-36,43,4383
2163,0.856846,2233,155682841,-40,27,4413
2164,0.857243,2234,155683238,-40,27,4413
2165,0.857643,2235,155683638,-40,27,4413
2166,0.858044,2236,155684039,-42,31,4443
2167,0.858427,2237,155684422,-42,31,4443
2168,0.858826,2238,155684821,-59,23,4408
2169,0.859223,2239,155685218,-59,23,4408
2170,0.859619,2240,155685614,-59,23,4408
2171,0.860025,2241,155686020,-60,17,4391
2172,0.860422,2242,155686417,-60,17,4391
2173,0.860819,2243,155686814,-68,31,4388
2174,0.861209,2244,155687204,-68,31,4388
2175,0.861578,2245,155687573,-68,31,4388
2176,0.861967,2246,155687962,-93,14,4370
2177,0.862364,2247,155688359,-93,14,4370
2178,0.862765,2248,155688760,-88,5,4399
2179,0.863157,2249,155689152,-88,5,4399
2180,0.863548,2250,155689543,-88,5,4399
2181,0.863948,2251,155689943,-43,8,4407
2182,0.864349,2252,155690344,-43,8,4407
2183,0.864751,2253,155690746,-33,28,4366
2184,0.865139,2254,155691134,-33,28,4366
2185,0.865538,2255,155691533,-33,28,4366
2186,0.865944,2256,155691939,-75,37,4368
2187,0.866347,2257,155692342,-75,37,4368
2188,0.866748,2258,155692743,-68,16,4384
2189,0.867136,2259,155693131,-68,16,4384
2190,0.867538,2260,155693533,-68,16,4384
2191,0.867945,2261,155693940,-61,7,4388
2192,0.868347,2262,155694342,-61,7,4388
2193,0.868749,2263,155694744,-57,32,4421
2194,0.869136,2264,155695131,-57,32,4421
2195,0.869537,2265,155695532,-57,32,4421
2196,0.869943,2266,155695938,-34,51,4438
2197,0.870345,2267,155696340,-34,51,4438
2198,0.870745,2268,155696740,-26,34,4421
2199,0.871134,2269,155697129,-26,34,4421
2200,0.871525,2270,155697520,-26,34,4421
2201,0.871925,2271,155697920,-60,26,4400
2202,0.872322,2272,155698317,-60,26,4400
2203,0.872719,2273,155698714,-76,35,4379
2204,0.873113,2274,155699108,-76,35,4379
2205,0.873511,2275,155699506,-76,35,4379
2206,0.873914,2276,155699909,-50,42,4375
2207,0.874320,2277,155700315,-50,42,4375
2208,0.874702,2278,155700697,-50,42,4375
2209,0.875078,2279,155701073,-58,27,4392
2210,0.875451,2280,155701446,-58,27,4392
2211,0.875819,2281,155701814,-73,25,4388
2212,0.876200,2282,155702195,-73,25,4388
2213,0.876589,2283,155702584,-73,25,4388
2214,0.876995,2284,155702990,-81,23,4384
2215,0.877391,2285,155703386,-81,23,4384
2216,0.877793,2286,155703788,-56,19,4394
2217,0.878189,2287,155704184,-56,19,4394
2218,0.878591,2288,155704586,-56,19,4394
2219,0.878997,2289,155704992,-68,17,4398
2220,0.879405,2290,155705400,-68,17,4398
2221,0.879800,2291,155705795,-79,10,4395
2222,0.880203,2292,155706198,-79,10,4395
2223,0.880598,2293,155706593,-79,10,4395
2224,0.880999,2294,155706994,-45,24,4385
2225,0.881396,2295,155707391,-45,24,4385
2226,0.881797,2296,155707792,-39,35,4367
2227,0.882200,2297,155708195,-39,35,4367
2228,0.882595,2298,155708590,-39,35,4367
2229,0.882989,2299,155708984,-28,32,4354
2230,0.883385,2300,155709380,-28,32,4354
2231,0.883782,2301,155709777,-43,6,4352
2232,0.884172,2302,155710167,-43,6,4352
2233,0.884568,2303,155710563,-43,6,4352
2234,0.884969,2304,155710964,-59,-14,4383
2235,0.885373,2305,155711368,-59,-14,4383
2236,0.885781,2306,155711776,-62,-2,4413
2237,0.886185,2307,155712180,-62,-2,4413
2238,0.886588,2308,155712583,-62,-2,4413
2239,0.887003,2309,155712998,-44,-3,4406
2240,0.887415,2310,155713410,-44,-3,4406
2241,0.887809,2311,155713804,-37,12,4384
2242,0.888187,2312,155714182,-37,12,4384
2243,0.888589,2313,155714584,-37,12,4384
2244,0.888990,2314,155714985,-58,37,4354
2245,0.889380,2315,155715375,-58,37,4354
2246,0.889777,2316,155715772,-76,45,4349
2247,0.890168,2317,155716163,-76,45,4349
2248,0.890557,2318,155716552,-76,45,4349
2249,0.890966,2319,155716961,-65,41,4365
2250,0.891361,2320,155717356,-65,41,4365
2251,0.891763,2321,155717758,-28,28,4370
2252,0.892159,2322,155718154,-28,28,4370
2253,0.892538,2323,155718533,-28,28,4370
2254,0.892940,2324,155718935,-34,23,4372
2255,0.893336,2325,155719331,-34,23,4372
2256,0.893733,2326,155719728,-43,10,4376
2257,0.894120,2327,155720115,-43,10,4376
2258,0.894522,2328,155720517,-43,10,4376
2259,0.894922,2329,155720917,-50,17,4353
2260,0.895320,2330,155721315,-50,17,4353
2261,0.895709,2331,155721704,-50,17,4353
2262,0.896098,2332,155722093,-53,40,4351
2263,0.896498,2333,155722493,-53,40,4351
2264,0.896893,2334,155722888,-30,36,4370
2265,0.897295,2335,155723290,-30,36,4370
2266,0.897692,2336,155723687,-30,36,4370
2267,0.898089,2337,155724084,-4,16,4416
2268,0.898480,2338,155724475,-4,16,4416
2269,0.898877,2339,155724872,-7,-10,4414
2270,0.899283,2340,155725278,-7,-10,4414
2271,0.899688,2341,155725683,-7,-10,4414
2272,0.900084,2342,155726079,-16,-12,4370
2273,0.900482,2343,155726477,-16,-12,4370
2274,0.900886,2344,155726881,-35,5,4369
2275,0.901283,2345,155727278,-35,5,4369
2276,0.901682,2346,155727677,-35,5,4369
2277,0.902070,2347,155728065,-67,4,4398
2278,0.902459,2348,155728454,-67,4,4398
2279,0.902856,2349,155728851,-57,13,4416
2280,0.903253,2350,155729248,-57,13,4416
2281,0.903649,2351,155729644,-57,13,4416
2282,0.904050,2352,155730045,-45,15,4407
2283,0.904432,2353,155730427,-45,15,4407
2284,0.904801,2354,155730796,-49,9,4404
2285,0.905179,2355,155731174,-49,9,4404
2286,0.905575,2356,155731570,-49,9,4404
2287,0.905977,2357,155731972,-37,12,4401
2288,0.906373,2358,155732368,-37,12,4401
2289,0.906770,2359,155732765,-51,-11,4436
2290,0.907163,2360,155733158,-51,-11,4436
2291,0.907560,2361,155733555,-51,-11,4436
2292,0.907969,2362,155733964,-73,2,4439
2293,0.908366,2363,155734361,-73,2,4439
2294,0.908762,2364,155734757,-70,26,4392
2295,0.909154,2365,155735149,-70,26,4392
2296,0.909548,2366,155735543,-70,26,4392
2297,0.909942,2367,155735937,-61,21,4369
2298,0.910339,2368,155736334,-61,21,4369
2299,0.910735,2369,155736730,-62,4,4363
2300,0.911124,2370,155737119,-62,4,4363
2301,0.911523,2371,155737518,-62,4,4363
2302,0.911929,2372,155737924,-57,21,4371
2303,0.912331,2373,155738326,-57,21,4371
2304,0.912733,2374,155738728,-40,47,4391
2305,0.913121,2375,155739116,-40,47,4391
2306,0.913521,2376,155739516,-40,47,4391
2307,0.913922,2377,155739917,-59,34,4391
2308,0.914319,2378,155740314,-59,34,4391
2309,0.914716,2379,155740711,-59,34,4391
2310,0.915097,2380,155741092,-61,24,4372
2311,0.915498,2381,155741493,-61,24,4372
2312,0.915887,2382,155741882,-36,7,4388
2313,0.916287,2383,155742282,-36,7,4388
2314,0.916683,2384,155742678,-36,7,4388
2315,0.917071,2385,155743066,-32,-17,4418
2316,0.917468,2386,155743463,-32,-17,4418
2317,0.917864,2387,155743859,-44,-4,4427
2318,0.918255,2388,155744250,-44,-4,4427
2319,0.918660,2389,155744655,-44,-4,4427
2320,0.919064,2390,155745059,-71,41,4420
2321,0.919454,2391,155745449,-71,41,4420
2322,0.919854,2392,155745849,-72,42,4398
2323,0.920243,2393,155746238,-72,42,4398
2324,0.920639,2394,155746634,-72,42,4398
2325,0.921034,2395,155747029,-81,9,4390
2326,0.921419,2396,155747414,-81,9,4390
2327,0.921821,2397,155747816,-75,-6,4381
2328,0.922225,2398,155748220,-75,-6,4381
2329,0.922628,2399,155748623,-75,-6,4381
2330,0.923028,2400,155749023,-46,-1,4354
2331,0.923411,2401,155749406,-46,-1,4354
2332,0.923812,2402,155749807,-47,10,4360
2333,0.924202,2403,155750197,-47,10,4360
2334,0.924600,2404,155750595,-47,10,4360
2335,0.925000,2405,155750995,-49,31,4384
2336,0.925397,2406,155751392,-49,31,4384
2337,0.925793,2407,155751788,-46,51,4353
2338,0.926177,2408,155752172,-46,51,4353
2339,0.926573,2409,155752568,-46,51,4353
2340,0.926974,2410,155752969,-51,39,4341
2341,0.927370,2411,155753365,-51,39,4341
2342,0.927767,2412,155753762,-47,31,4413
2343,0.928159,2413,155754154,-47,31,4413
2344,0.928549,2414,155754544,-47,31,4413
2345,0.928948,2415,155754943,-48,28,4399
2346,0.929344,2416,155755339,-48,28,4399
2347,0.929741,2417,155755736,-55,16,4356
2348,0.930129,2418,155756124,-55,16,4356
2349,0.930527,2419,155756522,-55,16,4356
2350,0.930929,2420,155756924,-46,15,4377
2351,0.931325,2421,155757320,-46,15,4377
2352,0.931721,2422,155757716,-34,2,4358
2353,0.932109,2423,155758104,-34,2,4358
2354,0.932509,2424,155758504,-34,2,4358
2355,0.932904,2425,155758899,-54,7,4353
2356,0.933304,2426,155759299,-54,7,4353
2357,0.933693,2427,155759688,-54,7,4353
2358,0.934084,2428,155760079,-83,25,4339
2359,0.934475,2429,155760470,-83,25,4339
2360,0.934871,2430,155760866,-65,19,4324
2361,0.935277,2431,155761272,-65,19,4324
2362,0.935678,2432,155761673,-65,19,4324
2363,0.936059,2433,155762054,-54,20,4388
2364,0.936439,2434,155762434,-54,20,4388
2365,0.936833,2435,155762828,-47,5,4390
2366,0.937239,2436,155763234,-47,5,4390
2367,0.937640,2437,155763635,-47,5,4390
2368,0.938034,2438,155764029,-42,-10,4362
2369,0.938439,2439,155764434,-42,-10,4362
2370,0.938849,2440,155764844,-68,4,4390
2371,0.939239,2441,155765234,-68,4,4390
2372,0.939648,2442,155765643,-68,4,4390
2373,0.940053,2443,155766048,-65,5,4383
2374,0.940450,2444,155766445,-65,5,4383
2375,0.940845,2445,155766840,-38,1,4377
2376,0.941247,2446,155767242,-38,1,4377
2377,0.941643,2447,155767638,-38,1,4377
2378,0.942029,2448,155768024,-38,3,4371
2379,0.942419,2449,155768414,-38,3,4371
2380,0.942819,2450,155768814,-46,26,4386
2381,0.943208,2451,155769203,-46,26,4386
2382,0.943606,2452,155769601,-46,26,4386
2383,0.944005,2453,155770000,-47,25,4432
2384,0.944408,2454,155770403,-47,25,4432
2385,0.944804,2455,155770799,-71,-6,4412
2386,0.945208,2456,155771203,-71,-6,4412
2387,0.945613,2457,155771608,-71,-6,4412
2388,0.946022,2458,155772017,-96,-13,4376
2389,0.946418,2459,155772413,-96,-13,4376
2390,0.946796,2460,155772791,-97,0,4388
2391,0.947179,2461,155773174,-97,0,4388
2392,0.947575,2462,155773570,-97,0,4388
2393,0.947982,2463,155773977,-78,10,4381
2394,0.948379,2464,155774374,-78,10,4381
2395,0.948781,2465,155774776,-66,20,4383
2396,0.949172,2466,155775167,-66,20,4383
2397,0.949575,2467,155775570,-66,20,4383
2398,0.949975,2468,155775970,-60,27,4396
2399,0.950371,2469,155776366,-60,27,4396
2400,0.950767,2470,155776762,-37,22,4386
2401,0.951159,2471,155777154,-37,22,4386
2402,0.951551,2472,155777546,-37,22,4386
2403,0.951956,2473,155777951,-26,27,4368
2404,0.952355,2474,155778350,-26,27,4368
2405,0.952753,2475,155778748,-21,47,4337
2406,0.953141,2476,155779136,-21,47,4337
2407,0.953540,2477,155779535,-21,47,4337
2408,0.953942,2478,155779937,-15,32,4362
2409,0.954338,2479,155780333,-15,32,4362
2410,0.954720,2480,155780715,-35,9,4411
2411,0.955104,2481,155781099,-35,9,4411
2412,0.955503,2482,155781498,-35,9,4411
2413,0.955899,2483,155781894,-47,38,4422
2414,0.956304,2484,155782299,-47,38,4422
2415,0.956700,2485,155782695,-52,47,4405
2416,0.957088,2486,155783083,-52,47,4405
2417,0.957480,2487,155783475,-52,47,4405
2418,0.957877,2488,155783872,-70,23,4382
2419,0.958268,2489,155784263,-70,23,4382
2420,0.958667,2490,155784662,-70,23,4382
2421,0.959065,2491,155785060,-50,25,4363
2422,0.959456,2492,155785451,-50,25,4363
2423,0.959846,2493,155785841,-36,24,4394
2424,0.960242,2494,155786237,-36,24,4394
2425,0.960639,2495,155786634,-36,24,4394
2426,0.961044,2496,155787039,-38,24,4426
2427,0.961434,2497,155787429,-38,24,4426
2428,0.961831,2498,155787826,-24,34,4400
2429,0.962229,2499,155788224,-24,34,4400
2430,0.962625,2500,155788620,-24,34,4400
2431,0.963027,2501,155789022,-47,26,4397
2432,0.963411,2502,155789406,-47,26,4397
2433,0.963813,2503,155789808,-66,15,4396
2434,0.964208,2504,155790203,-66,15,4396
2435,0.964607,2505,155790602,-66,15,4396
2436,0.965001,2506,155790996,-62,17,4377
2437,0.965398,2507,155791393,-62,17,4377
2438,0.965796,2508,155791791,-60,19,4405
2439,0.966180,2509,155792175,-60,19,4405
2440,0.966577,2510,155792572,-60,19,4405
2441,0.966972,2511,155792967,-60,23,4402
2442,0.967368,2512,155793363,-60,23,4402
2443,0.967765,2513,155793760,-34,14,4349
2444,0.968157,2514,155794152,-34,14,4349
2445,0.968540,2515,155794535,-34,14,4349
2446,0.968943,2516,155794938,-16,-2,4339
2447,0.969346,2517,155795341,-16,-2,4339
2448,0.969750,2518,155795745,-37,15,4355
2449,0.970139,2519,155796134,-37,15,4355
2450,0.970539,2520,155796534,-37,15,4355
2451,0.970940,2521,155796935,-39,7,4356
2452,0.971336,2522,155797331,-39,7,4356
2453,0.971724,2523,155797719,-39,10,4350
2454,0.972105,2524,155798100,-39,10,4350
2455,0.972495,2525,155798490,-39,10,4350
2456,0.972905,2526,155798900,-42,20,4380
2457,0.973311,2527,155799306,-42,20,4380
2458,0.973706,2528,155799701,-37,32,4381
2459,0.974100,2529,155800095,-37,32,4381
2460,0.974498,2530,155800493,-37,32,4381
2461,0.974894,2531,155800889,-24,43,4359
2462,0.975295,2532,155801290,-24,43,4359
2463,0.975704,2533,155801699,-26,17,4383
2464,0.976099,2534,155802094,-26,17,4383
2465,0.976497,2535,155802492,-26,17,4383
2466,0.976884,2536,155802879,-50,38,4393
2467,0.977292,2537,155803287,-50,38,4393
2468,0.977693,2538,155803688,-50,38,4393
2469,0.978083,2539,155804078,-56,39,4386
2470,0.978476,2540,155804471,-56,39,4386
2471,0.978871,2541,155804866,-35,20,4396
2472,0.979276,2542,155805271,-35,20,4396
2473,0.979677,2543,155805672,-35,20,4396
2474,0.980080,2544,155806075,-29,46,4393
2475,0.980472,2545,155806467,-29,46,4393
2476,0.980873,2546,155806868,-42,48,4368
2477,0.981262,2547,155807257,-42,48,4368
2478,0.981659,2548,155807654,-42,48,4368
2479,0.982055,2549,155808050,-50,12,4357
2480,0.982452,2550,155808447,-50,12,4357
2481,0.982854,2551,155808849,-62,12,4375
2482,0.983250,2552,155809245,-62,12,4375
2483,0.983646,2553,155809641,-62,12,4375
2484,0.984049,2554,155810044,-70,64,4403
2485,0.984448,2555,155810443,-70,64,4403
2486,0.984845,2556,155810840,-82,68,4409
2487,0.985240,2557,155811235,-82,68,4409
2488,0.985637,2558,155811632,-82,68,4409
2489,0.986038,2559,155812033,-78,36,4411
2490,0.986435,2560,155812430,-78,36,4411
2491,0.986831,2561,155812826,-38,42,4443
2492,0.987227,2562,155813222,-38,42,4443
2493,0.987624,2563,155813619,-38,42,4443
2494,0.988015,2564,155814010,-7,18,4398
2495,0.988392,2565,155814387,-7,18,4398
2496,0.988789,2566,155814784,-14,-7,4351
2497,0.989187,2567,155815182,-14,-7,4351
2498,0.989591,2568,155815586,-14,-7,4351
2499,0.990000,2569,155815995,-29,8,4379
2500,0.990396,2570,155816391,-29,8,4379
2501,0.990792,2571,155816787,-27,21,4396
2502,0.991183,2572,155817178,-27,21,4396
2503,0.991581,2573,155817576,-27,21,4396
2504,0.991988,2574,155817983,-29,13,4388
2505,0.992381,2575,155818376,-29,13,4388
2506,0.992771,2576,155818766,-52,-1,4354
2507,0.993164,2577,155819159,-52,-1,4354
2508,0.993566,2578,155819561,-52,-1,4354
2509,0.993975,2579,155819970,-48,-2,4336
2510,0.994378,2580,155820373,-48,-2,4336
2511,0.994788,2581,155820783,-39,9,4340
2512,0.995178,2582,155821173,-39,9,4340
2513,0.995568,2583,155821563,-39,9,4340
2514,0.995967,2584,155821962,-39,28,4360
2515,0.996365,2585,155822360,-39,28,4360
2516,0.996762,2586,155822757,-42,24,4358
2517,0.997158,2587,155823153,-42,24,4358
2518,0.997554,2588,155823549,-42,24,4358
2519,0.997953,2589,155823948,-72,18,4384
2520,0.998349,2590,155824344,-72,18,4384
2521,0.998745,2591,155824740,-72,27,4408
2522,0.999134,2592,155825129,-72,27,4408
2523,0.999535,2593,155825530,-72,27,4408
2524,0.999937,2594,155825932,-59,32,4382
2525,1.000333,2595,155826328,-59,32,4382
2526,1.000730,2596,155826725,-63,33,4380
2527,1.001118,2597,155827113,-63,33,4380
2528,1.001518,2598,155827513,-63,33,4380
2529,1.001924,2599,155827919,-73,30,4389
2530,1.002320,2600,155828315,-73,30,4389
2531,1.002717,2601,155828712,-57,14,4381
2532,1.003105,2602,155829100,-57,14,4381
2533,1.003504,2603,155829499,-57,14,4381
2534,1.003895,2604,155829890,-28,16,4384
2535,1.004289,2605,155830284,-28,16,4384
2536,1.004678,2606,155830673,-28,16,4384
2537,1.005068,2607,155831063,-26,29,4384
2538,1.005458,2608,155831453,-26,29,4384
2539,1.005854,2609,155831849,-44,4,4353
2540,1.006251,2610,155832246,-44,4,4353
2541,1.006647,2611,155832642,-44,4,4353
2542,1.007046,2612,155833041,-57,-9,4369
2543,1.007451,2613,155833446,-57,-9,4369
2544,1.007860,2614,155833855,-49,18,4389
2545,1.008256,2615,155834251,-49,18,4389
2546,1.008653,2616,155834648,-49,18,4389
2547,1.009051,2617,155835046,-42,31,4384
2548,1.009443,2618,155835438,-42,31,4384
2549,1.009839,2619,155835834,-27,31,4407
2550,1.010229,2620,155836224,-27,31,4407
2551,1.010620,2621,155836615,-27,31,4407
2552,1.011013,2622,155837008,-33,33,4405
2553,1.011410,2623,155837405,-33,33,4405
2554,1.011801,2624,155837796,-81,30,4375
2555,1.012185,2625,155838180,-81,30,4375
2556,1.012583,2626,155838578,-81,30,4375
2557,1.012977,2627,155838972,-84,28,4363
2558,1.013379,2628,155839374,-84,28,4363
2559,1.013781,2629,155839776,-45,39,4350
2560,1.014170,2630,155840165,-45,39,4350
2561,1.014569,2631,155840564,-45,39,4350
2562,1.014963,2632,155840958,-37,46,4373
2563,1.015360,2633,155841355,-37,46,4373
2564,1.015762,2634,155841757,-54,28,4415
2565,1.016154,2635,155842149,-54,28,4415
2566,1.016554,2636,155842549,-54,28,4415
2567,1.016951,2637,155842946,-60,-1,4408
2568,1.017355,2638,155843350,-60,-1,4408
2569,1.017758,2639,155843753,-45,1,4389
2570,1.018134,2640,155844129,-45,1,4389
2571,1.018535,2641,155844530,-45,1,4389
2572,1.018936,2642,155844931,-40,15,4379
2573,1.019337,2643,155845332,-40,15,4379
2574,1.019734,2644,155845729,-37,3,4367
2575,1.020122,2645,155846117,-37,3,4367
2576,1.020521,2646,155846516,-37,3,4367
2577,1.020929,2647,155846924,-56,1,4384
2578,1.021318,2648,155847313,-56,1,4384
2579,1.021720,2649,155847715,-56,18,4403
2580,1.022107,2650,155848102,-56,18,4403
2581,1.022506,2651,155848501,-56,18,4403
2582,1.022895,2652,155848890,-25,18,4377
2583,1.023298,2653,155849293,-25,18,4377
2584,1.023687,2654,155849682,-29,22,4371
2585,1.024090,2655,155850085,-29,22,4371
2586,1.024474,2656,155850469,-29,22,4371
2587,1.024873,2657,155850868,-33,21,4377
2588,1.025278,2658,155851273,-33,21,4377
2589,1.025680,2659,155851675,-46,-1,4367
2590,1.026090,2660,155852085,-46,-1,4367
2591,1.026491,2661,155852486,-46,-1,4367
2592,1.026901,2662,155852896,-77,22,4389
2593,1.027301,2663,155853296,-77,22,4389
2594,1.027702,2664,155853697,-62,37,4377
2595,1.028096,2665,155854091,-62,37,4377
2596,1.028497,2666,155854492,-62,37,4377
2597,1.028894,2667,155854889,-57,16,4372
2598,1.029289,2668,155855284,-57,16,4372
2599,1.029686,2669,155855681,-77,12,4386
2600,1.030082,2670,155856077,-77,12,4386
2601,1.030474,2671,155856469,-77,12,4386
2602,1.030878,2672,155856873,-49,29,4394
2603,1.031279,2673,155857274,-49,29,4394
2604,1.031674,2674,155857669,-49,29,4394
2605,1.032076,2675,155858071,-44,8,4413
2606,1.032474,2676,155858469,-44,8,4413
2607,1.032863,2677,155858858,-50,-12,4414
2608,1.033276,2678,155859271,-50,-12,4414
2609,1.033685,2679,155859680,-41,-7,4403
2610,1.034095,2680,155860090,-41,-7,4403
2611,1.034502,2681,155860497,-41,-7,4403
2612,1.034906,2682,155860901,-39,-16,4395
2613,1.035319,2683,155861314,-39,-16,4395
2614,1.035723,2684,155861718,-27,-8,4374
2615,1.036118,2685,155862113,-27,-8,4374
2616,1.036530,2686,155862525,-27,-8,4374
2617,1.036937,2687,155862932,-31,7,4363
2618,1.037338,2688,155863333,-31,7,4363
2619,1.037740,2689,155863735,-54,32,4409
2620,1.038134,2690,155864129,-54,32,4409
2621,1.038523,2691,155864518,-54,32,4409
2622,1.038929,2692,155864924,-44,24,4410
2623,1.039331,2693,155865326,-44,24,4410
2624,1.039731,2694,155865726,-29,20,4403
2625,1.040125,2695,155866120,-29,20,4403
2626,1.040524,2696,155866519,-29,20,4403
2627,1.040937,2697,155866932,-33,29,4408
2628,1.041324,2698,155867319,-33,29,4408
2629,1.041723,2699,155867718,-47,22,4376
2630,1.042111,2700,155868106,-47,22,4376
2631,1.042520,2701,155868515,-47,22,4376
2632,1.042915,2702,155868910,-57,7,4346
2633,1.043320,2703,155869315,-57,7,4346
2634,1.043701,2704,155869696,-50,6,4358
2635,1.044090,2705,155870085,-50,6,4358
2636,1.044489,2706,155870484,-50,6,4358
2637,1.044885,2707,155870880,-53,23,4356
2638,1.045292,2708,155871287,-53,23,4356
2639,1.045689,2709,155871684,-46,41,4355
2640,1.046084,2710,155872079,-46,41,4355
2641,1.046475,2711,155872470,-46,41,4355
2642,1.046878,2712,155872873,-45,31,4401
2643,1.047278,2713,155873273,-45,31,4401
2644,1.047679,2714,155873674,-35,12,4398
2645,1.048081,2715,155874076,-35,12,4398
2646,1.048472,2716,155874467,-35,12,4398
2647,1.048869,2717,155874864,-38,15,4383
2648,1.049270,2718,155875265,-38,15,4383
2649,1.049666,2719,155875661,-38,15,4383
2650,1.050063,2720,155876058,-57,21,4395
2651,1.050453,2721,155876448,-57,21,4395
2652,1.050856,2722,155876851,-46,23,4438
2653,1.051250,2723,155877245,-46,23,4438
2654,1.051643,2724,155877638,-46,23,4438
2655,1.052045,2725,155878040,-45,11,4447
2656,1.052442,2726,155878437,-45,11,4447
2657,1.052838,2727,155878833,-37,20,4403
2658,1.053235,2728,155879230,-37,20,4403
2659,1.053631,2729,155879626,-37,20,4403
2660,1.054032,2730,155880027,-34,21,4402
2661,1.054427,2731,155880422,-34,21,4402
2662,1.054825,2732,155880820,-37,3,4392
2663,1.055219,2733,155881214,-37,3,4392
2664,1.055629,2734,155881624,-37,3,4392
2665,1.056021,2735,155882016,-20,-5,4372
2666,1.056439,2736,155882434,-20,-5,4372
2667,1.056841,2737,155882836,-21,0,4376
2668,1.057243,2738,155883238,-21,0,4376
2669,1.057639,2739,155883634,-21,0,4376
2670,1.058038,2740,155884033,-38,14,4385
2671,1.058436,2741,155884431,-38,14,4385
2672,1.058833,2742,155884828,-49,23,4368
2673,1.059222,2743,155885217,-49,23,4368
2674,1.059624,2744,155885619,-49,23,4368
2675,1.060025,2745,155886020,-36,1,4352
2676,1.060420,2746,155886415,-36,1,4352
2677,1.060830,2747,155886825,-20,21,4360
2678,1.061225,2748,155887220,-20,21,4360
2679,1.061627,2749,155887622,-20,21,4360
2680,1.062033,2750,155888028,-24,30,4384
2681,1.062423,2751,155888418,-24,30,4384
2682,1.062819,2752,155888814,-43,-5,4385
2683,1.063223,2753,155889218,-43,-5,4385
2684,1.063626,2754,155889621,-43,-5,4385
2685,1.064047,2755,155890042,-47,19,4362
2686,1.064436,2756,155890431,-47,19,4362
2687,1.064833,2757,155890828,-26,26,4374
2688,1.065229,2758,155891224,-26,26,4374
2689,1.065626,2759,155891621,-26,26,4374
2690,1.066032,2760,155892027,-30,11,4376
2691,1.066428,2761,155892423,-30,11,4376
2692,1.066825,2762,155892820,-27,35,4359
2693,1.067215,2763,155893210,-27,35,4359
2694,1.067614,2764,155893609,-27,35,4359
2695,1.068013,2765,155894008,-23,22,4373
2696,1.068409,2766,155894404,-23,22,4373
2697,1.068805,2767,155894800,-39,11,4379
2698,1.069194,2768,155895189,-39,11,4379
2699,1.069593,2769,155895588,-39,11,4379
2700,1.069994,2770,155895989,-49,28,4396
2701,1.070390,2771,155896385,-49,28,4396
2702,1.070786,2772,155896781,-60,21,4377
2703,1.071177,2773,155897172,-60,21,4377
2704,1.071573,2774,155897568,-60,21,4377
2705,1.071981,2775,155897976,-42,24,4353
2706,1.072383,2776,155898378,-42,24,4353
2707,1.072784,2777,155898779,-31,14,4391
2708,1.073173,2778,155899168,-31,14,4391
2709,1.073575,2779,155899570,-31,14,4391
2710,1.073989,2780,155899984,-49,2,4383
2711,1.074383,2781,155900378,-49,2,4383
2712,1.074792,2782,155900787,-56,20,4380
2713,1.075181,2783,155901176,-56,20,4380
2714,1.075577,2784,155901572,-56,20,4380
2715,1.075978,2785,155901973,-51,31,4396
2716,1.076373,2786,155902368,-51,31,4396
2717,1.076763,2787,155902758,-36,27,4394
2718,1.077155,2788,155903150,-36,27,4394
2719,1.077546,2789,155903541,-36,27,4394
2720,1.077951,2790,155903946,-35,25,4401
2721,1.078347,2791,155904342,-35,25,4401
2722,1.078744,2792,155904739,-62,31,4411
2723,1.079132,2793,155905127,-62,31,4411
2724,1.079532,2794,155905527,-62,31,4411
2725,1.079933,2795,155905928,-59,48,4408
2726,1.080335,2796,155906330,-59,48,4408
2727,1.080732,2797,155906727,-51,32,4388
2728,1.081120,2798,155907115,-51,32,4388
2729,1.081521,2799,155907516,-51,32,4388
2730,1.081921,2800,155907916,-49,11,4367
2731,1.082324,2801,155908319,-49,11,4367
2732,1.082714,2802,155908709,-36,42,4390
2733,1.083095,2803,155909090,-36,42,4390
2734,1.083484,2804,155909479,-36,42,4390
2735,1.083886,2805,155909881,-56,45,4395
2736,1.084293,2806,155910288,-56,45,4395
2737,1.084689,2807,155910684,-60,11,4374
2738,1.085077,2808,155911072,-60,11,4374
2739,1.085468,2809,155911463,-60,11,4374
2740,1.085869,2810,155911864,-51,-2,4371
2741,1.086283,2811,155912278,-51,-2,4371
2742,1.086691,2812,155912686,-32,4,4383
2743,1.087079,2813,155913074,-32,4,4383
2744,1.087473,2814,155913468,-32,4,4383
2745,1.087869,2815,155913864,-12,8,4385
2746,1.088248,2816,155914243,-12,8,4385
2747,1.088644,2817,155914639,-12,8,4385
2748,1.089041,2818,155915036,-76,7,4369
2749,1.089440,2819,155915435,-76,7,4369
2750,1.089835,2820,155915830,-109,26,4381
2751,1.090233,2821,155916228,-109,26,4381
2752,1.090629,2822,155916624,-109,26,4381
2753,1.091028,2823,155917023,-56,18,4387
2754,1.091427,2824,155917422,-56,18,4387
2755,1.091831,2825,155917826,-50,10,4394
2756,1.092226,2826,155918221,-50,10,4394
2757,1.092620,2827,155918615,-50,10,4394
2758,1.093023,2828,155919018,-47,29,4416
2759,1.093405,2829,155919400,-47,29,4416
2760,1.093809,2830,155919804,-22,16,4423
2761,1.094212,2831,155920207,-22,16,4423
2762,1.094605,2832,155920600,-22,16,4423
2763,1.095006,2833,155921001,-23,-14,4414
2764,1.095410,2834,155921405,-23,-14,4414
2765,1.095820,2835,155921815,-32,9,4392
2766,1.096222,2836,155922217,-32,9,4392
2767,1.096618,2837,155922613,-32,9,4392
2768,1.097017,2838,155923012,-40,35,4343
2769,1.097413,2839,155923408,-40,35,4343
2770,1.097810,2840,155923805,-52,18,4318
2771,1.098200,2841,155924195,-52,18,4318
2772,1.098603,2842,155924598,-52,18,4318
2773,1.099001,2843,155924996,-52,0,4342
2774,1.099398,2844,155925393,-52,0,4342
2775,1.099795,2845,155925790,-40,-3,4373
2776,1.100197,2846,155926192,-40,-3,4373
2777,1.100602,2847,155926597,-40,-3,4373
2778,1.101004,2848,155926999,-49,5,4385
2779,1.101405,2849,155927400,-49,5,4385
2780,1.101807,2850,155927802,-44,29,4380
2781,1.102197,2851,155928192,-44,29,4380
2782,1.102600,2852,155928595,-44,29,4380
2783,1.103007,2853,155929002,-31,35,4405
2784,1.103401,2854,155929396,-31,35,4405
2785,1.103804,2855,155929799,-50,1,4408
2786,1.104199,2856,155930194,-50,1,4408
2787,1.104601,2857,155930596,-50,1,4408
2788,1.104996,2858,155930991,-48,-13,4386
2789,1.105399,2859,155931394,-48,-13,4386
2790,1.105816,2860,155931811,-49,-2,4374
2791,1.106220,2861,155932215,-49,-2,4374
2792,1.106630,2862,155932625,-49,-2,4374
2793,1.107036,2863,155933031,-63,14,4376
2794,1.107434,2864,155933429,-63,14,4376
2795,1.107836,2865,155933831,-57,13,4388
2796,1.108238,2866,155934233,-57,13,4388
2797,1.108634,2867,155934629,-57,13,4388
2798,1.109035,2868,155935030,-33,13,4381
2799,1.109422,2869,155935417,-33,13,4381
2800,1.109821,2870,155935816,-22,21,4370
2801,1.110219,2871,155936214,-22,21,4370
2802,1.110614,2872,155936609,-22,21,4370
2803,1.111015,2873,155937010,-26,16,4398
2804,1.111411,2874,155937406,-26,16,4398
2805,1.111808,2875,155937803,-44,13,4416
2806,1.112198,2876,155938193,-44,13,4416
2807,1.112601,2877,155938596,-44,13,4416
2808,1.112993,2878,155938988,-78,18,4409
2809,1.113383,2879,155939378,-78,18,4409
2810,1.113780,2880,155939775,-54,20,4418
2811,1.114171,2881,155940166,-54,20,4418
2812,1.114561,2882,155940556,-54,20,4418
2813,1.114961,2883,155940956,-36,6,4400
2814,1.115357,2884,155941352,-36,6,4400
2815,1.115746,2885,155941741,-47,1,4388
2816,1.116136,2886,155942131,-47,1,4388
2817,1.116528,2887,155942523,-47,1,4388
2818,1.116928,2888,155942923,-35,26,4382
2819,1.117318,2889,155943313,-35,26,4382
2820,1.117708,2890,155943703,-43,46,4420
2821,1.118097,2891,155944092,-43,46,4420
2822,1.118495,2892,155944490,-43,46,4420
2823,1.118897,2893,155944892,-59,56,4404
2824,1.119296,2894,155945291,-59,56,4404
2825,1.119700,2895,155945695,-57,63,4350
2826,1.120094,2896,155946089,-57,63,4350
2827,1.120492,2897,155946487,-57,63,4350
2828,1.120894,2898,155946889,-61,32,4386
2829,1.121293,2899,155947288,-61,32,4386
2830,1.121690,2900,155947685,-65,6,4378
2831,1.122091,2901,155948086,-65,6,4378
2832,1.122482,2902,155948477,-65,6,4378
2833,1.122884,2903,155948879,-62,25,4353
2834,1.123290,2904,155949285,-62,25,4353
2835,1.123687,2905,155949682,-76,31,4350
2836,1.124080,2906,155950075,-76,31,4350
2837,1.124472,2907,155950467,-76,31,4350
2838,1.124876,2908,155950871,-80,27,4354
2839,1.125275,2909,155951270,-80,27,4354
2840,1.125677,2910,155951672,-60,24,4377
2841,1.126067,2911,155952062,-60,24,4377
2842,1.126459,2912,155952454,-60,24,4377
2843,1.126861,2913,155952856,-52,17,4394
2844,1.127268,2914,155953263,-52,17,4394
2845,1.127668,2915,155953663,-71,8,4394
2846,1.128066,2916,155954061,-71,8,4394
2847,1.128456,2917,155954451,-71,8,4394
2848,1.128858,2918,155954853,-75,27,4386
2849,1.129254,2919,155955249,-75,27,4386
2850,1.129650,2920,155955645,-75,27,4386
2851,1.130050,2921,155956045,-38,26,4383
2852,1.130440,2922,155956435,-38,26,4383
2853,1.130841,2923,155956836,-29,-1,4384
2854,1.131250,2924,155957245,-29,-1,4384
2855,1.131655,2925,155957650,-62,4,4398
2856,1.132056,2926,155958051,-62,4,4398
2857,1.132448,2927,155958443,-62,4,4398
2858,1.132850,2928,155958845,-84,19,4403
2859,1.133246,2929,155959241,-84,19,4403
2860,1.133642,2930,155959637,-84,19,4403
2861,1.134043,2931,155960038,-71,31,4381
2862,1.134441,2932,155960436,-71,31,4381
2863,1.134838,2933,155960833,-73,16,4373
2864,1.135239,2934,155961234,-73,16,4373
2865,1.135640,2935,155961635,-73,16,4373
2866,1.136046,2936,155962041,-84,9,4404
2867,1.136436,2937,155962431,-84,9,4404
2868,1.136833,2938,155962828,-63,10,4396
2869,1.137231,2939,155963226,-63,10,4396
2870,1.137625,2940,155963620,-63,10,4396
2871,1.138027,2941,155964022,-75,6,4384
2872,1.138431,2942,155964426,-75,6,4384
2873,1.138826,2943,155964821,-85,21,4410
2874,1.139228,2944,155965223,-85,21,4410
2875,1.139629,2945,155965624,-85,21,4410
2876,1.140037,2946,155966032,-66,37,4397
2877,1.140434,2947,155966429,-66,37,4397
2878,1.140831,2948,155966826,-65,20,4372
2879,1.141233,2949,155967228,-65,20,4372
2880,1.141621,2950,155967616,-65,20,4372
2881,1.142015,2951,155968010,-51,14,4379
2882,1.142418,2952,155968413,-51,14,4379
2883,1.142815,2953,155968810,-63,14,4386
2884,1.143218,2954,155969213,-63,14,4386
2885,1.143613,2955,155969608,-63,14,4386
2886,1.144018,2956,155970013,-61,-2,4372
2887,1.144422,2957,155970417,-61,-2,4372
2888,1.144825,2958,155970820,-33,27,4370
2889,1.145228,2959,155971223,-33,27,4370
2890,1.145624,2960,155971619,-33,27,4370
2891,1.146009,2961,155972004,-46,29,4393
2892,1.146378,2962,155972373,-46,29,4393
2893,1.146774,2963,155972769,-28,10,4378
2894,1.147170,2964,155973165,-28,10,4378
2895,1.147568,2965,155973563,-28,10,4378
2896,1.147969,2966,155973964,-27,15,4378
2897,1.148370,2967,155974365,-27,15,4378
2898,1.148772,2968,155974767,-54,21,4391
2899,1.149164,2969,155975159,-54,21,4391
2900,1.149560,2970,155975555,-54,21,4391
2901,1.149966,2971,155975961,-43,41,4376
2902,1.150361,2972,155976356,-43,41,4376
2903,1.150769,2973,155976764,-43,32,4371
2904,1.151161,2974,155977156,-43,32,4371
2905,1.151559,2975,155977554,-43,32,4371
2906,1.151966,2976,155977961,-60,22,4393
2907,1.152360,2977,155978355,-60,22,4393
2908,1.152770,2978,155978765,-52,31,4408
2909,1.153158,2979,155979153,-52,31,4408
2910,1.153555,2980,155979550,-52,31,4408
2911,1.153968,2981,155979963,-27,19,4398
2912,1.154372,2982,155980367,-27,19,4398
2913,1.154758,2983,155980753,-22,0,4413
2914,1.155140,2984,155981135,-22,0,4413
2915,1.155538,2985,155981533,-22,0,4413
2916,1.155944,2986,155981939,-45,8,4375
