sample_index,micros,ax,ay,az
291517,293132028,-51,56,4405
291518,293133029,-59,53,4398
291519,293134028,-46,41,4388
291520,293135028,-55,36,4373
291521,293136028,-60,66,4363
291522,293137028,-53,68,4386
291523,293138028,-50,44,4368
291524,293139029,-52,42,4364
291525,293140028,-44,51,4391
291526,293141029,-47,56,4388
291527,293142029,-49,49,4381
291528,293143029,-47,51,4393
291529,293144029,-58,53,4424
291530,293145029,-51,54,4439
291531,293146029,-48,52,4402
291532,293147029,-60,34,4367
291533,293148028,-71,37,4328
291534,293149029,-64,55,4310
291535,293150029,-51,59,4352
291536,293151029,-62,48,4357
291537,293152029,-72,41,4365
291538,293153028,-66,45,4358
291539,293154028,-32,42,4341
291540,293155029,-27,49,4360
291541,293156029,-41,64,4378
291542,293157029,-31,50,4365
291543,293158029,-36,48,4356
291544,293159029,-39,49,4388
291545,293160029,-37,51,4388
291546,293161028,-59,50,4363
291547,293162028,-66,62,4349
291548,293163029,-52,85,4372
291549,293164029,-45,75,4411
291550,293165029,-41,68,4408
291551,293166029,-41,66,4365
291552,293167029,-34,55,4356
291553,293168029,-37,51,4371
291554,293169029,-49,64,4354
291555,293170028,-65,67,4352
291556,293171029,-74,37,4358
291557,293172028,-52,23,4345
291558,293173029,-54,29,4365
291559,293174029,-72,41,4388
291560,293175029,-74,59,4364
291561,293176029,-70,54,4349
291562,293177029,-61,57,4364
291563,293178029,-37,56,4381
291564,293179029,-35,54,4376
291565,293180029,-52,66,4385
291566,293181028,-23,62,4380
291567,293182028,-28,57,4377
291568,293183028,-53,39,4417
291569,293184029,-59,33,4424
291570,293185029,-56,38,4401
291571,293186028,-46,36,4396
291572,293187029,-50,59,4368
291573,293188028,-58,54,4344
291574,293189028,-59,49,4346
291575,293190029,-56,62,4350
291576,293191029,-46,50,4353
291577,293192028,-40,56,4337
291578,293193029,-52,74,4336
291579,293194029,-47,77,4334
291580,293195029,-61,62,4320
291581,293196028,-58,48,4340
291582,293197029,-34,50,4363
291583,293198028,-45,51,4351
291584,293199029,-54,62,4370
291585,293200029,-52,63,4397
291586,293201029,-39,58,4381
291587,293202029,-50,66,4377
291588,293203029,-57,63,4398
291589,293204028,-45,51,4414
291590,293205029,-46,45,4408
291591,293206029,-60,56,4414
291592,293207029,-49,75,4407
291593,293208029,-33,71,4370
291594,293209029,-48,63,4340
291595,293210028,-51,50,4319
291596,293211028,-52,49,4340
291597,293212029,-51,45,4372
291598,293213028,-43,42,4372
291599,293214029,-56,38,4376
291600,293215029,-63,38,4375
291601,293216029,-42,46,4349
291602,293217029,-31,47,4369
291603,293218029,-40,63,4394
291604,293219029,-61,73,4386
291605,293220028,-67,69,4377
291606,293221029,-57,70,4370
291607,293222028,-64,76,4378
291608,293223029,-77,63,4354
291609,293224029,-67,49,4339
291610,293225029,-52,41,4375
291611,293226029,-48,52,4402
291612,293227029,-28,64,4385
291613,293228029,-25,68,4367
291614,293229029,-29,60,4342
291615,293230029,-15,43,4335
291616,293231029,-26,32,4359
291617,293232029,-43,30,4357
291618,293233028,-36,33,4378
291619,293234029,-49,30,4386
291620,293235029,-56,43,4362
291621,293236029,-44,51,4356
291622,293237029,-55,49,4354
291623,293238029,-69,58,4385
291624,293239029,-59,72,4390
291625,293240029,-40,77,4371
291626,293241028,-37,63,4386
291627,293242029,-32,46,4386
291628,293243029,-39,41,4359
291629,293244029,-53,49,4350
291630,293245029,-51,63,4358
291631,293246028,-60,55,4356
291632,293247029,-71,49,4364
291633,293248028,-77,58,4368
291634,293249029,-75,54,4358
291635,293250029,-53,41,4347
291636,293251029,-40,44,4367
291637,293252029,-53,40,4389
291638,293253029,-62,39,4381
291639,293254029,-60,47,4374
291640,293255028,-54,54,4357
291641,293256029,-50,67,4367
291642,293257029,-60,61,4374
291643,293258029,-65,67,4367
291644,293259029,-50,74,4396
291645,293260028,-50,73,4410
291646,293261028,-55,54,4379
291647,293262029,-57,44,4399
291648,293263029,-75,48,4405
291649,293264028,-87,65,4391
291650,293265028,-85,65,4396
291651,293266029,-45,50,4372
291652,293267029,-28,51,4377
291653,293268029,-57,60,4375
291654,293269029,-60,68,4385
291655,293270029,-52,47,4388
291656,293271028,-47,52,4387
291657,293272029,-58,72,4385
291658,293273028,-63,68,4349
291659,293274029,-51,55,4362
291660,293275029,-44,53,4389
291661,293276029,-40,59,4379
291662,293277029,-44,76,4387
291663,293278029,-53,84,4378
291664,293279029,-75,74,4359
291665,293280028,-79,71,4366
291666,293281029,-59,66,4372
291667,293282029,-42,52,4370
291668,293283029,-60,57,4395
291669,293284028,-58,68,4380
291670,293285028,-49,65,4332
291671,293286029,-42,66,4349
291672,293287029,-31,62,4377
291673,293288029,-46,56,4381
291674,293289028,-38,65,4373
291675,293290029,-39,67,4383
291676,293291029,-45,57,4375
291677,293292028,-50,63,4351
291678,293293029,-58,75,4345
291679,293294028,-59,64,4353
291680,293295029,-44,61,4380
291681,293296029,-34,62,4388
291682,293297029,-46,58,4375
291683,293298029,-49,83,4370
291684,293299029,-38,76,4380
291685,293300028,-40,48,4386
291686,293301028,-64,45,4388
291687,293302029,-71,45,4381
291688,293303028,-59,41,4394
291689,293304028,-59,53,4393
291690,293305029,-57,72,4376
291691,293306029,-36,57,4353
291692,293307028,-29,49,4343
291693,293308028,-32,66,4371
291694,293309029,-50,65,4373
291695,293310029,-49,61,4355
291696,293311028,-20,53,4365
291697,293312028,-17,37,4381
291698,293313029,-42,40,4368
291699,293314028,-52,45,4376
291700,293315029,-49,37,4395
291701,293316029,-41,55,4394
291702,293317029,-37,61,4387
291703,293318028,-59,65,4379
291704,293319029,-71,72,4367
291705,293320029,-67,54,4360
291706,293321029,-54,50,4373
291707,293322028,-49,54,4368
291708,293323029,-55,64,4359
291709,293324029,-68,70,4366
291710,293325029,-76,63,4377
291711,293326028,-61,55,4393
291712,293327029,-51,48,4384
291713,293328029,-57,42,4359
291714,293329029,-53,37,4375
291715,293330029,-53,37,4397
291716,293331029,-63,62,4401
291717,293332029,-68,58,4390
291718,293333029,-57,35,4371
291719,293334029,-44,33,4378
291720,293335029,-53,44,4364
291721,293336029,-36,57,4365
291722,293337028,-28,65,4395
291723,293338028,-47,69,4383
291724,293339029,-44,66,4362
291725,293340028,-48,71,4388
291726,293341028,-35,62,4379
291727,293342028,-21,47,4351
291728,293343029,-38,25,4375
291729,293344029,-40,31,4360
291730,293345028,-44,59,4344
291731,293346028,-45,63,4368
291732,293347029,-54,59,4373
291733,293348029,-55,48,4357
291734,293349029,-53,34,4373
291735,293350028,-49,45,4401
291736,293351028,-27,67,4388
291737,293352029,-53,62,4395
291738,293353029,-59,58,4395
291739,293354029,-47,72,4376
291740,293355029,-46,51,4383
291741,293356029,-27,46,4404
291742,293357029,-20,63,4413
291743,293358029,-33,57,4402
291744,293359029,-65,46,4384
291745,293360029,-64,43,4356
291746,293361029,-48,51,4355
291747,293362028,-47,62,4361
291748,293363028,-44,77,4351
291749,293364028,-41,61,4373
291750,293365029,-37,38,4382
291751,293366029,-25,42,4366
291752,293367028,-26,49,4377
291753,293368029,-44,52,4372
291754,293369029,-50,51,4360
291755,293370029,-48,40,4376
291756,293371029,-46,48,4373
291757,293372029,-65,55,4343
291758,293373029,-80,56,4389
291759,293374029,-80,62,4427
291760,293375028,-69,46,4402
291761,293376028,-69,47,4378
291762,293377028,-86,52,4337
291763,293378029,-63,50,4344
291764,293379028,-54,41,4368
291765,293380029,-64,47,4386
291766,293381029,-45,39,4389
291767,293382029,-31,24,4387
291768,293383029,-30,42,4400
291769,293384028,-32,52,4369
291770,293385029,-41,41,4328
291771,293386029,-53,31,4331
291772,293387028,-55,40,4351
291773,293388029,-47,36,4344
291774,293389029,-26,43,4358
291775,293390029,-23,69,4393
291776,293391029,-57,82,4392
291777,293392028,-65,75,4369
291778,293393028,-59,60,4368
291779,293394029,-57,43,4387
291780,293395029,-50,49,4393
291781,293396029,-45,44,4386
291782,293397029,-50,38,4376
291783,293398029,-43,47,4379
291784,293399028,-26,58,4385
291785,293400029,-36,54,4379
291786,293401029,-38,34,4373
291787,293402029,-30,65,4368
291788,293403028,-42,81,4358
291789,293404029,-63,71,4371
291790,293405029,-62,62,4360
291791,293406029,-47,53,4333
291792,293407028,-35,47,4350
291793,293408029,-45,38,4399
291794,293409029,-62,56,4412
291795,293410029,-53,65,4397
291796,293411029,-50,62,4373
291797,293412029,-57,62,4349
291798,293413029,-58,62,4359
291799,293414029,-55,68,4370
291800,293415029,-53,83,4382
291801,293416029,-50,69,4394
291802,293417028,-56,41,4410
291803,293418028,-43,57,4401
291804,293419028,-19,72,4363
291805,293420029,-27,58,4341
291806,293421029,-36,43,4358
291807,293422028,-37,39,4378
291808,293423029,-43,56,4383
291809,293424029,-39,54,4386
291810,293425029,-39,43,4386
291811,293426029,-62,48,4370
291812,293427029,-74,55,4394
291813,293428029,-79,58,4423
291814,293429029,-85,61,4400
291815,293430028,-66,63,4394
291816,293431029,-54,36,4393
291817,293432029,-59,19,4385
291818,293433029,-73,32,4378
291819,293434029,-65,34,4378
291820,293435029,-55,30,4349
291821,293436029,-74,31,4342
291822,293437029,-62,33,4382
291823,293438028,-56,13,4385
291824,293439028,-43,24,4371
291825,293440029,-60,50,4369
291826,293441029,-80,49,4369
291827,293442029,-55,67,4383
291828,293443029,-46,79,4391
291829,293444029,-41,76,4379
291830,293445029,-30,73,4390
291831,293446029,-31,56,4409
291832,293447029,-43,60,4394
291833,293448029,-35,75,4389
291834,293449028,-23,67,4369
291835,293450029,-34,61,4342
291836,293451029,-37,51,4360
291837,293452029,-27,44,4358
291838,293453028,-41,61,4372
291839,293454029,-52,70,4391
291840,293455028,-62,60,4376
291841,293456029,-79,55,4367
291842,293457028,-62,49,4358
291843,293458029,-40,75,4396
291844,293459029,-43,86,4403
291845,293460029,-37,69,4386
291846,293461028,-38,69,4398
291847,293462028,-53,79,4376
291848,293463028,-79,75,4361
291849,293464029,-93,50,4385
291850,293465029,-71,47,4412
291851,293466029,-66,48,4392
291852,293467028,-52,45,4393
291853,293468029,-38,54,4409
291854,293469029,-51,57,4396
291855,293470029,-52,53,4403
291856,293471029,-49,49,4404
291857,293472028,-48,48,4368
291858,293473029,-47,43,4361
291859,293474029,-46,48,4359
291860,293475029,-48,57,4350
291861,293476029,-56,60,4367
291862,293477029,-56,59,4352
291863,293478028,-51,57,4355
291864,293479029,-47,53,4360
291865,293480029,-69,43,4350
291866,293481029,-74,46,4369
291867,293482029,-55,40,4381
291868,293483029,-67,29,4369
291869,293484028,-66,42,4379
291870,293485028,-65,48,4383
291871,293486029,-81,57,4392
291872,293487029,-86,71,4373
291873,293488029,-72,56,4342
291874,293489029,-65,50,4386
291875,293490029,-56,56,4380
291876,293491029,-63,51,4339
291877,293492029,-63,51,4348
291878,293493029,-42,46,4385
291879,293494029,-34,55,4412
291880,293495028,-50,68,4374
291881,293496028,-56,55,4342
291882,293497029,-49,54,4335
291883,293498028,-59,55,4325
291884,293499029,-49,56,4339
291885,293500029,-43,78,4343
291886,293501029,-41,80,4371
291887,293502029,-35,63,4374
291888,293503029,-37,54,4371
291889,293504029,-45,56,4384
291890,293505029,-48,45,4365
291891,293506028,-41,45,4359
291892,293507029,-38,59,4366
291893,293508029,-23,51,4378
291894,293509029,-26,73,4372
291895,293510029,-36,88,4386
291896,293511029,-22,59,4385
291897,293512028,-31,55,4359
291898,293513029,-44,53,4383
291899,293514028,-43,38,4389
291900,293515029,-39,37,4393
291901,293516029,-55,37,4394
291902,293517029,-54,45,4383
291903,293518029,-53,59,4377
291904,293519028,-54,60,4370
291905,293520029,-42,60,4361
291906,293521028,-41,60,4357
291907,293522029,-50,49,4359
291908,293523029,-57,45,4370
291909,293524028,-42,50,4398
291910,293525029,-32,54,4419
291911,293526029,-32,46,4387
291912,293527029,-20,35,4383
291913,293528028,-17,42,4397
291914,293529028,-37,52,4387
291915,293530028,-53,51,4358
291916,293531028,-58,57,4336
291917,293532029,-70,60,4364
291918,293533028,-66,55,4352
291919,293534028,-42,59,4356
291920,293535029,-22,64,4389
291921,293536029,-19,54,4384
291922,293537028,-36,49,4391
291923,293538029,-62,64,4377
291924,293539028,-69,63,4355
291925,293540029,-57,54,4365
291926,293541029,-50,68,4342
291927,293542028,-46,67,4358
291928,293543029,-41,53,4390
291929,293544028,-40,59,4383
291930,293545029,-57,70,4378
291931,293546028,-51,61,4388
291932,293547029,-28,63,4364
291933,293548029,-33,81,4353
291934,293549029,-36,63,4368
291935,293550029,-43,54,4370
291936,293551029,-57,63,4382
291937,293552029,-53,43,4385
291938,293553029,-56,35,4381
291939,293554029,-66,53,4380
291940,293555029,-55,56,4384
291941,293556029,-57,61,4386
291942,293557029,-57,67,4396
291943,293558029,-49,66,4399
291944,293559029,-72,82,4388
291945,293560028,-66,81,4374
291946,293561028,-48,66,4367
291947,293562029,-48,56,4376
291948,293563029,-56,61,4395
291949,293564028,-56,57,4388
291950,293565029,-33,45,4379
291951,293566028,-43,50,4356
291952,293567029,-50,59,4331
291953,293568028,-35,62,4349
291954,293569029,-36,62,4364
291955,293570029,-45,60,4380
291956,293571029,-64,46,4389
291957,293572029,-55,35,4345
291958,293573029,-31,51,4342
291959,293574029,-32,59,4362
291960,293575029,-56,42,4340
291961,293576029,-72,32,4358
291962,293577029,-68,28,4362
291963,293578028,-63,60,4381
291964,293579029,-63,76,4379
291965,293580028,-71,65,4325
291966,293581029,-62,62,4331
291967,293582029,-56,46,4378
291968,293583029,-62,46,4385
291969,293584029,-67,69,4386
291970,293585029,-70,73,4391
291971,293586028,-57,50,4383
291972,293587029,-42,43,4370
291973,293588029,-33,60,4381
291974,293589029,-52,70,4390
291975,293590029,-54,53,4373
291976,293591029,-37,47,4410
291977,293592029,-36,59,4402
291978,293593028,-66,52,4371
291979,293594029,-76,61,4393
291980,293595029,-52,56,4374
291981,293596029,-27,56,4368
291982,293597028,-22,69,4403
291983,293598029,-47,56,4376
291984,293599029,-53,66,4329
291985,293600029,-47,73,4342
291986,293601029,-36,49,4364
291987,293602029,-27,48,4364
291988,293603029,-41,65,4355
291989,293604029,-52,55,4362
291990,293605029,-28,52,4385
291991,293606029,-31,57,4390
291992,293607029,-53,49,4384
291993,293608028,-50,31,4378
291994,293609029,-33,42,4382
291995,293610029,-31,61,4380
291996,293611028,-33,51,4367
291997,293612029,-39,53,4357
291998,293613029,-42,53,4378
291999,293614029,-44,50,4389
292000,293615029,-50,65,4363
292001,293616029,-47,64,4367
292002,293617029,-44,48,4356
292003,293618029,-33,56,4338
292004,293619028,-29,69,4345
292005,293620029,-48,66,4367
292006,293621028,-62,59,4394
292007,293622028,-66,48,4370
292008,293623029,-74,47,4347
292009,293624029,-81,46,4374
292010,293625029,-85,49,4421
292011,293626028,-69,63,4422
292012,293627028,-58,61,4394
292013,293628029,-65,47,4356
292014,293629029,-59,55,4318
292015,293630029,-64,56,4348
292016,293631028,-59,48,4374
292017,293632028,-46,51,4380
292018,293633029,-52,54,4370
292019,293634029,-58,50,4365
292020,293635028,-65,56,4375
292021,293636029,-54,61,4377
292022,293637028,-46,59,4392
292023,293638029,-54,70,4373
292024,293639028,-65,70,4365
292025,293640029,-59,71,4394
292026,293641028,-29,59,4397
292027,293642029,-25,48,4385
292028,293643029,-42,40,4354
292029,293644028,-51,43,4336
292030,293645029,-57,41,4381
292031,293646029,-62,46,4418
292032,293647029,-73,56,4413
292033,293648029,-70,65,4384
292034,293649029,-47,78,4369
292035,293650029,-24,68,4375
292036,293651028,-23,56,4379
292037,293652028,-47,40,4375
292038,293653029,-40,37,4383
292039,293654029,-20,42,4390
292040,293655028,-31,51,4388
292041,293656029,-35,58,4368
292042,293657029,-43,49,4350
292043,293658028,-46,43,4379
292044,293659029,-43,44,4392
292045,293660029,-42,45,4370
292046,293661029,-41,43,4375
292047,293662029,-41,49,4379
292048,293663029,-52,54,4374
292049,293664029,-65,55,4390
292050,293665028,-54,53,4421
292051,293666028,-66,48,4419
292052,293667029,-65,41,4395
292053,293668028,-46,40,4395
292054,293669028,-59,48,4368
292055,293670029,-50,41,4363
292056,293671029,-43,42,4369
292057,293672029,-46,54,4370
292058,293673029,-38,63,4374
292059,293674029,-30,65,4366
292060,293675028,-31,64,4370
292061,293676029,-45,73,4373
292062,293677028,-36,57,4374
292063,293678029,-28,48,4371
292064,293679028,-37,59,4369
292065,293680029,-51,68,4370
292066,293681029,-53,58,4390
292067,293682029,-63,38,4392
292068,293683029,-48,48,4376
292069,293684029,-26,54,4364
292070,293685029,-43,60,4352
292071,293686029,-44,65,4347
292072,293687029,-31,52,4341
292073,293688029,-36,54,4355
292074,293689029,-56,60,4376
292075,293690028,-58,42,4400
292076,293691029,-64,42,4393
292077,293692029,-58,60,4385
292078,293693029,-55,60,4372
292079,293694028,-65,59,4372
292080,293695028,-55,55,4392
292081,293696028,-48,53,4371
292082,293697028,-51,61,4362
292083,293698029,-64,45,4369
292084,293699029,-68,34,4395
292085,293700029,-48,57,4414
292086,293701029,-52,57,4404
292087,293702029,-74,46,4393
292088,293703029,-64,60,4368
292089,293704028,-33,74,4325
292090,293705029,-12,66,4340
292091,293706029,-21,59,4367
292092,293707029,-45,61,4363
292093,293708029,-56,54,4396
292094,293709028,-45,50,4405
292095,293710029,-42,56,4388
292096,293711028,-46,59,4372
292097,293712028,-38,39,4382
292098,293713029,-34,55,4404
292099,293714029,-28,67,4385
292100,293715029,-41,55,4352
292101,293716029,-62,51,4364
292102,293717029,-75,42,4394
292103,293718028,-72,42,4358
292104,293719028,-60,50,4345
292105,293720028,-51,57,4349
292106,293721028,-46,46,4339
292107,293722029,-36,46,4365
292108,293723029,-29,56,4382
292109,293724029,-39,43,4381
292110,293725029,-45,42,4398
292111,293726029,-47,59,4401
292112,293727029,-55,55,4375
292113,293728029,-62,58,4343
292114,293729029,-51,61,4365
292115,293730029,-40,54,4366
292116,293731028,-41,52,4337
292117,293732029,-37,60,4359
292118,293733028,-39,56,4386
292119,293734028,-39,41,4393
292120,293735029,-44,52,4383
292121,293736029,-59,71,4362
292122,293737029,-53,65,4350
292123,293738028,-47,64,4342
292124,293739029,-39,54,4370
292125,293740028,-42,45,4411
292126,293741029,-55,47,4430
292127,293742028,-52,32,4422
292128,293743029,-43,40,4397
292129,293744028,-40,64,4386
292130,293745029,-33,58,4364
292131,293746029,-39,49,4350
292132,293747029,-64,46,4329
292133,293748029,-60,41,4319
292134,293749029,-36,52,4330
292135,293750028,-17,36,4354
292136,293751029,-17,46,4357
292137,293752029,-32,74,4387
292138,293753028,-29,66,4408
292139,293754029,-35,38,4404
292140,293755029,-48,32,4429
292141,293756029,-44,43,4405
292142,293757028,-34,60,4371
292143,293758029,-27,60,4371
292144,293759028,-41,51,4362
292145,293760029,-56,59,4372
292146,293761028,-60,56,4375
292147,293762029,-61,49,4385
292148,293763029,-51,41,4397
292149,293764028,-46,35,4376
292150,293765029,-55,42,4373
292151,293766028,-57,55,4363
292152,293767029,-74,54,4368
292153,293768029,-66,60,4383
292154,293769029,-50,63,4386
292155,293770028,-54,48,4377
292156,293771028,-49,45,4373
292157,293772029,-60,49,4367
292158,293773028,-41,52,4361
292159,293774029,-51,54,4375
292160,293775029,-81,46,4363
292161,293776028,-67,68,4359
292162,293777029,-66,75,4370
292163,293778029,-56,56,4374
292164,293779029,-42,56,4386
292165,293780028,-54,60,4386
292166,293781029,-71,57,4379
292167,293782029,-57,58,4412
292168,293783028,-21,81,4399
292169,293784029,-43,82,4376
292170,293785029,-53,64,4381
292171,293786029,-51,65,4376
292172,293787028,-64,73,4353
292173,293788029,-43,57,4348
292174,293789029,-28,33,4382
292175,293790029,-23,45,4373
292176,293791029,-30,52,4358
292177,293792028,-41,61,4365
292178,293793029,-48,72,4357
292179,293794029,-56,71,4369
292180,293795029,-52,59,4397
292181,293796028,-55,53,4377
292182,293797028,-47,57,4365
292183,293798029,-59,54,4386
292184,293799028,-71,60,4384
292185,293800028,-53,67,4364
292186,293801028,-49,76,4378
292187,293802029,-36,77,4361
292188,293803029,-51,77,4343
292189,293804029,-46,74,4372
292190,293805029,-38,51,4377
292191,293806029,-56,34,4359
292192,293807028,-53,30,4379
292193,293808029,-38,33,4390
292194,293809029,-47,51,4374
292195,293810028,-65,47,4381
292196,293811029,-58,28,4374
292197,293812028,-52,49,4374
292198,293813029,-64,73,4383
292199,293814029,-62,65,4367
292200,293815029,-57,62,4385
292201,293816029,-47,61,4396
292202,293817029,-25,59,4403
292203,293818029,-37,56,4396
292204,293819029,-59,48,4369
292205,293820029,-62,55,4367
292206,293821029,-45,58,4357
292207,293822028,-45,48,4352
292208,293823029,-44,47,4360
292209,293824029,-26,58,4366
292210,293825029,-31,67,4376
292211,293826029,-42,53,4405
292212,293827029,-39,52,4353
292213,293828028,-40,62,4354
292214,293829029,-49,61,4397
292215,293830028,-50,49,4380
292216,293831029,-38,37,4366
292217,293832029,-53,51,4376
292218,293833028,-73,41,4370
292219,293834029,-53,43,4338
292220,293835028,-26,65,4340
292221,293836029,-28,59,4357
292222,293837028,-36,67,4387
292223,293838028,-36,54,4383
292224,293839028,-46,53,4371
292225,293840028,-53,72,4390
292226,293841029,-45,52,4377
292227,293842028,-44,53,4355
292228,293843029,-50,50,4355
292229,293844029,-66,25,4381
292230,293845029,-70,31,4414
292231,293846029,-48,48,4415
292232,293847029,-52,48,4402
292233,293848029,-60,27,4386
292234,293849029,-38,40,4383
292235,293850029,-24,67,4392
292236,293851029,-23,56,4390
292237,293852029,-30,57,4381
292238,293853029,-51,51,4371
292239,293854028,-60,42,4358
292240,293855029,-56,54,4370
292241,293856029,-52,55,4381
292242,293857029,-65,49,4373
292243,293858029,-78,53,4355
292244,293859028,-64,61,4351
292245,293860028,-49,47,4384
292246,293861028,-37,26,4404
292247,293862028,-49,42,4364
292248,293863028,-63,54,4358
292249,293864029,-58,38,4366
292250,293865029,-49,39,4346
292251,293866029,-56,54,4347
292252,293867029,-65,45,4349
292253,293868029,-61,58,4370
292254,293869029,-48,54,4397
292255,293870029,-39,30,4382
292256,293871029,-52,60,4365
292257,293872029,-41,60,4374
292258,293873028,-33,46,4388
292259,293874029,-48,44,4390
292260,293875029,-45,56,4377
292261,293876028,-49,63,4364
292262,293877029,-63,54,4359
292263,293878029,-55,56,4378
292264,293879029,-63,77,4391
292265,293880029,-59,91,4376
292266,293881028,-54,79,4357
292267,293882029,-64,73,4357
292268,293883029,-59,66,4375
292269,293884029,-61,52,4384
292270,293885029,-48,46,4365
292271,293886029,-36,57,4365
292272,293887029,-49,62,4386
292273,293888028,-54,70,4376
292274,293889029,-57,64,4360
292275,293890029,-35,46,4381
292276,293891029,-23,37,4381
292277,293892028,-30,43,4367
292278,293893028,-28,56,4386
292279,293894028,-39,55,4378
292280,293895029,-35,70,4363
292281,293896029,-28,83,4402
292282,293897029,-37,72,4417
292283,293898028,-47,69,4377
292284,293899028,-42,57,4352
292285,293900028,-34,56,4376
292286,293901028,-66,66,4392
292287,293902029,-76,58,4385
292288,293903029,-41,46,4376
292289,293904029,-22,52,4370
292290,293905029,-33,75,4342
292291,293906029,-44,67,4334
292292,293907029,-37,50,4343
292293,293908028,-40,52,4321
292294,293909029,-52,52,4337
292295,293910029,-52,49,4374
292296,293911029,-53,48,4377
292297,293912029,-66,49,4373
292298,293913029,-61,43,4366
292299,293914029,-52,63,4375
292300,293915029,-59,82,4394
292301,293916029,-77,79,4393
292302,293917029,-55,67,4389
292303,293918028,-30,40,4351
292304,293919029,-39,38,4334
292305,293920029,-28,41,4364
292306,293921029,-51,50,4388
292307,293922029,-71,68,4397
292308,293923029,-43,70,4400
292309,293924029,-58,76,4380
292310,293925029,-83,79,4376
292311,293926029,-70,69,4401
292312,293927029,-50,67,4402
292313,293928029,-37,56,4366
292314,293929029,-24,47,4369
292315,293930028,-19,53,4391
292316,293931029,-19,53,4408
292317,293932029,-20,68,4419
292318,293933028,-19,68,4363
292319,293934029,-47,51,4336
292320,293935029,-51,50,4355
292321,293936029,-37,45,4368
292322,293937029,-61,56,4388
292323,293938029,-73,58,4384
292324,293939029,-63,60,4387
292325,293940028,-58,57,4386
292326,293941029,-50,51,4372
292327,293942029,-60,70,4362
292328,293943029,-67,59,4349
292329,293944028,-44,40,4341
292330,293945029,-35,50,4359
292331,293946029,-49,59,4357
292332,293947029,-62,49,4365
292333,293948029,-33,45,4384
292334,293949029,-5,51,4354
292335,293950029,-28,61,4358
292336,293951028,-52,67,4396
292337,293952029,-50,64,4396
292338,293953029,-51,58,4402
292339,293954028,-36,46,4402
292340,293955029,-49,54,4381
292341,293956028,-61,59,4386
292342,293957029,-45,49,4375
292343,293958029,-49,52,4361
292344,293959029,-55,52,4367
292345,293960028,-49,40,4373
292346,293961029,-54,51,4381
292347,293962029,-56,58,4391
292348,293963029,-49,54,4394
292349,293964028,-44,60,4399
292350,293965029,-40,63,4379
292351,293966029,-35,64,4368
292352,293967029,-38,69,4359
292353,293968029,-37,79,4352
292354,293969029,-47,72,4347
292355,293970028,-67,64,4350
292356,293971029,-49,60,4399
292357,293972029,-51,49,4418
292358,293973029,-51,32,4385
292359,293974029,-38,33,4370
292360,293975029,-48,50,4392
292361,293976029,-56,51,4379
292362,293977029,-40,58,4366
292363,293978028,-39,68,4385
292364,293979029,-39,60,4393
292365,293980028,-30,58,4377
292366,293981029,-31,40,4361
292367,293982029,-32,34,4366
292368,293983028,-41,43,4370
292369,293984029,-40,46,4363
292370,293985029,-36,69,4379
292371,293986029,-52,74,4392
292372,293987029,-57,55,4372
292373,293988029,-37,51,4371
292374,293989029,-25,56,4383
292375,293990029,-43,49,4379
292376,293991029,-48,54,4373
292377,293992028,-48,59,4384
292378,293993029,-57,48,4382
292379,293994029,-53,34,4376
292380,293995029,-58,47,4363
292381,293996029,-46,59,4365
292382,293997028,-43,61,4391
292383,293998029,-59,56,4384
292384,293999028,-67,40,4364
292385,294000029,-51,51,4373
292386,294001029,-43,39,4374
292387,294002029,-48,39,4367
292388,294003029,-55,64,4403
292389,294004029,-56,54,4432
292390,294005028,-68,33,4370
292391,294006028,-79,52,4311
292392,294007029,-53,72,4339
292393,294008029,-37,67,4370
292394,294009028,-54,66,4375
292395,294010029,-46,65,4359
292396,294011029,-32,56,4341
292397,294012029,-54,50,4353
292398,294013028,-55,58,4357
292399,294014029,-48,69,4358
292400,294015029,-38,58,4375
292401,294016028,-44,42,4387
292402,294017029,-61,44,4400
292403,294018029,-47,54,4388
292404,294019029,-46,55,4374
292405,294020029,-65,44,4387
292406,294021029,-62,30,4384
292407,294022029,-55,48,4372
292408,294023029,-54,59,4380
292409,294024029,-56,42,4373
292410,294025029,-61,54,4357
292411,294026029,-45,62,4355
292412,294027029,-54,69,4353
292413,294028029,-79,60,4361
292414,294029029,-51,49,4376
292415,294030028,-44,64,4370
292416,294031029,-65,58,4352
292417,294032029,-34,64,4360
292418,294033029,-10,63,4379
292419,294034029,-31,54,4391
292420,294035028,-30,64,4405
292421,294036029,-40,79,4407
292422,294037029,-59,68,4392
292423,294038029,-58,67,4386
292424,294039029,-49,80,4372
292425,294040029,-48,60,4368
292426,294041028,-57,59,4362
292427,294042028,-42,69,4364
292428,294043029,-43,54,4403
292429,294044029,-52,39,4397
292430,294045028,-62,56,4382
292431,294046029,-66,61,4378
292432,294047029,-52,42,4359
292433,294048028,-50,41,4363
292434,294049029,-67,63,4380
292435,294050029,-56,67,4377
292436,294051029,-24,53,4359
292437,294052028,-34,63,4362
292438,294053028,-52,69,4348
292439,294054029,-63,48,4358
292440,294055029,-57,30,4395
292441,294056028,-42,33,4401
292442,294057029,-68,46,4386
292443,294058029,-63,47,4387
292444,294059029,-33,58,4405
292445,294060028,-41,69,4409
292446,294061029,-35,71,4386
292447,294062029,-37,58,4359
292448,294063029,-58,42,4359
292449,294064028,-52,50,4362
292450,294065029,-44,60,4386
292451,294066029,-38,54,4389
292452,294067029,-38,45,4373
292453,294068028,-46,44,4347
292454,294069029,-51,52,4353
292455,294070028,-38,65,4388
292456,294071029,-43,62,4355
292457,294072029,-61,43,4366
292458,294073028,-66,32,4406
292459,294074028,-52,35,4383
292460,294075029,-28,47,4379
292461,294076028,-45,51,4391
292462,294077029,-62,59,4377
292463,294078029,-52,76,4364
292464,294079029,-51,65,4376
292465,294080029,-44,42,4391
292466,294081029,-37,42,4385
292467,294082029,-53,56,4370
292468,294083029,-56,61,4362
292469,294084029,-59,63,4374
292470,294085029,-59,66,4370
292471,294086029,-39,56,4355
292472,294087028,-36,56,4370
292473,294088028,-52,59,4377
292474,294089029,-41,60,4363
292475,294090028,-31,66,4386
292476,294091028,-51,59,4406
292477,294092029,-54,55,4403
292478,294093029,-52,48,4416
292479,294094029,-49,45,4408
292480,294095028,-38,43,4412
292481,294096028,-54,50,4381
292482,294097029,-62,62,4346
292483,294098029,-64,67,4364
292484,294099029,-60,74,4373
292485,294100029,-44,64,4376
292486,294101028,-45,56,4388
292487,294102028,-59,38,4350
292488,294103029,-39,16,4344
292489,294104029,-25,37,4378
292490,294105028,-36,72,4389
292491,294106029,-33,68,4398
292492,294107028,-29,44,4397
292493,294108028,-33,46,4382
292494,294109029,-63,56,4365
292495,294110029,-62,60,4386
292496,294111029,-31,47,4383
292497,294112029,-40,33,4378
292498,294113029,-47,45,4391
292499,294114029,-36,45,4404
292500,294115029,-43,41,4398
292501,294116029,-60,61,4386
292502,294117029,-64,81,4401
292503,294118029,-41,77,4406
292504,294119029,-37,49,4412
292505,294120029,-57,33,4406
292506,294121029,-58,44,4379
292507,294122029,-63,64,4369
292508,294123029,-67,69,4387
292509,294124029,-59,47,4416
292510,294125028,-53,48,4401
292511,294126029,-52,64,4386
292512,294127029,-42,58,4381
292513,294128029,-38,56,4380
292514,294129029,-52,51,4406
292515,294130028,-62,41,4367
292516,294131029,-61,46,4367
292517,294132028,-52,47,4405
292518,294133028,-45,38,4377
292519,294134029,-38,48,4384
292520,294135029,-52,59,4399
292521,294136028,-55,58,4352
292522,294137028,-35,60,4343
292523,294138029,-47,44,4380
292524,294139029,-72,35,4374
292525,294140029,-44,46,4363
292526,294141029,-25,61,4389
292527,294142029,-39,55,4401
292528,294143028,-28,53,4380
292529,294144029,-22,67,4374
292530,294145029,-40,53,4404
292531,294146029,-47,43,4406
292532,294147028,-47,44,4383
292533,294148028,-48,40,4385
292534,294149029,-42,44,4367
292535,294150029,-47,41,4366
292536,294151028,-57,54,4364
292537,294152029,-51,72,4374
292538,294153029,-47,73,4404
292539,294154028,-54,68,4384
292540,294155029,-54,56,4368
292541,294156029,-64,46,4381
292542,294157029,-58,56,4365
292543,294158029,-32,58,4355
292544,294159028,-28,47,4369
292545,294160029,-43,51,4396
292546,294161029,-51,46,4394
292547,294162029,-52,62,4377
292548,294163028,-62,73,4403
292549,294164029,-68,62,4377
292550,294165029,-55,62,4368
292551,294166028,-53,65,4398
292552,294167029,-62,55,4381
292553,294168028,-61,61,4364
292554,294169029,-50,67,4359
292555,294170029,-45,60,4353
292556,294171029,-60,67,4351
292557,294172029,-48,65,4368
292558,294173029,-35,60,4404
292559,294174029,-32,71,4406
292560,294175029,-29,61,4368
292561,294176029,-45,34,4371
292562,294177029,-58,29,4398
292563,294178029,-59,27,4369
292564,294179029,-34,27,4356
292565,294180028,-41,40,4367
292566,294181028,-62,42,4371
292567,294182028,-46,40,4392
292568,294183029,-53,60,4401
292569,294184029,-59,64,4382
292570,294185029,-39,40,4368
292571,294186029,-53,39,4376
292572,294187029,-65,58,4401
292573,294188029,-45,65,4396
292574,294189029,-41,56,4375
292575,294190029,-61,58,4373
292576,294191028,-61,65,4381
292577,294192029,-44,56,4380
292578,294193028,-43,53,4332
292579,294194029,-45,50,4331
292580,294195029,-44,56,4367
292581,294196029,-58,65,4370
292582,294197029,-60,53,4355
292583,294198028,-55,54,4355
292584,294199029,-62,61,4391
292585,294200029,-49,58,4411
292586,294201028,-55,55,4389
292587,294202029,-56,46,4358
292588,294203029,-57,57,4364
292589,294204029,-58,44,4384
292590,294205029,-40,36,4381
292591,294206029,-36,52,4361
292592,294207029,-39,39,4353
292593,294208028,-35,37,4367
292594,294209029,-41,47,4372
292595,294210028,-47,68,4380
292596,294211028,-26,66,4384
292597,294212028,-38,49,4389
292598,294213029,-53,57,4383
292599,294214028,-38,48,4351
292600,294215029,-48,32,4336
292601,294216029,-59,37,4336
292602,294217029,-57,28,4360
292603,294218029,-61,25,4373
292604,294219029,-55,61,4368
292605,294220028,-53,84,4373
292606,294221028,-56,66,4369
292607,294222029,-39,57,4372
292608,294223028,-26,73,4386
292609,294224029,-32,64,4399
292610,294225028,-38,38,4395
292611,294226029,-30,26,4388
292612,294227029,-23,37,4386
292613,294228028,-52,52,4375
292614,294229028,-57,54,4373
292615,294230029,-46,50,4374
292616,294231029,-48,47,4356
292617,294232029,-46,56,4339
292618,294233029,-43,58,4350
292619,294234028,-48,57,4345
292620,294235029,-60,70,4342
292621,294236028,-66,65,4356
292622,294237029,-52,52,4355
292623,294238028,-35,63,4387
292624,294239029,-59,64,4383
292625,294240029,-47,62,4352
292626,294241028,-40,59,4353
292627,294242029,-52,44,4360
292628,294243028,-51,48,4398
292629,294244029,-66,68,4399
292630,294245029,-68,82,4376
292631,294246029,-51,65,4385
292632,294247028,-43,48,4367
292633,294248029,-59,51,4354
292634,294249029,-68,36,4348
292635,294250029,-63,44,4353
292636,294251029,-43,60,4364
292637,294252029,-31,52,4362
292638,294253028,-44,41,4339
292639,294254028,-53,37,4323
292640,294255029,-43,48,4351
292641,294256029,-34,55,4359
292642,294257029,-48,54,4360
292643,294258029,-51,55,4378
292644,294259029,-34,46,4391
292645,294260029,-23,38,4399
292646,294261029,-49,44,4407
292647,294262029,-91,61,4367
292648,294263029,-85,69,4331
292649,294264029,-45,62,4362
292650,294265029,-29,48,4386
292651,294266028,-56,46,4394
292652,294267029,-56,58,4414
292653,294268029,-32,36,4386
292654,294269028,-49,35,4355
292655,294270029,-55,55,4376
292656,294271029,-50,59,4394
292657,294272029,-64,62,4394
292658,294273028,-64,55,4388
292659,294274029,-43,50,4383
292660,294275029,-36,46,4370
292661,294276029,-54,30,4359
292662,294277029,-66,37,4375
292663,294278029,-36,52,4386
292664,294279029,-19,52,4379
292665,294280028,-45,67,4386
292666,294281029,-56,74,4369
292667,294282029,-61,72,4355
292668,294283029,-59,66,4373
292669,294284029,-42,52,4392
292670,294285029,-42,57,4384
292671,294286029,-56,46,4373
292672,294287029,-47,42,4364
292673,294288029,-46,45,4365
292674,294289029,-55,45,4413
292675,294290028,-78,70,4399
292676,294291028,-74,63,4347
292677,294292029,-56,47,4356
292678,294293028,-63,42,4375
292679,294294029,-61,24,4377
292680,294295029,-48,22,4373
292681,294296029,-38,40,4353
292682,294297029,-50,56,4371
292683,294298029,-46,58,4391
292684,294299028,-54,65,4359
292685,294300029,-54,57,4354
292686,294301029,-44,48,4370
292687,294302029,-54,66,4355
292688,294303029,-60,65,4354
292689,294304028,-45,54,4378
292690,294305029,-28,55,4394
292691,294306029,-38,67,4395
292692,294307029,-36,83,4359
292693,294308029,-47,70,4356
292694,294309029,-49,48,4387
292695,294310029,-35,58,4372
292696,294311029,-41,61,4341
292697,294312029,-48,52,4366
292698,294313029,-42,63,4393
292699,294314029,-26,71,4362
292700,294315029,-27,67,4367
292701,294316029,-43,64,4364
292702,294317029,-59,60,4335
292703,294318029,-64,53,4360
292704,294319029,-57,46,4373
292705,294320029,-52,56,4384
292706,294321029,-54,69,4395
292707,294322029,-47,62,4373
292708,294323029,-52,57,4368
292709,294324029,-70,44,4388
292710,294325029,-69,41,4387
292711,294326029,-56,48,4376
292712,294327029,-59,54,4395
292713,294328028,-58,57,4402
292714,294329029,-39,53,4384
292715,294330029,-44,46,4370
292716,294331029,-48,46,4366
292717,294332029,-44,58,4371
292718,294333029,-54,47,4387
292719,294334029,-61,54,4383
292720,294335029,-44,55,4376
292721,294336029,-30,51,4383
292722,294337029,-45,55,4386
292723,294338029,-42,47,4367
292724,294339029,-43,44,4370
292725,294340029,-62,47,4371
292726,294341029,-68,69,4357
292727,294342028,-63,72,4372
292728,294343029,-48,33,4393
292729,294344029,-53,16,4415
292730,294345029,-58,35,4375
292731,294346029,-43,49,4352
292732,294347029,-48,39,4377
292733,294348029,-55,40,4371
292734,294349028,-60,56,4383
292735,294350029,-52,34,4396
292736,294351029,-38,35,4394
292737,294352029,-46,57,4386
292738,294353029,-49,45,4361
292739,294354028,-47,46,4355
292740,294355028,-44,52,4330
292741,294356028,-40,45,4359
292742,294357028,-47,51,4420
292743,294358028,-31,60,4419
292744,294359029,-15,42,4419
292745,294360029,-50,37,4418
292746,294361029,-65,62,4391
292747,294362029,-52,66,4378
292748,294363028,-53,53,4385
292749,294364029,-54,45,4385
292750,294365029,-53,60,4374
292751,294366029,-42,64,4378
292752,294367028,-52,42,4376
292753,294368029,-48,44,4350
292754,294369029,-35,63,4364
292755,294370029,-49,73,4373
292756,294371028,-50,55,4360
292757,294372028,-56,39,4369
292758,294373028,-70,55,4394
292759,294374029,-55,70,4391
292760,294375029,-28,63,4370
292761,294376029,-41,47,4348
292762,294377029,-67,54,4371
292763,294378029,-81,65,4402
292764,294379028,-66,59,4367
292765,294380029,-49,62,4354
292766,294381029,-55,72,4380
292767,294382029,-59,69,4377
292768,294383028,-60,49,4375
292769,294384028,-45,44,4388
292770,294385028,-36,45,4388
292771,294386029,-46,27,4398
292772,294387029,-47,41,4391
292773,294388028,-55,73,4359
292774,294389029,-50,59,4366
292775,294390029,-40,35,4381
292776,294391029,-68,42,4383
292777,294392029,-65,54,4382
292778,294393029,-46,61,4373
292779,294394028,-60,67,4374
292780,294395028,-53,67,4362
292781,294396028,-49,61,4333
292782,294397029,-55,59,4352
292783,294398029,-59,56,4369
292784,294399029,-56,51,4376
292785,294400029,-37,57,4372
292786,294401028,-45,54,4343
292787,294402029,-62,61,4347
292788,294403029,-61,63,4367
292789,294404029,-62,49,4370
292790,294405028,-40,50,4352
292791,294406029,-11,55,4359
292792,294407029,-31,52,4368
292793,294408029,-60,59,4358
292794,294409029,-51,68,4357
292795,294410029,-23,67,4359
292796,294411029,-30,59,4371
292797,294412029,-34,52,4380
292798,294413029,-41,67,4367
292799,294414029,-59,76,4357
292800,294415029,-57,76,4380
292801,294416029,-57,68,4375
292802,294417029,-46,52,4349
292803,294418029,-43,50,4362
292804,294419028,-53,48,4383
292805,294420029,-49,45,4403
292806,294421029,-48,68,4407
292807,294422029,-63,67,4397
292808,294423029,-70,57,4371
292809,294424029,-51,57,4364
292810,294425029,-47,60,4378
292811,294426029,-59,54,4397
292812,294427029,-69,67,4388
292813,294428028,-71,75,4366
292814,294429028,-60,57,4366
292815,294430029,-53,67,4372
292816,294431029,-52,55,4387
292817,294432029,-35,43,4374
292818,294433028,-20,46,4361
292819,294434028,-39,32,4379
292820,294435029,-46,25,4394
292821,294436029,-55,53,4386
292822,294437029,-72,75,4378
292823,294438029,-45,70,4372
292824,294439029,-8,49,4385
292825,294440029,-33,47,4389
292826,294441028,-46,58,4379
292827,294442029,-35,49,4388
292828,294443029,-42,51,4366
292829,294444028,-39,48,4374
292830,294445029,-58,34,4393
292831,294446029,-70,49,4368
292832,294447029,-52,51,4378
292833,294448029,-40,52,4390
292834,294449028,-48,63,4377
292835,294450029,-45,45,4380
292836,294451029,-60,44,4380
292837,294452029,-73,61,4372
292838,294453029,-61,55,4356
292839,294454028,-66,45,4347
292840,294455029,-55,61,4354
292841,294456029,-52,73,4375
292842,294457028,-38,71,4393
292843,294458029,-16,55,4365
292844,294459029,-31,57,4352
292845,294460029,-30,73,4379
292846,294461028,-41,72,4380
292847,294462028,-56,61,4381
292848,294463028,-44,56,4405
292849,294464029,-45,53,4389
292850,294465029,-46,51,4375
292851,294466029,-50,58,4379
292852,294467029,-43,55,4360
292853,294468029,-33,63,4368
292854,294469028,-52,62,4362
292855,294470029,-70,53,4364
292856,294471028,-62,60,4366
292857,294472029,-47,52,4362
292858,294473029,-40,51,4377
292859,294474029,-31,63,4389
292860,294475029,-34,73,4382
292861,294476029,-35,74,4350
292862,294477028,-42,61,4362
292863,294478028,-61,39,4357
292864,294479029,-55,17,4340
292865,294480029,-49,24,4366
292866,294481028,-55,49,4360
292867,294482028,-49,52,4344
292868,294483029,-56,60,4362
292869,294484029,-74,76,4387
292870,294485028,-58,69,4420
292871,294486029,-25,40,4420
292872,294487028,-25,42,4407
292873,294488028,-44,58,4386
292874,294489029,-48,50,4360
292875,294490029,-39,49,4375
292876,294491029,-49,34,4375
292877,294492029,-51,32,4343
292878,294493029,-39,41,4337
292879,294494029,-59,30,4370
292880,294495028,-60,43,4369
292881,294496029,-60,54,4348
292882,294497028,-60,46,4368
292883,294498029,-50,56,4370
292884,294499029,-45,74,4356
292885,294500028,-45,67,4332
292886,294501028,-55,47,4325
292887,294502029,-57,53,4350
292888,294503029,-54,59,4368
292889,294504029,-50,54,4395
292890,294505028,-50,41,4404
292891,294506028,-68,52,4360
292892,294507029,-57,69,4365
292893,294508029,-49,58,4391
292894,294509028,-51,56,4369
292895,294510029,-34,52,4375
292896,294511029,-52,43,4358
292897,294512029,-72,41,4350
292898,294513028,-41,42,4385
292899,294514029,-23,59,4403
292900,294515029,-40,60,4377
292901,294516029,-47,59,4354
292902,294517028,-55,63,4378
292903,294518029,-57,56,4375
292904,294519029,-47,55,4358
292905,294520029,-48,56,4364
292906,294521028,-38,69,4378
292907,294522028,-36,72,4362
292908,294523028,-56,53,4365
292909,294524029,-55,57,4392
292910,294525029,-57,67,4384
292911,294526029,-56,62,4351
292912,294527029,-66,59,4345
292913,294528029,-59,49,4375
292914,294529029,-40,36,4373
292915,294530028,-26,62,4353
292916,294531029,-18,82,4380
292917,294532028,-52,57,4400
292918,294533029,-71,52,4374
292919,294534028,-41,57,4362
292920,294535029,-20,47,4373
292921,294536029,-24,45,4402
292922,294537029,-35,49,4389
292923,294538029,-41,64,4364
292924,294539029,-27,69,4356
292925,294540029,-27,59,4363
292926,294541029,-35,63,4350
292927,294542029,-38,59,4344
292928,294543029,-38,41,4377
292929,294544029,-57,45,4386
292930,294545029,-61,48,4357
292931,294546029,-44,50,4369
292932,294547028,-61,68,4405
292933,294548028,-80,66,4404
292934,294549028,-72,55,4362
292935,294550029,-38,56,4342
292936,294551029,-30,51,4364
292937,294552029,-41,49,4379
292938,294553029,-42,61,4391
292939,294554029,-46,48,4387
292940,294555029,-40,35,4376
292941,294556029,-41,45,4368
292942,294557029,-52,49,4385
292943,294558028,-62,59,4375
292944,294559028,-62,78,4365
292945,294560029,-55,75,4386
292946,294561028,-43,50,4366
292947,294562028,-36,47,4348
292948,294563029,-39,59,4362
292949,294564029,-48,61,4392
292950,294565029,-53,64,4395
292951,294566028,-43,49,4368
292952,294567029,-31,47,4374
292953,294568029,-39,71,4383
292954,294569028,-59,77,4400
292955,294570029,-61,75,4386
292956,294571028,-52,66,4397
292957,294572028,-44,57,4392
292958,294573029,-49,53,4364
292959,294574029,-55,42,4383
292960,294575029,-61,47,4384
292961,294576029,-44,68,4366
292962,294577029,-44,76,4382
292963,294578029,-58,78,4392
292964,294579028,-55,72,4379
292965,294580029,-44,53,4382
292966,294581029,-59,60,4373
292967,294582029,-81,72,4372
292968,294583029,-78,64,4382
292969,294584029,-65,66,4399
292970,294585029,-58,60,4362
292971,294586028,-58,50,4331
292972,294587029,-49,60,4351
292973,294588029,-50,65,4391
292974,294589029,-41,64,4414
292975,294590029,-45,52,4402
292976,294591028,-66,65,4380
292977,294592028,-75,81,4352
292978,294593028,-64,65,4367
292979,294594029,-29,62,4383
292980,294595029,-21,61,4395
292981,294596028,-58,44,4403
292982,294597028,-73,22,4389
292983,294598029,-70,21,4384
292984,294599029,-62,43,4395
292985,294600028,-45,64,4400
292986,294601029,-44,43,4375
292987,294602029,-51,31,4371
292988,294603029,-37,58,4375
292989,294604029,-27,62,4372
292990,294605028,-32,50,4380
292991,294606029,-42,45,4401
292992,294607029,-46,61,4406
292993,294608028,-49,63,4409
292994,294609028,-40,44,4400
292995,294610029,-18,33,4357
292996,294611029,-35,23,4354
292997,294612029,-52,21,4366
292998,294613028,-47,47,4356
292999,294614029,-55,62,4372
293000,294615029,-54,45,4362
293001,294616029,-49,51,4349
293002,294617029,-46,49,4397
293003,294618029,-45,50,4403
293004,294619028,-43,54,4381
293005,294620029,-50,36,4383
293006,294621028,-49,45,4370
293007,294622029,-26,49,4333
293008,294623029,-44,49,4326
293009,294624029,-55,61,4366
293010,294625029,-59,53,4386
293011,294626029,-72,45,4368
293012,294627029,-63,46,4352
293013,294628029,-57,36,4342
293014,294629028,-59,46,4353
293015,294630029,-54,44,4382
293016,294631029,-50,33,4375
293017,294632029,-56,50,4360
293018,294633028,-75,52,4373
293019,294634029,-61,59,4354
293020,294635029,-31,61,4342
293021,294636028,-56,44,4365
293022,294637029,-56,48,4355
293023,294638029,-11,49,4353
293024,294639028,-39,43,4379
293025,294640029,-85,48,4368
293026,294641029,-49,56,4332
293027,294642029,-16,52,4347
293028,294643029,-22,48,4357
293029,294644029,-43,40,4352
293030,294645029,-59,49,4359
293031,294646028,-65,73,4388
293032,294647028,-71,68,4396
293033,294648029,-77,52,4363
293034,294649028,-66,26,4371
293035,294650029,-35,23,4355
293036,294651029,-44,51,4352
293037,294652029,-51,43,4391
293038,294653029,-31,30,4369
293039,294654029,-48,44,4356
293040,294655028,-61,71,4381
293041,294656029,-45,69,4375
293042,294657029,-33,45,4380
293043,294658029,-31,46,4376
293044,294659028,-40,47,4384
293045,294660029,-52,53,4409
293046,294661029,-40,43,4375
293047,294662028,-27,37,4351
293048,294663029,-61,46,4360
293049,294664029,-66,55,4366
293050,294665029,-35,63,4366
293051,294666028,-55,62,4367
293052,294667029,-66,71,4373
293053,294668029,-49,74,4372
293054,294669028,-32,61,4397
293055,294670029,-34,61,4385
293056,294671029,-53,55,4359
293057,294672028,-51,40,4388
293058,294673029,-48,45,4373
293059,294674029,-58,53,4358
293060,294675028,-67,76,4378
293061,294676028,-72,68,4370
293062,294677028,-72,32,4353
293063,294678029,-74,32,4346
293064,294679029,-67,58,4357
293065,294680028,-60,63,4365
293066,294681029,-54,57,4377
293067,294682028,-56,62,4406
293068,294683029,-61,53,4373
293069,294684028,-44,42,4333
293070,294685029,-37,45,4333
293071,294686029,-44,63,4370
293072,294687029,-45,65,4382
293073,294688028,-52,55,4356
293074,294689029,-54,41,4361
293075,294690029,-54,37,4395
293076,294691029,-57,50,4411
293077,294692029,-62,61,4388
293078,294693029,-66,54,4378
293079,294694029,-53,69,4376
293080,294695028,-45,71,4371
293081,294696029,-36,50,4346
293082,294697029,-38,38,4324
293083,294698029,-63,40,4358
293084,294699029,-50,60,4394
293085,294700029,-40,60,4395
293086,294701029,-57,65,4384
293087,294702028,-58,56,4378
293088,294703029,-45,42,4362
293089,294704029,-31,47,4345
293090,294705029,-50,42,4365
293091,294706029,-50,45,4342
293092,294707029,-39,57,4357
293093,294708028,-39,56,4367
293094,294709028,-55,51,4349
293095,294710029,-52,52,4341
293096,294711029,-40,56,4332
293097,294712028,-51,63,4377
293098,294713029,-56,57,4388
293099,294714029,-53,51,4376
293100,294715029,-44,62,4383
293101,294716028,-28,64,4391
293102,294717029,-10,53,4382
293103,294718028,-30,44,4383
293104,294719029,-60,59,4364
293105,294720029,-54,78,4372
293106,294721029,-45,52,4392
293107,294722029,-52,51,4363
293108,294723028,-53,82,4338
293109,294724029,-48,65,4342
293110,294725029,-44,48,4372
293111,294726029,-34,51,4379
293112,294727028,-44,70,4358
293113,294728028,-65,77,4354
293114,294729029,-54,54,4349
293115,294730029,-49,47,4334
293116,294731029,-43,59,4336
293117,294732029,-46,60,4353
293118,294733028,-60,70,4381
293119,294734029,-54,71,4382
293120,294735029,-50,53,4356
293121,294736028,-62,51,4361
293122,294737028,-69,59,4379
293123,294738029,-53,59,4379
293124,294739029,-42,55,4361
293125,294740029,-49,64,4378
293126,294741029,-62,73,4398
293127,294742029,-49,64,4368
293128,294743028,-34,57,4385
293129,294744029,-38,59,4385
293130,294745029,-53,49,4349
293131,294746029,-83,47,4339
293132,294747028,-73,58,4342
293133,294748029,-45,49,4356
293134,294749029,-49,49,4343
293135,294750029,-61,53,4350
293136,294751028,-54,47,4372
293137,294752029,-54,55,4366
293138,294753028,-53,50,4380
293139,294754029,-49,34,4381
293140,294755029,-58,33,4349
293141,294756029,-67,59,4353
293142,294757029,-62,73,4391
293143,294758028,-52,53,4387
293144,294759029,-45,41,4370
293145,294760029,-52,52,4361
293146,294761029,-64,67,4363
293147,294762028,-66,61,4359
293148,294763029,-68,56,4335
293149,294764029,-69,62,4355
293150,294765028,-65,51,4387
293151,294766029,-51,46,4370
293152,294767029,-51,62,4356
293153,294768029,-33,76,4398
293154,294769029,-35,54,4398
293155,294770028,-56,47,4373
293156,294771028,-45,64,4370
293157,294772029,-44,75,4368
293158,294773029,-39,69,4388
293159,294774029,-39,52,4393
293160,294775029,-53,45,4371
293161,294776029,-55,43,4354
293162,294777029,-52,56,4363
293163,294778028,-42,49,4360
293164,294779029,-51,38,4384
293165,294780029,-53,44,4403
293166,294781028,-51,55,4407
293167,294782029,-52,61,4405
293168,294783029,-54,49,4372
293169,294784028,-32,45,4363
293170,294785029,-38,52,4374
293171,294786029,-64,52,4373
293172,294787028,-48,60,4385
293173,294788029,-41,58,4414
293174,294789029,-39,51,4392
293175,294790028,-57,51,4384
293176,294791029,-49,48,4402
293177,294792029,-31,52,4389
293178,294793029,-33,45,4372
293179,294794028,-39,40,4354
293180,294795029,-53,36,4376
293181,294796029,-64,23,4408
293182,294797029,-75,30,4412
293183,294798029,-59,57,4408
293184,294799028,-61,69,4390
293185,294800029,-66,55,4367
293186,294801028,-41,50,4362
293187,294802029,-45,61,4380
293188,294803029,-51,59,4381
293189,294804028,-34,54,4374
293190,294805029,-36,65,4367
293191,294806029,-37,69,4386
293192,294807029,-30,66,4413
293193,294808029,-42,63,4419
293194,294809029,-58,65,4364
293195,294810029,-55,65,4344
293196,294811029,-60,53,4355
293197,294812029,-68,55,4340
293198,294813029,-53,66,4363
293199,294814028,-50,57,4373
293200,294815029,-52,56,4383
293201,294816029,-45,68,4394
293202,294817029,-40,53,4388
293203,294818029,-37,41,4365
293204,294819028,-40,56,4349
293205,294820029,-50,67,4346
293206,294821028,-35,69,4356
293207,294822029,-31,58,4372
293208,294823028,-48,41,4374
293209,294824029,-45,54,4366
293210,294825028,-31,65,4366
293211,294826028,-37,51,4385
293212,294827029,-41,52,4383
293213,294828029,-17,55,4378
293214,294829029,-21,55,4389
293215,294830029,-56,59,4386
293216,294831028,-59,59,4386
293217,294832028,-52,67,4384
293218,294833029,-46,72,4374
293219,294834028,-18,69,4376
293220,294835029,-23,72,4357
293221,294836029,-40,77,4354
293222,294837029,-15,68,4380
293223,294838029,-10,46,4369
293224,294839029,-15,43,4336
293225,294840029,-38,44,4339
293226,294841029,-86,39,4364
293227,294842029,-89,52,4351
293228,294843028,-77,61,4354
293229,294844029,-55,73,4392
293230,294845028,-37,59,4403
293231,294846029,-37,49,4378
293232,294847029,-40,59,4357
293233,294848029,-39,57,4370
293234,294849029,-17,52,4387
293235,294850029,-38,51,4366
293236,294851029,-72,52,4364
293237,294852028,-65,60,4373
293238,294853028,-79,50,4374
293239,294854029,-88,44,4358
293240,294855029,-67,51,4333
293241,294856029,-66,43,4345
293242,294857029,-62,63,4349
293243,294858028,-52,60,4357
293244,294859029,-49,52,4372
293245,294860029,-47,54,4373
293246,294861029,-54,44,4385
293247,294862029,-53,46,4354
293248,294863029,-56,47,4355
293249,294864029,-52,49,4377
293250,294865029,-46,49,4370
293251,294866028,-58,46,4383
293252,294867029,-56,39,4369
293253,294868028,-51,46,4374
293254,294869029,-41,66,4386
293255,294870029,-28,53,4386
293256,294871029,-39,27,4372
293257,294872029,-45,36,4376
293258,294873029,-53,49,4412
293259,294874029,-50,38,4396
293260,294875028,-36,43,4378
293261,294876028,-36,59,4396
293262,294877029,-46,68,4386
293263,294878029,-44,58,4379
293264,294879029,-40,46,4399
293265,294880029,-52,50,4370
293266,294881028,-67,61,4367
293267,294882028,-70,52,4392
293268,294883028,-62,40,4362
293269,294884028,-64,39,4359
293270,294885029,-57,50,4369
293271,294886028,-51,79,4394
293272,294887029,-44,73,4420
293273,294888029,-40,62,4403
293274,294889029,-58,49,4375
293275,294890029,-61,46,4361
293276,294891029,-51,57,4355
293277,294892029,-35,67,4354
293278,294893029,-29,68,4368
293279,294894028,-28,43,4397
293280,294895029,-30,34,4407
293281,294896028,-32,47,4406
293282,294897029,-56,34,4386
293283,294898028,-73,30,4383
293284,294899029,-64,63,4402
293285,294900029,-59,81,4383
293286,294901028,-53,70,4382
293287,294902029,-51,57,4379
293288,294903029,-25,62,4361
293289,294904029,-28,70,4362
293290,294905029,-42,74,4387
293291,294906028,-55,58,4391
293292,294907029,-47,39,4360
293293,294908029,-27,39,4362
293294,294909029,-36,48,4382
293295,294910029,-47,55,4387
293296,294911029,-42,56,4374
293297,294912028,-28,63,4332
293298,294913028,-30,60,4348
293299,294914029,-36,55,4371
293300,294915029,-36,55,4373
293301,294916028,-36,50,4397
293302,294917029,-36,43,4397
293303,294918029,-32,52,4375
293304,294919029,-31,59,4369
293305,294920029,-49,41,4394
293306,294921029,-68,35,4407
293307,294922028,-58,49,4389
293308,294923029,-49,35,4409
293309,294924029,-57,48,4423
293310,294925029,-59,62,4380
293311,294926028,-56,46,4395
293312,294927029,-59,42,4411
293313,294928028,-48,33,4374
293314,294929029,-24,46,4367
293315,294930029,-22,60,4390
293316,294931029,-45,55,4391
293317,294932029,-58,52,4404
293318,294933029,-47,48,4424
293319,294934029,-44,45,4413
293320,294935028,-31,54,4388
293321,294936029,-29,50,4367
293322,294937028,-51,39,4362
293323,294938028,-47,51,4388
293324,294939029,-18,73,4378
293325,294940029,-7,79,4354
293326,294941029,-38,67,4373
293327,294942029,-49,58,4391
293328,294943029,-22,56,4386
293329,294944029,-24,39,4375
293330,294945029,-51,43,4385
293331,294946029,-34,53,4379
293332,294947029,-13,55,4367
293333,294948029,-28,55,4374
293334,294949028,-42,47,4378
293335,294950029,-20,43,4369
293336,294951029,-16,47,4369
293337,294952028,-50,51,4362
293338,294953028,-64,49,4364
293339,294954029,-62,58,4393
293340,294955029,-47,57,4397
293341,294956029,-33,36,4387
293342,294957028,-50,34,4396
293343,294958029,-70,50,4396
293344,294959029,-54,66,4375
293345,294960029,-45,60,4353
293346,294961029,-63,42,4364
293347,294962029,-67,57,4368
293348,294963029,-59,76,4360
293349,294964028,-56,63,4368
293350,294965029,-50,47,4366
293351,294966029,-58,65,4384
293352,294967029,-66,61,4393
293353,294968029,-63,52,4369
293354,294969028,-64,72,4370
293355,294970029,-45,63,4372
293356,294971028,-55,40,4360
293357,294972029,-60,59,4365
293358,294973028,-46,88,4397
293359,294974029,-55,76,4408
293360,294975029,-39,61,4373
293361,294976028,-45,56,4343
293362,294977029,-65,52,4373
293363,294978029,-48,68,4387
293364,294979029,-28,74,4353
293365,294980029,-37,56,4362
293366,294981028,-45,42,4380
293367,294982029,-43,49,4368
293368,294983029,-60,55,4377
293369,294984029,-53,55,4412
293370,294985029,-35,44,4380
293371,294986028,-44,47,4350
293372,294987029,-61,61,4345
293373,294988028,-67,42,4355
293374,294989029,-60,32,4385
293375,294990028,-47,38,4363
293376,294991029,-54,55,4349
293377,294992029,-58,58,4362
293378,294993029,-47,44,4381
293379,294994029,-46,57,4384
293380,294995029,-47,59,4386
293381,294996029,-55,46,4399
293382,294997029,-50,47,4389
293383,294998028,-42,41,4382
293384,294999029,-42,37,4376
293385,295000029,-41,46,4382
293386,295001029,-55,68,4401
293387,295002028,-61,73,4366
293388,295003028,-31,55,4369
293389,295004029,-14,55,4398
293390,295005029,-33,66,4378
293391,295006029,-41,52,4376
293392,295007029,-47,43,4368
293393,295008029,-40,52,4366
293394,295009029,-25,53,4373
293395,295010029,-35,57,4383
293396,295011029,-39,59,4395
293397,295012028,-25,47,4386
293398,295013028,-21,59,4396
293399,295014029,-27,68,4387
293400,295015029,-37,43,4357
293401,295016029,-46,43,4377
293402,295017029,-55,43,4371
293403,295018029,-53,48,4347
293404,295019029,-33,62,4364
293405,295020029,-30,55,4376
293406,295021028,-36,40,4373
293407,295022029,-29,41,4360
293408,295023028,-23,36,4346
293409,295024029,-21,31,4368
293410,295025028,-26,53,4404
293411,295026029,-54,54,4379
293412,295027029,-66,49,4361
293413,295028029,-49,58,4367
293414,295029028,-45,50,4353
293415,295030029,-44,52,4358
293416,295031028,-47,68,4378
293417,295032029,-30,65,4365
293418,295033029,-18,53,4363
293419,295034029,-35,60,4390
293420,295035028,-23,49,4375
293421,295036029,-35,52,4359
293422,295037029,-39,55,4357
293423,295038029,-15,37,4367
293424,295039029,-35,43,4365
293425,295040028,-57,45,4365
293426,295041029,-36,47,4370
293427,295042029,-33,47,4354
293428,295043028,-40,42,4352
293429,295044028,-24,57,4358
293430,295045029,-31,73,4371
293431,295046029,-36,51,4394
293432,295047029,-44,26,4396
293433,295048028,-56,25,4348
293434,295049029,-45,30,4316
293435,295050029,-27,40,4346
293436,295051029,-30,57,4374
293437,295052029,-50,58,4373
293438,295053029,-46,48,4347
293439,295054029,-23,39,4357
293440,295055028,-32,42,4388
293441,295056029,-35,44,4352
293442,295057028,-37,46,4350
293443,295058029,-46,67,4365
293444,295059029,-40,80,4372
293445,295060029,-34,76,4381
293446,295061029,-32,66,4369
293447,295062029,-35,55,4373
293448,295063029,-26,41,4371
293449,295064029,-29,41,4347
293450,295065028,-42,51,4333
293451,295066029,-35,50,4349
293452,295067028,-26,56,4347
293453,295068029,-20,60,4339
293454,295069029,-34,65,4360
293455,295070028,-58,67,4392
293456,295071029,-41,59,4418
293457,295072029,-32,55,4416
293458,295073029,-50,63,4405
293459,295074029,-53,53,4395
293460,295075029,-45,49,4382
293461,295076029,-54,77,4402
293462,295077029,-62,71,4401
293463,295078028,-61,53,4379
293464,295079028,-62,65,4379
293465,295080028,-65,68,4379
293466,295081029,-51,67,4374
293467,295082029,-25,62,4378
293468,295083029,-36,58,4391
293469,295084029,-44,66,4386
293470,295085029,-37,65,4381
293471,295086028,-50,54,4380
293472,295087029,-53,45,4389
293473,295088028,-54,47,4397
293474,295089028,-55,61,4397
293475,295090029,-45,76,4401
293476,295091029,-43,71,4406
293477,295092028,-37,40,4383
293478,295093029,-35,30,4344
293479,295094029,-40,53,4379
293480,295095029,-34,53,4398
293481,295096029,-37,36,4398
293482,295097028,-52,52,4381
293483,295098028,-46,70,4360
293484,295099029,-33,61,4367
293485,295100029,-55,52,4371
293486,295101029,-62,44,4377
293487,295102029,-60,34,4391
293488,295103029,-50,24,4391
293489,295104029,-52,34,4358
293490,295105029,-55,50,4352
293491,295106029,-33,48,4366
293492,295107028,-35,47,4360
293493,295108028,-24,63,4345
293494,295109029,-21,60,4348
293495,295110029,-53,41,4359
293496,295111028,-51,30,4371
293497,295112028,-35,29,4368
293498,295113029,-45,50,4360
293499,295114029,-63,43,4351
293500,295115029,-60,17,4363
293501,295116029,-55,29,4390
293502,295117029,-62,53,4379
293503,295118029,-52,65,4386
293504,295119029,-50,75,4385
293505,295120029,-53,68,4366
293506,295121029,-58,56,4376
293507,295122029,-57,53,4371
293508,295123029,-73,40,4372
293509,295124029,-90,42,4388
293510,295125028,-86,56,4387
293511,295126029,-115,54,4398
293512,295127029,-144,27,4384
293513,295128029,-135,43,4360
293514,295129029,-22,67,4335
293515,295130029,100,73,4344
293516,295131028,124,76,4385
293517,295132029,115,57,4382
293518,295133029,27,50,4381
293519,295134029,-76,46,4385
293520,295135029,-97,40,4388
293521,295136029,-55,37,4389
293522,295137029,-56,47,4419
293523,295138029,-100,58,4427
293524,295139029,-101,56,4400
293525,295140029,-70,68,4390
293526,295141028,-25,90,4373
293527,295142028,15,83,4366
293528,295143029,20,71,4376
293529,295144029,-1,64,4343
293530,295145029,-5,66,4373
293531,295146028,10,62,4409
293532,295147029,6,50,4361
293533,295148028,-41,37,4354
293534,295149028,-64,19,4369
293535,295150029,-73,20,4373
293536,295151029,-84,46,4377
293537,295152029,-70,46,4356
293538,295153029,-37,49,4343
293539,295154028,-25,73,4346
293540,295155029,-24,79,4346
293541,295156029,-6,81,4359
293542,295157029,-22,73,4379
293543,295158029,-30,55,4397
293544,295159028,-30,50,4398
293545,295160028,-58,44,4407
293546,295161029,-69,39,4415
293547,295162028,-56,49,4417
293548,295163029,-35,51,4401
293549,295164029,-26,57,4380
293550,295165028,-37,58,4388
293551,295166028,-33,76,4400
293552,295167029,-28,85,4352
293553,295168028,-39,77,4320
293554,295169029,-41,81,4334
293555,295170028,-30,61,4338
293556,295171028,-39,47,4359
293557,295172028,-50,47,4369
293558,295173029,-58,49,4330
293559,295174028,-60,58,4336
293560,295175029,-40,45,4371
293561,295176029,-38,48,4377
293562,295177029,-43,59,4407
293563,295178029,-48,61,4412
293564,295179029,-54,68,4388
293565,295180028,-43,71,4387
293566,295181029,-43,71,4399
293567,295182029,-45,61,4387
293568,295183029,-40,58,4394
293569,295184029,-32,54,4394
293570,295185029,-21,56,4394
293571,295186028,-41,39,4386
293572,295187029,-65,38,4347
293573,295188029,-58,48,4347
293574,295189029,-31,36,4390
293575,295190028,-3,47,4403
293576,295191029,-8,57,4371
293577,295192029,-37,57,4356
293578,295193028,-36,46,4368
293579,295194029,-24,39,4384
293580,295195029,-13,47,4376
293581,295196029,-8,47,4344
293582,295197028,-24,44,4336
293583,295198029,-42,50,4354
293584,295199029,-56,41,4375
293585,295200029,-53,46,4358
293586,295201028,-32,56,4357
293587,295202029,-36,53,4386
293588,295203029,-58,43,4388
293589,295204028,-44,46,4386
293590,295205029,-25,67,4373
293591,295206029,-11,70,4361
293592,295207028,-15,59,4336
293593,295208029,-45,36,4333
293594,295209028,-56,43,4340
293595,295210028,-39,60,4337
293596,295211029,-37,68,4368
293597,295212029,-58,67,4380
293598,295213029,-54,52,4374
293599,295214029,-31,42,4369
293600,295215028,-28,31,4371
293601,295216028,-25,37,4370
293602,295217029,-27,59,4369
293603,295218028,-34,62,4390
293604,295219028,-35,63,4385
293605,295220029,-43,70,4374
293606,295221028,-35,77,4387
293607,295222029,-32,57,4383
293608,295223029,-31,49,4366
293609,295224029,-35,60,4355
293610,295225029,-35,51,4367
293611,295226029,-44,54,4369
293612,295227029,-40,57,4349
293613,295228029,-36,43,4352
293614,295229029,-50,38,4360
293615,295230029,-45,46,4353
293616,295231029,-50,40,4341
293617,295232029,-37,38,4339
293618,295233029,-30,52,4355
293619,295234029,-35,67,4378
293620,295235029,-38,57,4385
293621,295236029,-37,35,4391
293622,295237029,-26,36,4394
293623,295238029,-21,37,4389
293624,295239029,-31,34,4373
293625,295240029,-47,46,4367
293626,295241029,-56,54,4371
293627,295242029,-53,71,4369
293628,295243028,-26,66,4373
293629,295244029,-38,44,4373
293630,295245029,-40,47,4394
293631,295246029,-29,59,4392
293632,295247029,-24,63,4378
293633,295248028,-6,53,4413
293634,295249028,-24,56,4406
293635,295250028,-68,49,4377
293636,295251029,-83,41,4383
293637,295252029,-56,58,4372
293638,295253029,-33,64,4366
293639,295254028,-39,63,4363
293640,295255028,-45,60,4357
293641,295256029,-38,46,4386
293642,295257028,-48,45,4384
293643,295258029,-28,51,4376
293644,295259028,-20,44,4384
293645,295260028,-37,46,4364
293646,295261029,-40,50,4369
293647,295262029,-38,47,4390
293648,295263028,-42,44,4379
293649,295264029,-51,42,4373
293650,295265029,-37,40,4394
293651,295266028,-31,50,4389
293652,295267028,-48,46,4352
293653,295268029,-50,35,4375
293654,295269029,-33,52,4399
293655,295270029,-22,60,4379
293656,295271028,-24,49,4363
293657,295272028,-26,42,4360
293658,295273028,-28,56,4365
293659,295274028,-31,67,4358
293660,295275028,-32,62,4363
293661,295276028,-51,53,4379
293662,295277028,-44,45,4386
293663,295278029,-24,47,4396
293664,295279029,-41,40,4390
293665,295280029,-49,52,4373
293666,295281029,-38,68,4375
293667,295282029,-47,52,4394
293668,295283029,-42,63,4412
293669,295284029,-31,66,4408
293670,295285029,-41,66,4389
293671,295286029,-30,71,4351
293672,295287028,-33,60,4352
293673,295288028,-44,66,4364
293674,295289029,-34,60,4379
293675,295290028,-43,47,4388
293676,295291028,-40,55,4372
293677,295292029,-32,51,4374
293678,295293029,-33,51,4383
293679,295294029,-28,72,4388
293680,295295028,-37,63,4381
293681,295296028,-44,43,4393
293682,295297028,-49,39,4384
293683,295298029,-42,39,4371
293684,295299029,-21,40,4381
293685,295300029,-8,42,4388
293686,295301029,-24,53,4374
293687,295302029,-72,47,4361
293688,295303029,-64,34,4376
293689,295304029,-12,50,4375
293690,295305029,-3,59,4396
293691,295306029,-17,50,4388
293692,295307029,-38,51,4372
293693,295308028,-63,56,4387
293694,295309029,-53,34,4389
293695,295310029,-39,16,4389
293696,295311029,-52,31,4383
293697,295312028,-66,45,4392
293698,295313029,-63,62,4401
293699,295314028,-39,61,4391
293700,295315029,-51,48,4378
293701,295316029,-36,57,4367
293702,295317029,-14,54,4389
293703,295318029,-57,44,4385
293704,295319029,-61,45,4364
293705,295320029,-41,33,4369
293706,295321029,-39,42,4390
293707,295322029,-34,68,4394
293708,295323028,-30,62,4359
293709,295324029,-29,47,4378
293710,295325029,-28,54,4368
293711,295326028,-30,59,4358
293712,295327029,-31,59,4388
293713,295328029,-29,73,4374
293714,295329028,-17,81,4390
293715,295330029,-21,62,4392
293716,295331028,-43,60,4371
293717,295332029,-30,68,4393
293718,295333029,-12,66,4382
293719,295334029,-27,63,4362
293720,295335028,-59,48,4354
293721,295336029,-47,53,4365
293722,295337029,-47,53,4365
293723,295338029,-31,56,4346
293724,295339029,-31,51,4383
293725,295340028,-31,51,4383
293726,295341029,-42,26,4386
293727,295342029,-42,26,4386
293728,295343029,-35,55,4382
293729,295344028,-35,55,4382
293730,295345029,-46,44,4374
293731,295346028,-46,44,4374
293732,295347029,-51,46,4385
293733,295348029,-45,56,4400
293734,295349029,-49,69,4363
293735,295350029,-47,79,4321
293736,295351029,-56,78,4357
293737,295352029,-58,58,4385
293738,295353028,-58,58,4385
293739,295354029,-44,47,4356
293740,295355029,-26,36,4348
293741,295356029,-31,40,4367
293742,295357029,-36,58,4362
293743,295358029,-36,52,4349
293744,295359029,-30,53,4359
293745,295360028,-25,68,4379
293746,295361029,-39,54,4397
293747,295362028,-39,48,4388
293748,295363029,-40,47,4380
293749,295364029,-56,31,4355
293750,295365029,-57,36,4361
293751,295366029,-44,39,4383
293752,295367028,-48,31,4368
293753,295368029,-57,36,4364
293754,295369028,-47,54,4380
293755,295370029,-48,63,4386
293756,295371029,-52,66,4386
293757,295372029,-57,76,4398
293758,295373028,-47,62,4401
293759,295374028,-25,37,4408
293760,295375029,-37,45,4401
293761,295376029,-48,61,4415
293762,295377029,-39,67,4419
293763,295378029,-26,70,4395
293764,295379029,-21,74,4403
293765,295380029,-42,58,4420
293766,295381029,-45,42,4392
293767,295382029,-33,42,4377
293768,295383029,-32,36,4368
293769,295384028,-52,51,4357
293770,295385029,-58,50,4361
293771,295386029,-33,27,4366
293772,295387029,-22,23,4375
293773,295388029,-13,37,4377
293774,295389029,-24,45,4379
293775,295390028,-48,43,4359
293776,295391028,-55,44,4328
293777,295392029,-52,32,4347
293778,295393029,-31,44,4375
293779,295394028,-26,58,4388
293780,295395028,-50,51,4382
293781,295396029,-44,43,4351
293782,295397029,-26,50,4358
293783,295398029,-29,60,4351
293784,295399029,-30,55,4350
293785,295400029,-23,65,4369
293786,295401028,-14,76,4383
293787,295402029,-26,82,4382
293788,295403029,-41,67,4356
293789,295404028,-39,43,4354
293790,295405029,-29,43,4373
293791,295406028,-9,48,4356
293792,295407029,-18,53,4356
293793,295408029,-25,66,4365
293794,295409028,-14,72,4351
293795,295410028,-11,59,4347
293796,295411029,-20,67,4369
293797,295412028,-37,68,4385
293798,295413029,-20,50,4385
293799,295414028,-27,63,4395
293800,295415028,-38,70,4383
293801,295416029,-14,45,4378
293802,295417028,-18,33,4374
293803,295418029,-27,44,4357
293804,295419029,-29,49,4360
293805,295420029,-26,51,4365
293806,295421029,-18,47,4368
293807,295422029,-25,53,4368
293808,295423029,-35,52,4356
293809,295424029,-32,46,4367
293810,295425029,-28,54,4397
293811,295426028,-31,75,4422
293812,295427029,-20,72,4409
293813,295428029,-10,49,4391
293814,295429029,-13,51,4372
293815,295430029,-29,50,4368
293816,295431029,-31,38,4373
293817,295432028,-23,29,4368
293818,295433029,-22,37,4390
293819,295434029,-22,55,4379
293820,295435029,-20,74,4374
293821,295436029,-24,57,4370
293822,295437029,-36,46,4345
293823,295438028,-42,57,4369
293824,295439028,-30,52,4396
293825,295440029,-28,55,4405
293826,295441029,-39,64,4379
293827,295442029,-26,56,4369
293828,295443029,-12,53,4376
293829,295444029,-20,59,4378
293830,295445028,-40,34,4381
293831,295446029,-48,37,4385
293832,295447029,-41,52,4393
293833,295448029,-30,59,4376
293834,295449028,-34,75,4383
293835,295450028,-28,51,4396
293836,295451029,-28,38,4389
293837,295452029,-38,63,4389
293838,295453028,-27,65,4412
293839,295454029,-28,65,4392
293840,295455028,-27,60,4363
293841,295456029,-30,44,4363
293842,295457029,-20,45,4382
293843,295458029,-15,55,4388
293844,295459029,-34,57,4366
293845,295460028,-30,59,4362
293846,295461028,-36,62,4377
293847,295462029,-23,65,4384
293848,295463029,-23,65,4384
293849,295464029,-20,37,4367
293850,295465029,-34,36,4346
293851,295466029,-13,39,4353
293852,295467028,-27,50,4340
293853,295468028,-36,63,4345
293854,295469028,1,61,4398
293855,295470029,4,62,4390
293856,295471028,-16,59,4372
293857,295472029,-24,52,4378
293858,295473029,-33,38,4390
293859,295474029,-46,53,4393
293860,295475029,-41,67,4393
293861,295476029,-35,63,4413
293862,295477029,-36,77,4400
293863,295478029,-12,74,4380
293864,295479029,-6,62,4378
293865,295480028,-32,68,4374
293866,295481029,-52,63,4409
293867,295482029,-46,44,4404
293868,295483029,-40,45,4368
293869,295484029,-46,45,4370
293870,295485029,-30,49,4377
293871,295486028,-26,64,4378
293872,295487029,-25,53,4379
293873,295488028,-37,35,4369
293874,295489029,-37,39,4368
293875,295490028,-23,55,4394
293876,295491028,-36,46,4397
293877,295492029,-47,37,4382
293878,295493029,-36,51,4351
293879,295494029,-19,59,4334
293880,295495028,-28,62,4350
293881,295496029,-33,57,4373
293882,295497029,-21,40,4406
293883,295498029,-29,49,4398
293884,295499029,-39,62,4389
293885,295500028,-30,63,4389
293886,295501028,-39,60,4367
293887,295502029,-48,45,4381
293888,295503029,-60,44,4364
293889,295504028,-53,53,4352
293890,295505029,-39,50,4378
293891,295506029,-50,52,4399
293892,295507028,-27,56,4403
293893,295508029,-21,54,4350
293894,295509029,-36,39,4341
293895,295510029,-28,32,4375
293896,295511029,-12,55,4369
293897,295512029,-15,54,4366
293898,295513029,-44,34,4377
293899,295514029,-56,37,4393
293900,295515029,-41,55,4370
293901,295516028,-19,49,4350
293902,295517029,-36,48,4365
293903,295518029,-42,72,4374
293904,295519029,-23,58,4372
293905,295520029,-28,50,4346
293906,295521029,-26,64,4359
293907,295522029,-11,48,4385
293908,295523029,1,49,4368
293909,295524028,-19,61,4360
293910,295525029,-22,63,4358
293911,295526029,-13,66,4345
293912,295527028,-16,52,4371
293913,295528029,-23,40,4388
293914,295529028,-27,50,4369
293915,295530029,-23,51,4375
293916,295531029,-24,49,4370
293917,295532029,-1,50,4358
293918,295533029,-11,45,4361
293919,295534028,-33,41,4375
293920,295535028,-15,46,4360
293921,295536029,-24,51,4354
293922,295537029,-21,43,4361
293923,295538028,-23,40,4359
293924,295539028,-45,48,4370
293925,295540029,-39,58,4391
293926,295541029,-26,63,4388
293927,295542029,-16,45,4361
293928,295543028,-9,39,4372
293929,295544029,-28,58,4357
293930,295545029,-46,57,4343
293931,295546029,-25,49,4360
293932,295547029,-20,52,4360
293933,295548029,-30,65,4358
293934,295549029,-20,54,4371
293935,295550029,-27,38,4379
293936,295551029,-27,30,4373
293937,295552029,-17,33,4348
293938,295553029,-49,45,4331
293939,295554029,-57,55,4355
293940,295555029,-40,49,4404
293941,295556029,-43,36,4402
293942,295557028,-21,53,4359
293943,295558028,7,51,4370
293944,295559029,-20,34,4386
293945,295560029,-24,50,4398
293946,295561029,-17,60,4398
293947,295562029,-44,64,4387
293948,295563029,-20,69,4381
293949,295564029,-15,54,4347
293950,295565029,-42,41,4329
293951,295566029,-31,55,4374
293952,295567029,-35,65,4382
293953,295568029,-35,39,4374
293954,295569029,-25,34,4384
293955,295570028,-19,40,4349
293956,295571029,11,47,4325
293957,295572029,4,39,4342
293958,295573028,-35,40,4339
293959,295574029,-21,56,4361
293960,295575028,-11,58,4416
293961,295576028,-13,45,4399
293962,295577028,-6,44,4361
293963,295578029,-22,40,4357
293964,295579028,-25,27,4383
293965,295580028,-19,35,4382
293966,295581029,-14,58,4351
293967,295582029,-8,54,4340
293968,295583029,-16,43,4357
293969,295584029,-40,47,4361
293970,295585029,-56,45,4352
293971,295586029,-50,55,4359
293972,295587029,-26,51,4406
293973,295588029,-18,47,4430
293974,295589028,-22,47,4383
293975,295590029,-40,39,4382
293976,295591028,-53,31,4390
293977,295592029,-44,52,4364
293978,295593029,-41,67,4364
293979,295594028,-42,69,4381
293980,295595029,-48,63,4380
293981,295596028,-41,49,4387
293982,295597029,-4,43,4397
293983,295598029,-11,46,4398
293984,295599028,-39,56,4422
293985,295600028,-19,48,4412
293986,295601029,-36,37,4380
293987,295602028,-36,52,4349
293988,295603029,-13,47,4364
293989,295604029,-25,33,4384
293990,295605029,-38,55,4375
293991,295606029,-28,56,4373
293992,295607029,-31,44,4378
293993,295608029,-41,57,4377
293994,295609029,-35,43,4364
293995,295610029,-34,33,4375
293996,295611029,-33,55,4377
293997,295612028,-32,57,4368
293998,295613028,-30,42,4352
293999,295614029,-31,42,4364
294000,295615029,-31,47,4388
294001,295616029,-15,54,4363
294002,295617029,-36,36,4364
294003,295618029,-47,28,4373
294004,295619029,-14,54,4365
294005,295620029,-7,48,4378
294006,295621029,-2,35,4380
294007,295622029,-31,41,4379
294008,295623029,-32,68,4389
294009,295624029,-18,67,4396
294010,295625029,-25,49,4396
294011,295626028,-7,38,4369
294012,295627028,-9,45,4337
294013,295628029,-20,53,4345
294014,295629029,-30,48,4367
294015,295630029,-32,37,4382
294016,295631029,-25,38,4404
294017,295632029,-26,50,4391
294018,295633029,-19,48,4386
294019,295634029,-4,46,4382
294020,295635028,-4,32,4346
294021,295636029,-24,43,4379
294022,295637028,-38,54,4399
294023,295638029,-45,47,4383
294024,295639029,-43,69,4382
294025,295640029,-34,82,4381
294026,295641029,-23,67,4369
294027,295642029,-22,52,4365
294028,295643029,-49,54,4378
294029,295644029,-43,58,4391
294030,295645029,-26,52,4373
294031,295646029,-32,44,4340
294032,295647029,-29,37,4364
294033,295648029,-20,51,4401
294034,295649029,-23,71,4402
294035,295650029,-26,69,4379
294036,295651029,-38,52,4388
294037,295652029,-69,34,4377
294038,295653029,-51,18,4370
294039,295654028,-24,37,4377
294040,295655028,-37,53,4376
294041,295656029,-38,46,4373
294042,295657029,-37,41,4373
294043,295658029,-38,41,4390
294044,295659029,-33,43,4400
294045,295660029,-48,55,4382
294046,295661029,-43,55,4369
294047,295662029,-30,37,4384
294048,295663029,-36,44,4402
294049,295664029,-35,43,4399
294050,295665029,-43,27,4386
294051,295666028,-52,41,4403
294052,295667028,-45,64,4398
294053,295668029,-43,68,4389
294054,295669029,-49,64,4392
294055,295670029,-42,43,4395
294056,295671028,-23,42,4405
294057,295672029,-17,47,4416
294058,295673028,-24,41,4398
294059,295674029,-1,43,4361
294060,295675029,-11,42,4354
294061,295676029,-38,48,4370
294062,295677029,-16,56,4379
294063,295678029,1,54,4378
294064,295679028,-7,50,4379
294065,295680029,-25,58,4380
294066,295681029,-29,57,4367
294067,295682028,-31,42,4388
294068,295683028,-40,58,4392
294069,295684029,-36,74,4367
294070,295685028,-29,50,4375
294071,295686029,-26,43,4363
294072,295687029,-24,42,4359
294073,295688029,-27,53,4385
294074,295689029,-33,68,4395
294075,295690028,-31,53,4397
294076,295691028,-26,55,4366
294077,295692029,-25,51,4360
294078,295693029,-24,46,4387
294079,295694029,-23,54,4364
294080,295695029,-22,45,4368
294081,295696029,-43,56,4405
294082,295697029,-51,65,4398
294083,295698029,-29,58,4375
294084,295699028,-28,52,4371
294085,295700028,-25,46,4369
294086,295701029,0,55,4380
294087,295702029,-1,52,4387
294088,295703029,-21,57,4381
294089,295704029,-31,62,4406
294090,295705029,-45,57,4390
294091,295706029,-45,61,4368
294092,295707029,-38,67,4394
294093,295708029,-23,60,4375
294094,295709029,-29,59,4347
294095,295710028,-48,73,4362
294096,295711029,-36,61,4394
294097,295712028,-42,46,4391
294098,295713029,-47,57,4391
294099,295714029,-18,57,4403
294100,295715028,1,55,4399
294101,295716028,-9,61,4391
294102,295717029,-23,66,4378
294103,295718029,-13,50,4357
294104,295719028,-2,40,4370
294105,295720029,-11,43,4385
294106,295721029,-23,43,4384
294107,295722029,-37,41,4391
294108,295723029,-36,49,4376
294109,295724029,-31,60,4368
294110,295725029,-24,42,4362
294111,295726029,-13,39,4377
294112,295727028,-12,47,4376
294113,295728029,-19,50,4344
294114,295729029,-34,41,4348
294115,295730029,-18,26,4390
294116,295731029,-20,48,4412
294117,295732029,-44,54,4387
294118,295733028,-39,43,4359
294119,295734029,-39,58,4354
294120,295735029,-40,56,4375
294121,295736029,-37,51,4380
294122,295737029,-37,34,4360
294123,295738029,-41,25,4362
294124,295739029,-31,36,4379
294125,295740029,-37,30,4378
294126,295741028,-45,36,4377
294127,295742028,-21,46,4371
294128,295743029,-15,36,4369
294129,295744029,-27,43,4390
294130,295745029,-27,60,4416
294131,295746028,-35,38,4417
294132,295747028,-35,29,4381
294133,295748029,-26,44,4359
294134,295749028,-32,35,4388
294135,295750029,-40,42,4393
294136,295751029,-25,52,4374
294137,295752029,-20,47,4390
294138,295753029,-36,51,4375
294139,295754029,-29,56,4350
294140,295755028,-19,62,4356
294141,295756028,-13,61,4373
294142,295757028,-10,55,4376
294143,295758029,5,63,4389
294144,295759028,-8,58,4392
294145,295760028,-26,54,4377
294146,295761029,-25,59,4363
294147,295762028,-33,58,4338
294148,295763029,-26,66,4329
294149,295764029,-21,65,4341
294150,295765029,-18,45,4349
294151,295766029,-26,51,4367
294152,295767029,-29,59,4374
294153,295768029,-16,55,4366
294154,295769029,-27,58,4359
294155,295770029,-22,54,4361
294156,295771029,-6,55,4367
294157,295772028,-13,44,4378
294158,295773029,-11,21,4381
294159,295774029,-14,36,4369
294160,295775029,3,50,4384
294161,295776028,4,47,4376
294162,295777029,-25,58,4356
294163,295778028,-35,53,4361
294164,295779029,-14,63,4374
294165,295780029,4,56,4383
294166,295781028,-11,40,4379
294167,295782029,-49,50,4389
294168,295783029,-53,62,4388
294169,295784028,-23,72,4359
294170,295785029,-13,74,4352
294171,295786029,-23,73,4368
294172,295787029,-51,52,4367
294173,295788028,-26,24,4354
294174,295789029,-3,24,4351
294175,295790028,-26,48,4364
294176,295791029,-25,54,4367
294177,295792029,-17,49,4343
294178,295793029,-18,49,4363
294179,295794029,-14,49,4384
294180,295795028,-9,55,4364
294181,295796028,-32,39,4356
294182,295797029,-35,37,4382
294183,295798029,-8,53,4400
294184,295799028,-26,63,4384
294185,295800029,-14,71,4389
294186,295801029,-19,62,4404
294187,295802029,-47,52,4361
294188,295803029,-13,50,4336
294189,295804029,6,54,4400
294190,295805029,-24,48,4417
294191,295806029,-48,57,4391
294192,295807028,-35,68,4401
294193,295808029,-19,62,4395
294194,295809028,-28,59,4367
294195,295810028,-50,37,4372
294196,295811029,-45,41,4406
294197,295812029,-39,54,4410
294198,295813028,-23,49,4393
294199,295814029,-13,60,4361
294200,295815029,-33,54,4353
294201,295816029,-29,51,4361
294202,295817029,-27,62,4363
294203,295818028,-36,57,4395
294204,295819029,-28,50,4389
294205,295820029,-28,39,4368
294206,295821028,-25,25,4398
294207,295822028,-26,29,4386
294208,295823028,-28,54,4364
294209,295824029,-15,48,4395
294210,295825028,-1,52,4392
294211,295826029,5,73,4388
294212,295827029,-7,54,4377
294213,295828029,-30,60,4386
294214,295829028,-40,82,4406
294215,295830028,-34,65,4363
294216,295831029,-29,37,4369
294217,295832029,-22,40,4371
294218,295833029,-28,30,4352
294219,295834028,-54,24,4373
294220,295835029,-60,28,4369
294221,295836029,-36,28,4358
294222,295837029,-33,48,4368
294223,295838029,-33,59,4381
294224,295839029,-34,48,4368
294225,295840029,-42,55,4368
294226,295841029,-25,62,4391
294227,295842028,-30,37,4381
294228,295843029,-41,47,4374
294229,295844029,-41,57,4379
294230,295845029,-50,43,4382
294231,295846029,-34,56,4387
294232,295847029,-12,71,4379
294233,295848028,-28,61,4383
294234,295849028,-31,47,4398
294235,295850029,-14,47,4400
294236,295851028,-8,55,4400
294237,295852029,-21,40,4400
294238,295853029,-30,39,4406
294239,295854029,-24,39,4382
294240,295855029,-32,41,4393
294241,295856029,-25,45,4404
294242,295857028,-22,38,4365
294243,295858029,-32,47,4368
294244,295859029,-31,46,4360
294245,295860029,-20,60,4319
294246,295861029,-21,55,4326
294247,295862028,-24,43,4360
294248,295863029,-32,65,4378
294249,295864029,-58,78,4366
294250,295865029,-45,67,4361
294251,295866029,-10,47,4368
294252,295867029,-8,43,4361
294253,295868029,-28,47,4361
294254,295869028,-33,49,4373
294255,295870029,-28,52,4396
294256,295871028,-34,62,4402
294257,295872029,-34,59,4402
294258,295873028,-40,49,4392
294259,295874029,-42,47,4381
294260,295875029,-31,32,4367
294261,295876029,-50,46,4372
294262,295877029,-60,55,4387
294263,295878029,-48,39,4386
294264,295879029,-44,46,4374
294265,295880029,-31,58,4386
294266,295881028,-43,59,4407
294267,295882028,-34,51,4408
294268,295883029,-31,55,4388
294269,295884029,-46,45,4379
294270,295885029,-26,36,4396
294271,295886029,-34,42,4381
294272,295887029,-57,49,4386
294273,295888029,-54,43,4406
294274,295889029,-49,44,4395
294275,295890029,-56,55,4388
294276,295891028,-50,40,4385
294277,295892029,-31,22,4401
294278,295893028,-43,36,4403
294279,295894029,-72,46,4355
294280,295895028,-58,39,4349
294281,295896029,-34,33,4369
294282,295897029,-37,31,4376
294283,295898029,-40,46,4385
294284,295899028,-33,51,4392
294285,295900028,-43,57,4387
294286,295901029,-53,55,4365
294287,295902029,-40,42,4377
294288,295903029,-43,46,4396
294289,295904028,-52,59,4365
294290,295905028,-47,42,4341
294291,295906029,-40,33,4358
294292,295907029,-28,44,4365
294293,295908028,-19,39,4372
294294,295909029,-32,44,4383
294295,295910029,-44,56,4361
294296,295911029,-51,52,4389
294297,295912029,-45,43,4412
294298,295913029,-31,40,4386
294299,295914029,-32,40,4388
294300,295915029,-38,46,4375
294301,295916029,-40,55,4379
294302,295917029,-30,52,4383
294303,295918028,-24,49,4360
294304,295919029,-34,41,4358
294305,295920028,-48,38,4357
294306,295921029,-33,45,4363
294307,295922029,-10,37,4377
294308,295923029,-9,39,4359
294309,295924029,-10,56,4370
294310,295925029,-5,69,4398
294311,295926028,4,77,4390
294312,295927028,2,63,4358
294313,295928029,-17,54,4356
294314,295929029,-18,53,4356
294315,295930029,-28,51,4346
294316,295931029,-24,51,4378
294317,295932029,-14,47,4396
294318,295933029,-42,42,4391
294319,295934029,-46,45,4397
294320,295935029,-28,61,4393
294321,295936029,-27,73,4378
294322,295937029,-34,64,4366
294323,295938029,-22,47,4353
294324,295939029,-11,46,4363
294325,295940029,-3,55,4374
294326,295941028,-1,56,4359
294327,295942029,-15,32,4343
294328,295943029,-6,37,4369
294329,295944029,1,53,4387
294330,295945029,-20,69,4342
294331,295946029,-30,78,4333
294332,295947029,-13,58,4368
294333,295948029,-3,44,4391
294334,295949029,1,38,4374
294335,295950028,6,56,4349
294336,295951028,-11,67,4352
294337,295952029,-13,58,4370
294338,295953029,-6,55,4376
294339,295954029,-6,51,4372
294340,295955029,9,45,4390
294341,295956029,-13,48,4420
294342,295957029,-31,52,4418
294343,295958029,-5,60,4388
294344,295959029,-11,59,4356
294345,295960029,-52,63,4359
294346,295961029,-44,80,4363
294347,295962029,-35,61,4346
294348,295963028,-52,49,4358
294349,295964029,-36,71,4373
294350,295965028,-26,75,4389
294351,295966029,-24,58,4385
294352,295967028,-11,53,4365
294353,295968029,-12,62,4372
294354,295969028,-27,68,4350
294355,295970029,-24,55,4323
294356,295971028,-25,49,4354
294357,295972029,-29,51,4367
294358,295973029,-11,46,4376
294359,295974028,-18,49,4375
294360,295975029,-32,42,4356
294361,295976029,-11,59,4344
294362,295977029,1,69,4339
294363,295978028,-4,60,4365
294364,295979028,21,66,4392
294365,295980028,22,59,4400
294366,295981029,-15,58,4384
294367,295982029,1,62,4360
294368,295983028,4,50,4365
294369,295984028,-13,49,4367
294370,295985029,9,53,4350
294371,295986029,-5,38,4357
294372,295987029,-7,48,4382
294373,295988029,-1,65,4381
294374,295989028,-8,52,4389
294375,295990029,-21,43,4382
294376,295991029,-2,66,4371
294377,295992029,20,70,4392
294378,295993029,-24,40,4394
294379,295994029,-34,38,4385
294380,295995029,-22,52,4383
294381,295996029,-9,52,4376
294382,295997028,1,54,4367
294383,295998029,-2,50,4369
294384,295999029,-17,26,4371
294385,296000029,-26,33,4368
294386,296001029,-12,62,4361
294387,296002028,-2,55,4349
294388,296003029,11,40,4347
294389,296004029,13,60,4369
294390,296005029,-10,68,4380
294391,296006028,-5,53,4391
294392,296007028,5,54,4398
294393,296008029,-5,54,4381
294394,296009029,6,58,4374
294395,296010028,-3,77,4371
294396,296011028,5,70,4355
294397,296012028,34,56,4345
294398,296013029,16,74,4383
294399,296014028,-12,59,4387
294400,296015029,-33,32,4365
294401,296016029,-28,50,4366
294402,296017029,2,57,4374
294403,296018029,2,58,4402
294404,296019029,-20,74,4397
294405,296020029,-43,56,4361
294406,296021029,-17,33,4365
294407,296022029,-6,38,4376
294408,296023029,-32,58,4374
294409,296024029,-33,60,4379
294410,296025028,-36,50,4383
294411,296026028,-36,46,4411
294412,296027028,-43,24,4420
294413,296028029,-48,28,4378
294414,296029029,-16,52,4377
294415,296030029,-9,51,4407
294416,296031028,-31,43,4418
294417,296032028,-27,39,4421
294418,296033029,-30,55,4387
294419,296034029,-21,59,4389
294420,296035029,-8,48,4405
294421,296036029,-7,49,4360
294422,296037029,-3,37,4340
294423,296038029,-8,30,4350
294424,296039029,-11,47,4356
294425,296040029,-10,63,4372
294426,296041029,-19,54,4400
294427,296042028,-8,58,4391
294428,296043029,-3,62,4366
294429,296044029,-5,28,4375
294430,296045028,-6,37,4378
294431,296046028,-13,67,4366
294432,296047029,-16,58,4367
294433,296048029,-32,50,4398
294434,296049029,-50,47,4391
294435,296050028,-25,36,4364
294436,296051028,-27,34,4368
294437,296052028,-48,46,4382
294438,296053028,-24,52,4370
294439,296054029,-12,42,4382
294440,296055029,-13,53,4394
294441,296056028,6,74,4370
294442,296057029,9,68,4391
294443,296058029,-35,59,4391
294444,296059028,-65,44,4372
294445,296060028,-88,41,4375
294446,296061029,-95,34,4376
294447,296062029,-88,12,4388
294448,296063029,-80,20,4397
294449,296064029,-19,22,4386
294450,296065029,-6,37,4353
294451,296066029,-33,53,4333
294452,296067029,-6,37,4352
294453,296068028,18,52,4347
294454,296069029,10,57,4336
294455,296070029,-34,29,4355
294456,296071028,-68,42,4373
294457,296072029,-49,56,4360
294458,296073029,-73,40,4340
294459,296074029,-113,43,4373
294460,296075028,-31,60,4428
294461,296076029,-3,47,4400
294462,296077029,-56,33,4364
294463,296078029,-41,50,4403
294464,296079029,23,62,4426
294465,296080028,39,60,4392
294466,296081028,-9,48,4372
294467,296082029,-4,60,4396
294468,296083029,16,56,4395
294469,296084028,-20,24,4368
294470,296085028,-42,27,4363
294471,296086029,-37,42,4358
294472,296087029,-37,34,4360
294473,296088029,-35,37,4357
294474,296089028,-30,49,4357
294475,296090029,6,41,4374
294476,296091029,19,52,4374
294477,296092028,-2,71,4371
294478,296093028,20,69,4360
294479,296094028,40,73,4350
294480,296095029,14,56,4364
294481,296096029,5,27,4369
294482,296097029,27,30,4361
294483,296098029,3,41,4371
294484,296099029,-21,66,4370
294485,296100028,-20,69,4389
294486,296101029,-29,64,4392
294487,296102029,-22,74,4379
294488,296103028,-8,84,4380
294489,296104029,-13,69,4393
294490,296105029,-25,48,4414
294491,296106029,-27,67,4399
294492,296107029,-31,52,4399
294493,296108029,-19,47,4415
294494,296109028,-2,44,4413
294495,296110029,-9,37,4385
294496,296111029,-10,42,4391
294497,296112029,-2,46,4429
294498,296113028,3,54,4414
294499,296114029,-17,39,4400
294500,296115028,-43,26,4400
294501,296116029,-43,57,4394
294502,296117028,-56,85,4386
294503,296118028,-31,56,4366
294504,296119029,-1,32,4369
294505,296120029,-11,41,4370
294506,296121029,-18,57,4370
294507,296122028,-24,52,4365
294508,296123028,-24,45,4355
294509,296124029,-1,52,4375
294510,296125028,0,52,4381
294511,296126029,-5,35,4373
294512,296127029,12,48,4379
294513,296128029,6,58,4384
294514,296129029,-19,39,4357
294515,296130029,-43,37,4326
294516,296131029,-43,38,4308
294517,296132029,-18,49,4339
294518,296133028,-12,75,4385
294519,296134029,-13,74,4386
294520,296135029,2,56,4408
294521,296136028,-17,53,4394
294522,296137029,-28,53,4349
294523,296138028,-4,50,4346
294524,296139028,5,56,4372
294525,296140028,-18,71,4380
294526,296141028,-34,62,4375
294527,296142029,-38,44,4389
294528,296143029,-53,41,4381
294529,296144029,-38,34,4364
294530,296145029,-12,28,4371
294531,296146029,-13,35,4363
294532,296147028,-18,22,4336
294533,296148029,-13,11,4352
294534,296149029,-4,25,4371
294535,296150029,-6,46,4369
294536,296151028,-18,62,4365
294537,296152029,5,56,4371
294538,296153029,9,50,4358
294539,296154028,-6,47,4359
294540,296155029,-13,47,4376
294541,296156029,-17,51,4377
294542,296157029,-12,54,4398
294543,296158028,-34,45,4394
294544,296159029,-44,60,4398
294545,296160029,-18,81,4393
294546,296161029,23,71,4358
294547,296162028,13,58,4377
294548,296163029,-11,49,4410
294549,296164029,-4,48,4413
294550,296165029,-2,40,4390
294551,296166029,-4,55,4363
294552,296167029,-15,68,4383
294553,296168029,-27,42,4425
294554,296169029,-27,41,4425
294555,296170029,0,38,4375
294556,296171029,-13,36,4341
294557,296172029,-33,57,4368
294558,296173028,10,65,4390
294559,296174029,12,49,4368
294560,296175029,-25,40,4320
294561,296176029,-11,44,4329
294562,296177029,-12,44,4410
294563,296178029,-29,49,4417
294564,296179029,-6,44,4376
294565,296180029,-36,64,4377
294566,296181029,-45,85,4411
294567,296182029,-17,77,4397
294568,296183029,-10,67,4395
294569,296184029,16,70,4412
294570,296185029,-3,71,4416
294571,296186029,-36,68,4399
294572,296187029,-30,65,4358
294573,296188029,-20,69,4376
294574,296189029,-27,81,4384
294575,296190029,-23,70,4407
294576,296191029,4,45,4412
294577,296192028,-3,24,4377
294578,296193028,-25,22,4367
294579,296194029,-23,44,4366
294580,296195029,-23,52,4361
294581,296196029,-18,50,4360
294582,296197029,-31,53,4393
294583,296198029,-30,50,4396
294584,296199029,-9,43,4364
294585,296200029,-16,27,4364
294586,296201029,-31,31,4374
294587,296202029,-27,49,4370
294588,296203029,-29,40,4352
294589,296204028,-42,12,4329
294590,296205029,-35,15,4332
294591,296206029,-36,47,4371
294592,296207029,-20,49,4388
294593,296208029,-14,50,4372
294594,296209028,7,44,4331
294595,296210029,22,44,4311
294596,296211028,6,56,4354
294597,296212029,13,51,4400
294598,296213028,-5,49,4400
294599,296214029,-24,46,4382
294600,296215029,-26,50,4385
294601,296216029,-33,33,4386
294602,296217028,-24,32,4372
294603,296218029,-21,50,4376
294604,296219029,-28,36,4375
294605,296220028,-33,28,4362
294606,296221029,-57,34,4375
294607,296222028,-25,30,4379
294608,296223028,-3,37,4379
294609,296224029,-26,58,4368
294610,296225029,-29,69,4385
294611,296226028,-33,55,4411
294612,296227028,-21,45,4381
294613,296228029,-15,51,4368
294614,296229029,-20,54,4364
294615,296230029,-9,53,4373
294616,296231029,-12,50,4380
294617,296232029,-28,51,4363
294618,296233029,-17,44,4386
294619,296234029,-8,36,4414
294620,296235028,3,35,4372
294621,296236028,13,39,4358
294622,296237029,0,41,4401
294623,296238029,-13,60,4404
294624,296239029,-19,60,4378
294625,296240029,4,42,4368
294626,296241029,13,50,4360
294627,296242029,-9,55,4364
294628,296243028,-15,62,4372
294629,296244029,5,56,4391
294630,296245028,14,45,4403
294631,296246029,8,46,4385
294632,296247029,-11,54,4397
294633,296248028,1,73,4396
294634,296249029,15,81,4364
294635,296250029,-17,68,4370
294636,296251029,-33,58,4390
294637,296252029,-33,54,4392
294638,296253028,-5,50,4388
294639,296254029,18,55,4374
294640,296255029,-7,50,4373
294641,296256029,-26,27,4378
294642,296257029,4,19,4393
294643,296258029,16,26,4417
294644,296259029,20,42,4393
294645,296260029,17,58,4336
294646,296261028,-12,56,4323
294647,296262028,-4,47,4359
294648,296263028,4,34,4382
294649,296264029,-2,38,4364
294650,296265029,5,42,4350
294651,296266029,-23,35,4351
294652,296267029,-40,46,4361
294653,296268028,1,54,4381
294654,296269028,1,57,4383
294655,296270029,-34,67,4396
294656,296271029,-38,57,4397
294657,296272029,-38,42,4408
294658,296273029,-39,37,4427
294659,296274029,-60,30,4389
294660,296275028,-50,46,4382
294661,296276029,-15,57,4403
294662,296277029,-25,40,4388
294663,296278029,-39,40,4377
294664,296279029,-13,58,4388
294665,296280029,2,68,4384
294666,296281028,-7,70,4389
294667,296282029,9,69,4374
294668,296283028,12,60,4356
294669,296284029,-6,67,4362
294670,296285029,4,83,4374
294671,296286029,71,72,4373
294672,296287028,62,54,4355
294673,296288029,10,53,4344
294674,296289028,26,57,4357
294675,296290029,42,45,4341
294676,296291029,14,36,4321
294677,296292029,-6,34,4321
294678,296293029,13,46,4377
294679,296294029,11,63,4431
294680,296295029,26,61,4396
294681,296296029,51,63,4389
294682,296297029,62,84,4388
294683,296298029,26,71,4387
294684,296299029,-35,47,4372
294685,296300028,-31,59,4371
294686,296301028,-17,60,4391
294687,296302029,-29,36,4390
294688,296303029,-44,33,4390
294689,296304029,-53,56,4388
294690,296305029,-68,69,4403
294691,296306029,-58,48,4407
294692,296307029,-32,38,4375
294693,296308029,-24,36,4339
294694,296309029,-43,33,4338
294695,296310029,-41,61,4363
294696,296311028,-1,70,4368
294697,296312028,18,47,4348
294698,296313029,10,49,4353
294699,296314029,-26,66,4377
294700,296315029,-18,62,4377
294701,296316028,11,54,4344
294702,296317029,-7,48,4345
294703,296318028,-2,43,4361
294704,296319028,5,49,4353
294705,296320029,22,53,4364
294706,296321029,30,47,4358
294707,296322028,4,58,4343
294708,296323028,29,67,4348
294709,296324029,26,59,4370
294710,296325028,11,69,4350
294711,296326029,56,70,4333
294712,296327029,68,58,4369
294713,296328029,54,59,4369
294714,296329029,21,46,4346
294715,296330028,0,50,4364
294716,296331029,-8,63,4385
294717,296332028,-35,52,4409
294718,296333029,0,34,4394
294719,296334029,19,55,4351
294720,296335029,-6,69,4363
294721,296336029,1,55,4361
294722,296337028,14,53,4343
294723,296338029,-16,53,4381
294724,296339029,-18,50,4417
294725,296340028,-10,57,4406
294726,296341029,-17,57,4404
294727,296342029,-3,33,4391
294728,296343029,-14,47,4373
294729,296344029,-3,54,4386
294730,296345029,-5,30,4385
294731,296346029,-10,35,4382
294732,296347029,-16,41,4393
294733,296348029,-29,56,4384
294734,296349028,-8,65,4408
294735,296350029,-8,41,4397
294736,296351028,-16,24,4366
294737,296352028,2,35,4382
294738,296353028,32,47,4362
294739,296354029,9,47,4353
294740,296355029,4,59,4365
294741,296356029,-1,64,4370
294742,296357029,-28,49,4358
294743,296358029,1,42,4353
294744,296359028,13,52,4366
294745,296360028,7,71,4366
294746,296361029,-3,79,4364
294747,296362029,-21,62,4383
294748,296363028,8,53,4399
294749,296364028,30,65,4397
294750,296365029,-1,66,4380
294751,296366028,-15,65,4365
294752,296367029,-39,49,4350
294753,296368029,-35,47,4364
294754,296369029,10,50,4388
294755,296370029,11,51,4389
294756,296371028,-4,63,4381
294757,296372029,4,51,4388
294758,296373029,-6,38,4407
294759,296374029,-28,40,4381
294760,296375029,-19,58,4388
294761,296376029,-6,72,4404
294762,296377028,-16,64,4381
294763,296378029,-48,39,4386
294764,296379029,-42,50,4393
294765,296380029,-21,60,4378
294766,296381028,-13,41,4356
294767,296382029,-35,39,4357
294768,296383028,-42,37,4371
294769,296384028,-17,54,4372
294770,296385028,-1,66,4380
294771,296386029,21,65,4390
294772,296387029,-14,61,4392
294773,296388029,-16,49,4392
294774,296389029,24,57,4391
294775,296390029,7,65,4396
294776,296391028,-20,74,4400
294777,296392029,-4,82,4391
294778,296393028,16,78,4381
294779,296394028,1,47,4355
294780,296395028,-24,47,4350
294781,296396028,-8,66,4376
294782,296397029,-19,35,4384
294783,296398029,-34,30,4380
294784,296399029,6,51,4385
294785,296400029,3,44,4409
294786,296401028,-22,35,4400
294787,296402029,-22,38,4356
294788,296403029,-13,44,4329
294789,296404028,-24,54,4348
294790,296405029,-26,65,4397
294791,296406028,-2,62,4402
294792,296407029,-14,57,4382
294793,296408029,-33,48,4381
294794,296409029,-8,47,4393
294795,296410028,6,43,4392
294796,296411029,-15,34,4379
294797,296412029,-37,60,4363
294798,296413029,-21,68,4371
294799,296414029,1,59,4382
294800,296415029,-17,41,4366
294801,296416029,-5,21,4362
294802,296417028,6,23,4357
294803,296418029,6,35,4357
294804,296419029,20,45,4369
294805,296420029,8,40,4368
294806,296421028,17,44,4369
294807,296422029,22,48,4375
294808,296423029,19,49,4371
294809,296424029,31,53,4377
294810,296425029,44,48,4382
294811,296426029,15,48,4362
294812,296427029,-15,59,4373
294813,296428028,1,56,4390
294814,296429029,-5,51,4390
294815,296430029,-8,64,4392
294816,296431029,2,73,4381
294817,296432028,-2,66,4376
294818,296433029,-16,46,4384
294819,296434029,-17,41,4394
294820,296435029,-7,42,4393
294821,296436029,0,39,4385
294822,296437029,-16,55,4379
294823,296438028,-18,62,4389
294824,296439028,3,43,4375
294825,296440029,-9,34,4368
294826,296441029,-16,47,4371
294827,296442029,-4,56,4373
294828,296443029,-15,53,4397
294829,296444029,-47,50,4395
294830,296445028,-49,38,4389
294831,296446029,-40,37,4387
294832,296447029,-41,43,4384
294833,296448029,-44,45,4387
294834,296449029,-12,44,4386
294835,296450028,6,43,4406
294836,296451029,-6,58,4411
294837,296452029,-18,47,4375
294838,296453029,-15,49,4355
294839,296454029,-3,48,4352
294840,296455028,-13,33,4369
294841,296456029,-12,40,4372
294842,296457028,-11,37,4346
294843,296458029,-19,43,4363
294844,296459029,-23,54,4369
294845,296460029,-9,44,4359
294846,296461029,4,48,4376
294847,296462029,-8,44,4381
294848,296463029,-3,41,4390
294849,296464029,2,61,4359
294850,296465029,-11,42,4354
294851,296466029,3,35,4385
294852,296467029,16,57,4404
294853,296468029,17,65,4406
294854,296469029,-9,53,4391
294855,296470029,-16,47,4380
294856,296471029,2,44,4370
294857,296472029,1,45,4374
294858,296473028,7,50,4395
294859,296474029,-13,45,4405
294860,296475028,-21,43,4395
294861,296476029,-13,48,4405
294862,296477029,-14,55,4382
294863,296478029,2,45,4363
294864,296479029,22,38,4370
294865,296480028,20,43,4369
294866,296481028,23,48,4371
294867,296482029,17,54,4354
294868,296483029,5,64,4363
294869,296484029,20,42,4392
294870,296485029,33,37,4368
294871,296486029,40,52,4357
294872,296487029,32,57,4362
294873,296488029,32,63,4334
294874,296489029,4,61,4313
294875,296490029,-8,54,4309
294876,296491029,20,49,4307
294877,296492029,-7,51,4326
294878,296493029,-30,45,4366
294879,296494029,3,35,4380
294880,296495029,26,30,4401
294881,296496029,13,56,4395
294882,296497029,9,56,4379
294883,296498029,1,41,4388
294884,296499029,-32,45,4381
294885,296500028,-38,39,4385
294886,296501029,-26,41,4353
294887,296502028,-26,36,4346
294888,296503029,-22,50,4371
294889,296504029,-13,55,4363
294890,296505028,-20,48,4383
294891,296506028,-13,47,4371
294892,296507028,-20,45,4352
294893,296508029,-38,60,4358
294894,296509029,-17,55,4373
294895,296510029,0,49,4419
294896,296511029,-16,66,4392
294897,296512028,-19,58,4361
294898,296513029,-4,35,4371
294899,296514028,14,38,4358
294900,296515029,-2,51,4350
294901,296516029,-28,62,4355
294902,296517029,-3,58,4345
294903,296518028,1,59,4334
294904,296519029,-18,56,4364
294905,296520028,8,48,4375
294906,296521028,28,60,4357
294907,296522028,28,52,4362
294908,296523029,24,35,4364
294909,296524028,3,54,4366
294910,296525029,-21,49,4361
294911,296526028,-13,43,4365
294912,296527029,4,49,4383
294913,296528029,3,33,4375
294914,296529029,-13,33,4383
294915,296530029,-17,57,4366
294916,296531029,8,63,4353
294917,296532028,12,43,4368
294918,296533028,-6,50,4374
294919,296534029,1,62,4370
294920,296535029,8,52,4397
294921,296536028,2,62,4422
294922,296537029,-18,57,4389
294923,296538029,-34,38,4384
294924,296539029,-14,54,4395
294925,296540029,-19,61,4363
294926,296541029,-17,55,4339
294927,296542029,8,54,4372
294928,296543029,8,56,4392
294929,296544029,0,60,4406
294930,296545029,12,65,4396
294931,296546029,6,72,4351
294932,296547029,1,69,4334
294933,296548029,-11,66,4345
294934,296549029,-6,74,4361
294935,296550029,31,73,4384
294936,296551029,27,61,4401
294937,296552029,10,66,4407
294938,296553029,2,66,4400
294939,296554029,-17,52,4380
294940,296555029,-4,56,4390
294941,296556028,3,53,4398
294942,296557028,-17,37,4379
294943,296558029,-14,34,4357
294944,296559029,-11,52,4353
294945,296560029,-1,62,4373
294946,296561029,-3,44,4375
294947,296562029,-11,45,4380
294948,296563029,2,54,4366
294949,296564029,3,44,4353
294950,296565029,-26,56,4369
294951,296566029,-32,59,4374
294952,296567029,-19,55,4384
294953,296568029,-6,40,4380
294954,296569029,8,29,4383
294955,296570028,-10,24,4365
294956,296571028,-3,38,4359
294957,296572029,8,65,4379
294958,296573029,-7,61,4382
294959,296574028,1,61,4398
294960,296575029,-2,55,4389
294961,296576029,2,47,4376
294962,296577028,28,43,4392
294963,296578029,-14,36,4398
294964,296579029,-38,42,4367
294965,296580029,-5,64,4350
294966,296581029,-4,65,4375
294967,296582029,-5,48,4390
294968,296583029,-5,52,4374
294969,296584029,-3,53,4362
294970,296585029,-2,42,4357
294971,296586029,-17,40,4355
294972,296587028,1,48,4368
294973,296588028,30,52,4363
294974,296589028,-7,36,4395
294975,296590029,-27,40,4410
294976,296591029,-17,55,4378
294977,296592028,-5,37,4353
294978,296593029,16,40,4340
294979,296594029,-17,51,4342
294980,296595029,-21,38,4354
294981,296596029,-4,41,4379
294982,296597029,2,37,4382
294983,296598028,25,28,4367
294984,296599029,-5,37,4363
294985,296600028,-6,49,4377
294986,296601028,-11,52,4377
294987,296602029,-47,58,4373
294988,296603029,-39,68,4385
294989,296604029,-11,62,4384
294990,296605028,-9,53,4370
294991,296606029,-24,49,4368
294992,296607029,-10,37,4368
294993,296608029,-17,27,4369
294994,296609029,-19,20,4373
294995,296610028,-12,45,4389
294996,296611029,-6,58,4388
294997,296612028,-24,53,4374
294998,296613029,-27,67,4388
294999,296614029,-6,70,4394
295000,296615028,13,73,4386
295001,296616029,28,55,4377
295002,296617029,-2,27,4353
295003,296618029,-19,27,4359
295004,296619029,6,36,4367
295005,296620029,7,53,4361
295006,296621028,-11,75,4365
295007,296622029,-11,57,4382
295008,296623028,-6,45,4395
295009,296624029,0,56,4378
295010,296625028,-8,41,4383
295011,296626029,15,32,4370
295012,296627029,15,47,4349
295013,296628029,-30,56,4359
295014,296629029,1,62,4383
295015,296630029,21,65,4393
295016,296631029,0,64,4385
295017,296632029,-6,56,4392
295018,296633028,-16,44,4396
295019,296634028,-25,48,4395
295020,296635029,-15,46,4377
295021,296636029,25,41,4363
295022,296637028,6,30,4374
295023,296638028,-17,29,4401
295024,296639029,9,44,4402
295025,296640028,-18,22,4357
295026,296641029,-26,10,4345
295027,296642029,-28,36,4380
295028,296643029,-28,54,4381
295029,296644029,6,56,4364
295030,296645028,-29,50,4350
295031,296646029,-3,39,4360
295032,296647029,27,44,4369
295033,296648028,0,59,4359
295034,296649029,26,46,4355
295035,296650029,2,54,4348
295036,296651029,1,95,4358
295037,296652029,10,87,4366
295038,296653029,-19,43,4347
295039,296654029,-4,32,4343
295040,296655029,-24,45,4353
295041,296656028,-31,31,4348
295042,296657029,22,26,4347
295043,296658029,10,34,4369
295044,296659028,-12,40,4394
295045,296660028,-2,57,4389
295046,296661028,-49,71,4351
295047,296662029,-11,64,4327
295048,296663028,43,59,4363
295049,296664029,3,64,4376
295050,296665029,9,49,4361
295051,296666029,32,29,4359
295052,296667029,11,27,4358
295053,296668029,-6,31,4378
295054,296669029,-13,28,4408
295055,296670028,-30,33,4424
295056,296671028,-33,41,4404
295057,296672029,-32,45,4391
295058,296673029,-30,42,4384
295059,296674029,-17,49,4374
295060,296675029,-4,38,4393
295061,296676029,14,28,4408
295062,296677029,17,51,4395
295063,296678028,0,47,4365
295064,296679028,4,27,4369
295065,296680028,-15,37,4380
295066,296681028,-51,42,4375
295067,296682029,-49,26,4352
295068,296683028,-33,35,4345
295069,296684029,-15,48,4383
295070,296685029,-13,48,4386
295071,296686029,-6,49,4386
295072,296687029,17,60,4386
295073,296688028,22,77,4398
295074,296689029,21,79,4400
295075,296690029,12,77,4364
295076,296691029,7,62,4371
295077,296692029,-9,46,4379
295078,296693029,-25,45,4365
295079,296694029,-29,50,4382
295080,296695029,-12,42,4417
295081,296696029,12,32,4426
295082,296697029,12,50,4430
295083,296698029,16,50,4436
295084,296699029,12,41,4429
295085,296700029,9,52,4387
295086,296701029,-7,51,4367
295087,296702029,0,61,4360
295088,296703029,4,63,4333
295089,296704029,-1,52,4352
295090,296705029,1,46,4371
295091,296706028,-30,37,4379
295092,296707029,-42,48,4362
295093,296708028,-23,51,4354
295094,296709029,-6,32,4368
295095,296710029,0,46,4373
295096,296711029,14,57,4375
295097,296712028,32,42,4366
295098,296713029,47,37,4369
295099,296714029,24,50,4387
295100,296715028,9,64,4400
295101,296716029,9,52,4354
295102,296717028,-2,49,4303
295103,296718028,-5,56,4353
295104,296719029,-2,45,4397
295105,296720028,-2,44,4384
295106,296721029,-9,52,4371
295107,296722029,-8,62,4348
295108,296723028,-31,61,4372
295109,296724029,-33,41,4378
295110,296725029,-21,35,4397
295111,296726028,-12,52,4408
295112,296727029,-17,73,4373
295113,296728029,3,68,4384
295114,296729028,4,41,4391
295115,296730029,-45,31,4375
295116,296731029,6,36,4387
295117,296732029,16,37,4400
295118,296733029,-60,23,4382
295119,296734029,-93,23,4385
295120,296735029,-65,55,4423
295121,296736028,-2,53,4420
295122,296737028,13,59,4394
295123,296738029,25,76,4399
295124,296739028,59,56,4395
295125,296740029,44,68,4369
295126,296741029,25,89,4362
295127,296742029,50,69,4358
295128,296743029,1,50,4345
295129,296744029,-47,34,4363
295130,296745029,-30,23,4363
295131,296746028,-43,51,4335
295132,296747029,43,84,4345
295133,296748028,101,78,4384
295134,296749029,77,54,4360
295135,296750028,101,40,4341
295136,296751029,32,51,4348
295137,296752029,-32,56,4343
295138,296753028,20,55,4369
295139,296754028,16,55,4350
295140,296755028,-50,71,4306
295141,296756028,-59,89,4349
295142,296757029,-43,75,4418
295143,296758029,3,57,4414
295144,296759028,19,25,4347
295145,296760028,-20,21,4369
295146,296761029,-18,46,4435
295147,296762029,-36,47,4397
295148,296763029,-38,32,4343
295149,296764029,7,41,4378
295150,296765029,-7,65,4433
295151,296766029,-41,56,4400
295152,296767029,-1,58,4334
295153,296768029,60,71,4333
295154,296769029,35,53,4395
295155,296770029,29,40,4387
295156,296771028,13,39,4288
295157,296772029,-44,29,4290
295158,296773029,-29,27,4390
295159,296774029,23,37,4387
295160,296775029,-9,23,4314
295161,296776029,-39,11,4319
295162,296777029,14,70,4383
295163,296778029,10,111,4403
295164,296779028,51,87,4387
295165,296780028,91,78,4376
295166,296781029,44,85,4412
295167,296782028,6,97,4465
295168,296783029,-49,75,4398
295169,296784029,-46,51,4326
295170,296785028,-35,44,4366
295171,296786029,-83,20,4403
295172,296787029,-63,4,4385
295173,296788029,-53,-3,4355
295174,296789029,-92,31,4383
295175,296790029,-10,63,4438
295176,296791029,13,61,4441
295177,296792029,-25,52,4387
295178,296793029,24,49,4343
295179,296794029,6,87,4391
295180,296795028,3,102,4442
295181,296796029,3,50,4388
295182,296797028,-57,27,4340
295183,296798029,-64,74,4385
295184,296799029,-59,81,4439
295185,296800029,-69,43,4423
295186,296801028,-2,13,4399
295187,296802029,33,-5,4375
295188,296803029,28,35,4386
295189,296804028,57,50,4427
295190,296805028,29,19,4397
295191,296806029,10,39,4384
295192,296807029,39,70,4403
295193,296808029,-19,65,4380
295194,296809029,-36,61,4344
295195,296810029,21,51,4332
295196,296811028,35,41,4388
295197,296812029,40,68,4425
295198,296813028,-10,60,4374
295199,296814029,-62,33,4338
295200,296815029,-58,43,4364
295201,296816029,-36,53,4378
295202,296817029,-4,57,4383
295203,296818029,11,62,4374
295204,296819028,13,70,4363
295205,296820028,22,77,4420
295206,296821028,20,67,4431
295207,296822028,2,45,4377
295208,296823029,-28,28,4371
295209,296824029,-88,32,4396
295210,296825029,-62,66,4379
295211,296826029,-23,45,4342
295212,296827029,-36,21,4345
295213,296828029,7,44,4388
295214,296829028,8,47,4428
295215,296830029,-8,50,4399
295216,296831028,8,57,4357
295217,296832029,9,52,4374
295218,296833028,-4,45,4390
295219,296834029,-21,47,4389
295220,296835029,-34,50,4354
295221,296836029,-42,48,4347
295222,296837028,-32,40,4384
295223,296838029,1,39,4379
295224,296839029,3,39,4349
295225,296840028,2,42,4350
295226,296841029,-3,59,4386
295227,296842029,-17,66,4394
295228,296843028,-20,55,4369
295229,296844028,-23,51,4360
295230,296845029,-4,48,4388
295231,296846028,6,41,4397
295232,296847029,1,44,4370
295233,296848028,13,62,4368
295234,296849029,17,71,4393
295235,296850028,-16,59,4409
295236,296851029,-36,54,4402
295237,296852029,-35,50,4371
295238,296853029,-15,44,4346
295239,296854029,11,57,4353
295240,296855029,16,73,4375
295241,296856029,3,55,4361
295242,296857029,13,38,4350
295243,296858029,23,50,4383
295244,296859029,5,52,4372
295245,296860028,-15,51,4355
295246,296861028,-47,43,4353
295247,296862029,-41,56,4341
295248,296863028,-22,68,4361
295249,296864029,-5,52,4366
295250,296865029,12,55,4342
295251,296866028,6,78,4361
295252,296867029,9,69,4370
295253,296868028,23,36,4346
295254,296869028,-1,47,4368
295255,296870029,-31,53,4374
295256,296871028,-15,40,4381
295257,296872029,-18,46,4371
295258,296873029,-34,41,4326
295259,296874029,-21,35,4340
295260,296875029,0,56,4401
295261,296876029,-7,58,4419
295262,296877029,-24,33,4364
295263,296878029,-11,24,4352
295264,296879029,-13,39,4355
295265,296880028,-19,49,4364
295266,296881028,7,49,4392
295267,296882029,0,55,4400
295268,296883029,-38,35,4418
295269,296884028,-25,19,4398
295270,296885029,-21,39,4379
295271,296886029,-40,53,4372
295272,296887028,1,77,4392
295273,296888029,20,74,4410
295274,296889029,-10,52,4373
295275,296890029,-28,51,4352
295276,296891028,-5,52,4375
295277,296892029,-6,46,4378
295278,296893029,-7,50,4376
295279,296894028,15,68,4374
295280,296895029,8,83,4377
295281,296896029,-5,73,4390
295282,296897029,13,64,4348
295283,296898028,25,68,4342
295284,296899029,-5,69,4349
295285,296900029,3,76,4350
295286,296901029,12,64,4391
295287,296902029,0,43,4378
295288,296903029,-1,43,4376
295289,296904029,-3,42,4395
295290,296905029,-12,38,4368
295291,296906029,-13,54,4369
295292,296907028,-12,35,4399
295293,296908029,-32,46,4392
295294,296909029,-15,62,4368
295295,296910029,11,34,4361
295296,296911028,-1,41,4354
295297,296912028,-19,55,4373
295298,296913029,-6,56,4392
295299,296914028,2,46,4385
295300,296915028,-12,37,4375
295301,296916029,8,43,4380
295302,296917029,2,35,4367
295303,296918029,-26,23,4353
295304,296919028,-5,21,4355
295305,296920029,-2,18,4385
295306,296921028,-27,26,4406
295307,296922029,-21,56,4388
295308,296923029,-12,49,4358
295309,296924029,-10,32,4360
295310,296925029,-6,49,4385
295311,296926028,5,74,4382
295312,296927028,8,84,4401
295313,296928029,15,67,4401
295314,296929028,21,43,4373
295315,296930029,15,42,4370
295316,296931028,23,48,4367
295317,296932028,20,45,4349
295318,296933029,5,61,4367
295319,296934029,-23,61,4384
295320,296935029,-28,57,4360
295321,296936029,-25,49,4346
295322,296937028,-14,41,4367
295323,296938029,5,50,4399
295324,296939028,-1,37,4387
295325,296940028,-14,32,4361
295326,296941028,-14,40,4340
295327,296942029,-14,56,4368
295328,296943028,-29,55,4384
295329,296944029,-28,29,4377
295330,296945029,-14,24,4391
295331,296946028,22,35,4386
295332,296947028,43,44,4379
295333,296948028,42,37,4362
295334,296949029,58,17,4358
295335,296950029,68,33,4343
295336,296951029,40,62,4347
295337,296952028,-10,47,4375
295338,296953028,-33,53,4365
295339,296954029,-42,61,4367
295340,296955029,-28,44,4376
295341,296956028,9,54,4366
295342,296957029,26,55,4376
295343,296958029,13,51,4401
295344,296959028,-8,66,4377
295345,296960028,3,80,4356
295346,296961029,11,65,4384
295347,296962028,-10,43,4395
295348,296963028,-25,44,4390
295349,296964028,-28,47,4405
295350,296965029,-31,58,4395
295351,296966029,-19,56,4367
295352,296967029,-4,57,4387
295353,296968029,-18,63,4390
295354,296969029,-39,41,4366
295355,296970029,-24,37,4359
295356,296971029,-22,55,4379
295357,296972028,-62,69,4392
295358,296973029,-57,61,4401
295359,296974029,0,63,4416
295360,296975029,4,56,4394
295361,296976028,-38,50,4360
295362,296977029,-45,59,4357
295363,296978029,-30,36,4369
295364,296979029,-24,45,4377
295365,296980028,-19,57,4362
295366,296981029,-16,66,4366
295367,296982029,-7,57,4368
295368,296983029,-21,33,4362
295369,296984029,-23,50,4384
295370,296985029,-6,53,4388
295371,296986029,-25,39,4385
295372,296987029,-20,59,4366
295373,296988029,-1,66,4369
295374,296989028,-15,48,4402
295375,296990029,-24,38,4394
295376,296991029,-14,43,4376
295377,296992029,-17,40,4374
295378,296993029,-21,37,4344
295379,296994028,-25,37,4321
295380,296995028,-32,24,4347
295381,296996028,-35,38,4369
295382,296997028,-36,49,4356
295383,296998029,-14,39,4357
295384,296999029,-23,38,4338
295385,297000028,-35,41,4349
295386,297001029,-30,46,4395
295387,297002029,-54,49,4378
295388,297003029,-47,38,4367
295389,297004029,-12,35,4390
295390,297005029,3,56,4408
295391,297006028,-14,66,4397
295392,297007029,-37,50,4391
295393,297008029,-35,44,4396
295394,297009028,-31,50,4388
295395,297010029,-47,59,4401
295396,297011029,-24,68,4421
295397,297012028,-11,68,4391
295398,297013029,-24,67,4374
295399,297014029,-16,72,4376
295400,297015029,-7,72,4367
295401,297016029,3,63,4357
295402,297017029,21,48,4362
295403,297018029,13,49,4364
295404,297019029,-26,47,4363
295405,297020029,-38,34,4391
295406,297021028,-24,32,4387
295407,297022029,-10,44,4374
295408,297023028,-24,62,4369
295409,297024029,-31,53,4367
295410,297025029,-20,42,4371
295411,297026029,-36,45,4369
295412,297027028,-33,37,4366
295413,297028029,-5,35,4356
295414,297029029,-9,41,4359
295415,297030029,-19,44,4360
295416,297031029,-5,62,4373
295417,297032029,-6,64,4383
295418,297033029,-18,55,4363
295419,297034028,-12,57,4377
295420,297035029,-12,61,4380
295421,297036029,-11,46,4393
295422,297037029,-31,29,4419
295423,297038029,-42,39,4383
295424,297039029,-14,44,4372
295425,297040029,-12,50,4390
295426,297041029,-16,61,4386
295427,297042029,-8,61,4404
295428,297043029,-11,45,4389
295429,297044029,1,42,4367
295430,297045028,8,37,4373
295431,297046029,1,35,4370
295432,297047028,-13,44,4374
295433,297048029,-26,36,4383
295434,297049028,-19,54,4393
295435,297050029,-17,73,4394
295436,297051029,-11,47,4385
295437,297052029,-13,49,4352
295438,297053028,-11,60,4371
295439,297054028,-16,55,4403
295440,297055029,-19,55,4382
295441,297056029,-5,55,4365
295442,297057028,7,63,4353
295443,297058028,-9,59,4354
295444,297059029,-33,52,4352
295445,297060028,-34,59,4351
295446,297061028,-26,60,4389
295447,297062028,-17,50,4396
295448,297063029,-28,52,4359
295449,297064028,-22,49,4343
295450,297065029,-11,43,4367
295451,297066029,-35,48,4361
295452,297067028,-28,50,4344
295453,297068029,-9,62,4353
295454,297069029,-19,75,4372
295455,297070029,-14,48,4397
295456,297071029,-27,37,4381
295457,297072029,-35,49,4362
295458,297073029,-26,53,4371
295459,297074028,-19,52,4369
295460,297075028,-22,54,4364
295461,297076029,-26,57,4370
295462,297077029,-30,46,4356
295463,297078029,-21,44,4357
295464,297079028,-11,48,4371
295465,297080029,-33,66,4365
295466,297081029,-44,74,4352
295467,297082029,-37,56,4345
295468,297083029,-20,52,4348
295469,297084029,-5,42,4361
295470,297085029,-5,44,4365
295471,297086029,-14,60,4371
295472,297087029,-21,68,4393
295473,297088028,-16,65,4375
295474,297089029,-10,50,4352
295475,297090029,-17,50,4360
295476,297091029,-35,47,4350
295477,297092029,-26,46,4366
295478,297093029,-9,50,4388
295479,297094029,-9,35,4375
295480,297095029,1,52,4378
295481,297096029,1,67,4371
295482,297097029,-15,35,4376
295483,297098028,-6,40,4386
295484,297099029,5,45,4361
295485,297100028,6,35,4345
295486,297101029,4,46,4357
295487,297102028,-9,69,4371
295488,297103029,-5,61,4366
295489,297104028,6,56,4386
295490,297105029,2,73,4408
295491,297106029,-8,59,4385
295492,297107028,-17,48,4379
295493,297108029,-17,48,4389
295494,297109029,-26,29,4392
295495,297110028,-27,23,4399
295496,297111029,-14,49,4387
295497,297112029,-27,54,4369
295498,297113028,-32,64,4383
295499,297114029,1,68,4380
295500,297115029,10,28,4374
295501,297116029,-7,12,4379
295502,297117029,-13,39,4357
295503,297118029,-29,56,4331
295504,297119029,-24,46,4355
295505,297120029,-10,39,4401
295506,297121029,0,43,4373
295507,297122029,4,47,4350
295508,297123029,-4,47,4382
295509,297124029,-8,39,4386
295510,297125028,-12,44,4360
295511,297126028,-10,61,4361
295512,297127029,-2,59,4349
295513,297128029,-5,33,4358
295514,297129028,-7,41,4384
295515,297130029,-10,53,4386
295516,297131029,-19,33,4385
295517,297132028,-7,40,4373
295518,297133029,6,62,4358
295519,297134029,-20,66,4360
295520,297135029,-41,56,4366
295521,297136028,-25,54,4376
295522,297137029,-19,64,4402
295523,297138029,-34,71,4403
295524,297139029,-24,47,4392
295525,297140029,-24,33,4394
295526,297141028,-34,52,4397
295527,297142029,-7,56,4401
295528,297143028,19,60,4391
295529,297144028,-1,48,4379
295530,297145029,-26,30,4392
295531,297146028,-22,41,4399
295532,297147029,-6,48,4390
295533,297148029,14,47,4366
295534,297149029,6,56,4367
295535,297150029,-9,50,4379
295536,297151029,-27,38,4343
295537,297152028,-24,37,4337
295538,297153029,-2,40,4362
295539,297154029,-3,58,4380
295540,297155029,-8,64,4378
295541,297156029,-10,64,4354
295542,297157029,0,56,4354
295543,297158028,20,39,4374
