sample_index,micros,ax,ay,az
66,50520541,14,50,4355
67,50520940,3,43,4368
68,50521336,3,43,4368
69,50521726,-10,32,4378
70,50522121,-10,32,4378
71,50522525,-10,32,4378
72,50522921,12,23,4399
73,50523318,12,23,4399
74,50523706,12,24,4381
75,50524094,12,24,4381
76,50524488,12,24,4381
77,50524887,4,34,4400
78,50525286,4,34,4400
79,50525666,9,43,4417
80,50526047,9,43,4417
81,50526440,9,43,4417
82,50526833,21,47,4394
83,50527232,21,47,4394
84,50527625,21,47,4394
85,50528017,28,40,4375
86,50528400,28,40,4375
87,50528799,32,55,4350
88,50529193,32,55,4350
89,50529585,32,55,4350
90,50529965,7,54,4335
91,50530365,7,54,4335
92,50530759,7,32,4357
93,50531153,7,32,4357
94,50531546,7,32,4357
95,50531950,25,27,4372
96,50532344,25,27,4372
97,50532737,-3,35,4354
98,50533138,-3,35,4354
99,50533549,-3,35,4354
100,50533943,-17,49,4359
101,50534355,-17,49,4359
102,50534743,-4,46,4351
103,50535157,-4,46,4351
104,50535550,-4,46,4351
105,50535963,-11,47,4352
106,50536360,-11,47,4352
107,50536755,-9,36,4359
108,50537159,-9,36,4359
109,50537562,-9,36,4359
110,50537962,12,24,4366
111,50538363,12,24,4366
112,50538745,-4,27,4387
113,50539149,-4,27,4387
114,50539546,-4,27,4387
115,50539957,-6,27,4380
116,50540358,-6,27,4380
117,50540766,-14,53,4368
118,50541160,-14,53,4368
119,50541568,-14,53,4368
120,50541960,-47,42,4363
121,50542363,-47,42,4363
122,50542751,-47,25,4370
123,50543155,-47,25,4370
124,50543557,-47,25,4370
125,50543965,-21,23,4390
126,50544360,-21,23,4390
127,50544735,2,19,4385
128,50545100,2,19,4385
129,50545497,2,19,4385
130,50545891,15,29,4351
131,50546295,15,29,4351
132,50546676,20,41,4347
133,50547076,20,41,4347
134,50547471,20,41,4347
135,50547870,5,51,4330
136,50548265,5,51,4330
137,50548656,-8,60,4335
138,50549059,-8,60,4335
139,50549457,-8,60,4335
140,50549859,-10,50,4388
141,50550265,-10,50,4388
142,50550655,-9,31,4377
143,50551065,-9,31,4377
144,50551470,-9,31,4377
145,50551870,2,30,4354
146,50552259,2,30,4354
147,50552650,11,47,4381
148,50553017,11,47,4381
149,50553405,11,47,4381
150,50553794,41,54,4358
151,50554187,41,54,4358
152,50554576,41,54,4358
153,50554975,41,42,4339
154,50555369,41,42,4339
155,50555756,25,35,4373
156,50556151,25,35,4373
157,50556550,25,35,4373
158,50556948,22,34,4396
159,50557349,22,34,4396
160,50557730,14,58,4378
161,50558125,14,58,4378
162,50558508,14,58,4378
163,50558889,9,52,4374
164,50559285,9,52,4374
165,50559677,41,29,4399
166,50560069,41,29,4399
167,50560465,41,29,4399
168,50560859,46,33,4392
169,50561254,46,33,4392
170,50561640,46,33,4392
171,50562031,29,51,4398
172,50562425,29,51,4398
173,50562825,29,40,4405
174,50563219,29,40,4405
175,50563619,29,40,4405
176,50564005,1,32,4350
177,50564403,1,32,4350
178,50564798,-6,37,4336
179,50565201,-6,37,4336
180,50565597,-6,37,4336
181,50566001,1,41,4348
182,50566388,1,41,4348
183,50566796,11,48,4352
184,50567183,11,48,4352
185,50567578,11,48,4352
186,50567970,9,30,4394
187,50568355,9,30,4394
188,50568728,8,45,4383
189,50569116,8,45,4383
190,50569503,8,45,4383
191,50569898,9,49,4349
192,50570290,9,49,4349
193,50570682,-5,39,4368
194,50571089,-5,39,4368
195,50571496,-5,39,4368
196,50571891,-7,42,4388
197,50572302,-7,42,4388
198,50572696,-8,25,4391
199,50573105,-8,25,4391
200,50573507,-8,25,4391
201,50573920,-8,41,4374
202,50574318,-8,41,4374
203,50574717,6,37,4349
204,50575099,6,37,4349
205,50575487,6,37,4349
206,50575873,25,52,4353
207,50576273,25,52,4353
208,50576659,26,68,4397
209,50577060,26,68,4397
210,50577455,26,68,4397
211,50577854,-12,31,4381
212,50578256,-12,31,4381
213,50578655,-37,52,4298
214,50579062,-37,52,4298
215,50579472,-37,52,4298
216,50579867,-33,55,4309
217,50580274,-33,55,4309
218,50580668,-14,40,4364
219,50581068,-14,40,4364
220,50581468,-14,40,4364
221,50581882,-6,48,4386
222,50582284,-6,48,4386
223,50582676,-10,38,4363
224,50583075,-10,38,4363
225,50583494,-10,38,4363
226,50583895,14,37,4333
227,50584293,14,37,4333
228,50584668,30,32,4345
229,50585068,30,32,4345
230,50585462,30,32,4345
231,50585863,2,42,4349
232,50586255,2,42,4349
233,50586646,-7,56,4392
234,50587045,-7,56,4392
235,50587452,-7,56,4392
236,50587847,7,49,4408
237,50588247,7,49,4408
238,50588641,17,61,4367
239,50589031,17,61,4367
240,50589425,17,61,4367
241,50589826,21,63,4370
242,50590220,21,63,4370
243,50590619,21,63,4370
244,50591004,32,55,4394
245,50591405,32,55,4394
246,50591791,37,51,4406
247,50592159,37,51,4406
248,50592548,37,51,4406
249,50592940,28,42,4405
250,50593338,28,42,4405
251,50593726,-1,26,4357
252,50594134,-1,26,4357
253,50594541,-1,26,4357
254,50594942,-20,41,4317
255,50595348,-20,41,4317
256,50595743,0,61,4347
257,50596144,0,61,4347
258,50596532,0,61,4347
259,50596931,19,56,4391
260,50597329,19,56,4391
261,50597724,18,52,4397
262,50598112,18,52,4397
263,50598513,18,52,4397
264,50598906,10,42,4333
265,50599312,10,42,4333
266,50599691,21,39,4303
267,50600093,21,39,4303
268,50600480,21,39,4303
269,50600879,36,43,4383
270,50601273,36,43,4383
271,50601659,15,44,4390
272,50602054,15,44,4390
273,50602449,15,44,4390
274,50602845,-37,44,4360
275,50603248,-37,44,4360
276,50603643,-45,45,4384
277,50604042,-45,45,4384
278,50604442,-45,45,4384
279,50604850,-20,57,4404
280,50605259,-20,57,4404
281,50605659,-5,41,4403
282,50606057,-5,41,4403
283,50606458,-5,41,4403
284,50606860,5,26,4379
285,50607253,5,26,4379
286,50607635,5,26,4379
287,50608025,15,50,4363
288,50608419,15,50,4363
289,50608787,-6,43,4365
290,50609182,-6,43,4365
291,50609590,-6,43,4365
292,50609983,-8,47,4361
293,50610398,-8,47,4361
294,50610793,18,64,4345
295,50611193,18,64,4345
296,50611587,18,64,4345
297,50611984,2,47,4345
298,50612372,2,47,4345
299,50612771,-29,50,4388
300,50613166,-29,50,4388
301,50613583,-29,50,4388
302,50613983,-22,54,4411
303,50614391,-22,54,4411
304,50614792,17,24,4365
305,50615184,17,24,4365
306,50615580,17,24,4365
307,50615973,8,30,4389
308,50616361,8,30,4389
309,50616762,-24,57,4404
310,50617157,-24,57,4404
311,50617575,-24,57,4404
312,50617973,-8,45,4359
313,50618386,-8,45,4359
314,50618781,3,46,4381
315,50619178,3,46,4381
316,50619571,3,46,4381
317,50619970,-19,40,4401
318,50620372,-19,40,4401
319,50620780,-7,28,4395
320,50621181,-7,28,4395
321,50621588,-7,28,4395
322,50621986,-5,37,4362
323,50622401,-5,37,4362
324,50622795,-3,47,4356
325,50623203,-3,47,4356
326,50623612,-3,47,4356
327,50624012,1,45,4391
328,50624400,1,45,4391
329,50624780,-25,36,4377
330,50625149,-25,36,4377
331,50625555,-25,36,4377
332,50625961,-27,56,4360
333,50626368,-27,56,4360
334,50626763,-28,52,4363
335,50627169,-28,52,4363
336,50627571,-28,52,4363
337,50627978,-29,37,4370
338,50628364,-29,37,4370
339,50628752,-11,50,4362
340,50629149,-11,50,4362
341,50629557,-11,50,4362
342,50629963,-1,60,4374
343,50630371,-1,60,4374
344,50630768,9,60,4387
345,50631160,9,60,4387
346,50631548,9,60,4387
347,50631942,15,56,4379
348,50632335,15,56,4379
349,50632724,18,37,4374
350,50633112,18,37,4374
351,50633510,18,37,4374
352,50633899,25,39,4364
353,50634304,25,39,4364
354,50634684,4,56,4357
355,50635081,4,56,4357
356,50635471,4,56,4357
357,50635871,-16,44,4375
358,50636266,-16,44,4375
359,50636665,-10,42,4375
360,50637068,-10,42,4375
361,50637478,-10,42,4375
362,50637880,3,35,4340
363,50638280,3,35,4340
364,50638661,25,41,4351
365,50639062,25,41,4351
366,50639450,25,41,4351
367,50639847,19,51,4403
368,50640228,19,51,4403
369,50640625,19,51,4403
370,50641012,-2,30,4374
371,50641414,-2,30,4374
372,50641807,13,36,4355
373,50642192,13,36,4355
374,50642581,13,36,4355
375,50642979,12,45,4399
376,50643368,12,45,4399
377,50643757,-5,45,4394
378,50644159,-5,45,4394
379,50644548,-5,45,4394
380,50644917,4,48,4372
381,50645298,4,48,4372
382,50645684,-5,44,4354
383,50646082,-5,44,4354
384,50646489,-5,44,4354
385,50646891,-23,19,4346
386,50647302,-23,19,4346
387,50647689,-23,39,4356
388,50648094,-23,39,4356
389,50648495,-23,39,4356
390,50648903,-15,59,4377
391,50649309,-15,59,4377
392,50649711,-2,38,4371
393,50650100,-2,38,4371
394,50650510,-2,38,4371
395,50650912,6,48,4366
396,50651316,6,48,4366
397,50651690,-8,38,4363
398,50652093,-8,38,4363
399,50652495,-8,38,4363
400,50652910,-43,50,4355
401,50653309,-43,50,4355
402,50653711,-39,61,4342
403,50654101,-39,61,4342
404,50654510,-39,61,4342
405,50654911,-17,36,4352
406,50655323,-17,36,4352
407,50655715,14,44,4353
408,50656102,14,44,4353
409,50656492,14,44,4353
410,50656892,15,50,4365
411,50657290,15,50,4365
412,50657677,-14,44,4386
413,50658077,-14,44,4386
414,50658478,-14,44,4386
415,50658867,-19,50,4366
416,50659275,-19,50,4366
417,50659662,-11,31,4377
418,50660063,-11,31,4377
419,50660432,-11,31,4377
420,50660822,5,18,4382
421,50661217,5,18,4382
422,50661611,5,18,4382
423,50662003,1,48,4346
424,50662392,1,48,4346
425,50662786,-14,47,4336
426,50663183,-14,47,4336
427,50663597,-14,47,4336
428,50663983,-17,34,4365
429,50664388,-17,34,4365
430,50664784,-13,38,4373
431,50665179,-13,38,4373
432,50665580,-13,38,4373
433,50665988,-9,40,4362
434,50666377,-9,40,4362
435,50666785,-9,25,4367
436,50667181,-9,25,4367
437,50667589,-9,25,4367
438,50667988,-22,29,4371
439,50668391,-22,29,4371
440,50668792,-40,47,4358
441,50669198,-40,47,4358
442,50669600,-40,47,4358
443,50670007,-16,28,4348
444,50670403,-16,28,4348
445,50670810,-7,32,4361
446,50671207,-7,32,4361
447,50671609,-7,32,4361
448,50672010,-16,22,4349
449,50672411,-16,22,4349
450,50672813,-6,26,4319
451,50673220,-6,26,4319
452,50673621,-6,26,4319
453,50674021,12,47,4356
454,50674409,12,47,4356
455,50674803,20,39,4360
456,50675184,20,39,4360
457,50675572,20,39,4360
458,50675967,5,40,4365
459,50676361,5,40,4365
460,50676755,-12,39,4352
461,50677155,-12,39,4352
462,50677560,-12,39,4352
463,50677967,-3,37,4336
464,50678363,-3,37,4336
465,50678759,5,46,4366
466,50679153,5,46,4366
467,50679554,5,46,4366
468,50679943,-2,62,4378
469,50680348,-2,62,4378
470,50680743,-19,46,4367
471,50681146,-19,46,4367
472,50681549,-19,46,4367
473,50681956,-44,47,4373
474,50682352,-44,47,4373
475,50682753,-21,67,4387
476,50683155,-21,67,4387
477,50683565,-21,67,4387
478,50683973,-7,57,4379
479,50684374,-7,57,4379
480,50684772,-4,47,4364
481,50685173,-4,47,4364
482,50685576,-4,47,4364
483,50685981,-8,43,4362
484,50686377,-8,43,4362
485,50686784,14,35,4391
486,50687173,14,35,4391
487,50687569,14,35,4391
488,50687968,33,23,4385
489,50688362,33,23,4385
490,50688749,3,44,4370
491,50689144,3,44,4370
492,50689534,3,44,4370
493,50689929,6,54,4361
494,50690320,6,54,4361
495,50690710,28,40,4358
496,50691092,28,40,4358
497,50691488,28,40,4358
498,50691869,24,52,4389
499,50692254,24,52,4389
500,50692634,-9,54,4380
501,50693040,-9,54,4380
502,50693442,-9,54,4380
503,50693843,-3,24,4342
504,50694252,-3,24,4342
505,50694652,2,11,4338
506,50695037,2,11,4338
507,50695437,2,11,4338
508,50695833,-16,31,4364
509,50696234,-16,31,4364
510,50696635,-19,33,4384
511,50697042,-19,33,4384
512,50697437,-19,33,4384
513,50697847,-27,32,4371
514,50698249,-27,32,4371
515,50698657,-22,31,4365
516,50699055,-22,31,4365
517,50699463,-22,31,4365
518,50699865,-16,44,4362
519,50700273,-16,44,4362
520,50700660,-9,71,4375
521,50701075,-9,71,4375
522,50701471,-9,71,4375
523,50701886,4,60,4383
524,50702272,4,60,4383
525,50702664,22,58,4386
526,50703058,22,58,4386
527,50703458,22,58,4386
528,50703852,29,60,4402
529,50704251,29,60,4402
530,50704644,-2,42,4397
531,50705042,-2,42,4397
532,50705446,-2,42,4397
533,50705854,-26,42,4366
534,50706249,-26,42,4366
535,50706656,-29,40,4367
536,50707048,-29,40,4367
537,50707464,-29,40,4367
538,50707859,-11,28,4357
539,50708268,-11,28,4357
540,50708655,-4,36,4348
541,50709054,-4,36,4348
542,50709462,-4,36,4348
543,50709869,-15,45,4365
544,50710263,-15,45,4365
545,50710663,-30,49,4358
546,50711065,-30,49,4358
547,50711473,-30,49,4358
548,50711875,-49,54,4364
549,50712282,-49,54,4364
550,50712677,-57,39,4350
551,50713090,-57,39,4350
552,50713494,-57,39,4350
553,50713895,-51,38,4343
554,50714302,-51,38,4343
555,50714696,-26,51,4356
556,50715102,-26,51,4356
557,50715512,-26,51,4356
558,50715914,-17,50,4367
559,50716318,-17,50,4367
560,50716716,-13,58,4369
561,50717117,-13,58,4369
562,50717520,-13,58,4369
563,50717927,-4,56,4351
564,50718326,-4,56,4351
565,50718723,0,33,4352
566,50719109,0,33,4352
567,50719512,0,33,4352
568,50719905,25,27,4399
569,50720310,25,27,4399
570,50720690,17,37,4401
571,50721087,17,37,4401
572,50721484,17,37,4401
573,50721884,-1,63,4393
574,50722285,-1,63,4393
575,50722685,10,52,4390
576,50723075,10,52,4390
577,50723474,10,52,4390
578,50723863,14,33,4384
579,50724259,14,33,4384
580,50724641,12,38,4394
581,50725036,12,38,4394
582,50725424,12,38,4394
583,50725826,-8,51,4374
584,50726220,-8,51,4374
585,50726628,-8,51,4374
586,50727027,1,67,4352
587,50727419,1,67,4352
588,50727813,29,67,4374
589,50728211,29,67,4374
590,50728601,29,67,4374
591,50729002,19,37,4396
592,50729389,19,37,4396
593,50729789,26,2,4365
594,50730183,26,2,4365
595,50730575,26,2,4365
596,50730969,6,15,4365
597,50731369,6,15,4365
598,50731764,-18,43,4379
599,50732171,-18,43,4379
600,50732566,-18,43,4379
601,50732985,-7,42,4365
602,50733379,-7,42,4365
603,50733787,-16,13,4341
604,50734189,-16,13,4341
605,50734596,-16,13,4341
606,50735002,-27,13,4359
607,50735403,-27,13,4359
608,50735805,-1,31,4373
609,50736211,-1,31,4373
610,50736612,-1,31,4373
611,50737027,1,30,4352
612,50737414,1,30,4352
613,50737814,-11,35,4374
614,50738215,-11,35,4374
615,50738624,-11,35,4374
616,50739025,17,62,4419
617,50739418,17,62,4419
618,50739813,28,76,4431
619,50740207,28,76,4431
620,50740600,28,76,4431
621,50740998,26,64,4388
622,50741392,26,64,4388
623,50741791,13,63,4381
624,50742180,13,63,4381
625,50742579,13,63,4381
626,50742971,0,81,4373
627,50743371,0,81,4373
628,50743765,-20,68,4320
629,50744166,-20,68,4320
630,50744561,-20,68,4320
631,50744977,-12,39,4322
632,50745379,-12,39,4322
633,50745781,4,39,4333
634,50746173,4,39,4333
635,50746574,4,39,4333
636,50746966,-9,27,4316
637,50747373,-9,27,4316
638,50747774,-25,47,4338
639,50748182,-25,47,4338
640,50748591,-25,47,4338
641,50748996,-6,71,4372
642,50749391,-6,71,4372
643,50749797,-1,60,4381
644,50750198,-1,60,4381
645,50750606,-1,60,4381
646,50751013,8,41,4391
647,50751406,8,41,4391
648,50751801,25,38,4382
649,50752200,25,38,4382
650,50752593,25,38,4382
651,50752991,18,52,4376
652,50753385,18,52,4376
653,50753785,31,42,4381
654,50754174,31,42,4381
655,50754573,31,42,4381
656,50754966,31,29,4365
657,50755366,31,29,4365
658,50755754,23,52,4370
659,50756150,23,52,4370
660,50756541,23,52,4370
661,50756929,17,67,4380
662,50757325,17,67,4380
663,50757720,16,45,4377
664,50758107,16,45,4377
665,50758506,16,45,4377
666,50758894,-2,33,4358
667,50759313,-2,33,4358
668,50759700,-4,26,4339
669,50760116,-4,26,4339
670,50760517,-4,26,4339
671,50760925,9,33,4337
672,50761315,9,33,4337
673,50761701,-11,64,4333
674,50762099,-11,64,4333
675,50762517,-11,64,4333
676,50762912,-8,74,4364
677,50763324,-8,74,4364
678,50763720,23,45,4390
679,50764113,23,45,4390
680,50764508,23,45,4390
681,50764908,7,63,4369
682,50765306,7,63,4369
683,50765693,-16,95,4371
684,50766090,-16,95,4371
685,50766497,-16,95,4371
686,50766898,-8,79,4415
687,50767310,-8,79,4415
688,50767698,-4,54,4446
689,50768108,-4,54,4446
690,50768503,-4,54,4446
691,50768918,7,51,4419
692,50769310,7,51,4419
693,50769696,-2,47,4388
694,50770093,-2,47,4388
695,50770509,-2,47,4388
696,50770911,6,39,4349
697,50771306,6,39,4349
698,50771692,32,38,4319
699,50772090,32,38,4319
700,50772484,32,38,4319
701,50772883,5,29,4334
702,50773276,5,29,4334
703,50773668,-19,17,4334
704,50774070,-19,17,4334
705,50774488,-19,17,4334
706,50774882,-6,26,4345
707,50775294,-6,26,4345
708,50775681,-1,38,4355
709,50776091,-1,38,4355
710,50776487,-1,38,4355
711,50776894,-21,40,4377
712,50777300,-21,40,4377
713,50777700,-24,48,4383
714,50778104,-24,48,4383
715,50778513,-24,48,4383
716,50778922,-10,49,4369
717,50779326,-10,49,4369
718,50779723,0,41,4387
719,50780109,0,41,4387
720,50780503,0,41,4387
721,50780902,7,36,4386
722,50781300,7,36,4386
723,50781692,-21,55,4378
724,50782090,-21,55,4378
725,50782506,-21,55,4378
726,50782901,-25,48,4379
727,50783317,-25,48,4379
728,50783698,-23,4,4395
729,50784102,-23,4,4395
730,50784509,-23,4,4395
731,50784909,-31,-1,4370
732,50785330,-31,-1,4370
733,50785734,-21,11,4321
734,50786130,-21,11,4321
735,50786538,-21,11,4321
736,50786939,-13,27,4338
737,50787350,-13,27,4338
738,50787746,-15,49,4355
739,50788148,-15,49,4355
740,50788557,-15,49,4355
741,50788970,-6,43,4366
742,50789372,-6,43,4366
743,50789774,20,37,4372
744,50790162,20,37,4372
745,50790560,20,37,4372
746,50790959,26,35,4379
747,50791358,26,35,4379
748,50791746,10,48,4389
749,50792136,10,48,4389
750,50792519,10,48,4389
751,50792912,-14,57,4368
752,50793325,-14,57,4368
753,50793722,-4,55,4346
754,50794116,-4,55,4346
755,50794531,-4,55,4346
756,50794925,-6,56,4342
757,50795337,-6,56,4342
758,50795733,-23,52,4362
759,50796147,-23,52,4362
760,50796541,-23,52,4362
761,50796959,-8,42,4355
762,50797361,-8,42,4355
763,50797762,3,43,4324
764,50798150,3,43,4324
765,50798544,3,43,4324
766,50798937,0,62,4328
767,50799340,0,62,4328
768,50799728,-5,56,4351
769,50800136,-5,56,4351
770,50800531,-5,56,4351
771,50800939,3,32,4370
772,50801337,3,32,4370
773,50801731,17,39,4360
774,50802120,17,39,4360
775,50802520,17,39,4360
776,50802916,29,56,4333
777,50803313,29,56,4333
778,50803694,14,68,4342
779,50804091,14,68,4342
780,50804487,14,68,4342
781,50804894,-10,62,4350
782,50805299,-10,62,4350
783,50805693,-19,42,4363
784,50806090,-19,42,4363
785,50806498,-19,42,4363
786,50806895,-9,51,4389
787,50807310,-9,51,4389
788,50807697,10,52,4377
789,50808099,10,52,4377
790,50808494,10,52,4377
791,50808875,29,43,4379
792,50809266,29,43,4379
793,50809657,29,50,4374
794,50810052,29,50,4374
795,50810453,29,50,4374
796,50810847,10,68,4364
797,50811241,10,68,4364
798,50811635,9,63,4373
799,50812026,9,63,4373
800,50812420,9,63,4373
801,50812815,-10,56,4404
802,50813211,-10,56,4404
803,50813625,-10,56,4404
804,50814019,-13,64,4404
805,50814432,-13,64,4404
806,50814826,18,49,4394
807,50815225,18,49,4394
808,50815618,18,49,4394
809,50816011,20,43,4393
810,50816405,20,43,4393
811,50816805,16,63,4386
812,50817199,16,63,4386
813,50817593,16,63,4386
814,50817985,25,48,4406
815,50818384,25,48,4406
816,50818779,8,31,4419
817,50819179,8,31,4419
818,50819567,8,31,4419
819,50819980,-4,42,4386
820,50820382,-4,42,4386
821,50820782,3,50,4366
822,50821175,3,50,4366
823,50821575,3,50,4366
824,50821975,-3,50,4356
825,50822375,-3,50,4356
826,50822776,-9,54,4347
827,50823183,-9,54,4347
828,50823585,-9,54,4347
829,50823998,8,53,4387
830,50824385,8,53,4387
831,50824773,12,38,4368
832,50825168,12,38,4368
833,50825564,12,38,4368
834,50825955,6,46,4344
835,50826351,6,46,4344
836,50826740,14,51,4373
837,50827134,14,51,4373
838,50827528,14,51,4373
839,50827927,-1,43,4387
840,50828332,-1,43,4387
841,50828733,-15,40,4358
842,50829129,-15,40,4358
843,50829545,-15,40,4358
844,50829938,-8,38,4333
845,50830345,-8,38,4333
846,50830736,-9,57,4327
847,50831143,-9,57,4327
848,50831553,-9,57,4327
849,50831965,-4,73,4354
850,50832360,-4,73,4354
851,50832768,7,45,4371
852,50833155,7,45,4371
853,50833558,7,45,4371
854,50833956,13,40,4347
855,50834356,13,40,4347
856,50834739,10,24,4362
857,50835134,10,24,4362
858,50835517,10,24,4362
859,50835893,9,14,4377
860,50836289,9,14,4377
861,50836670,22,57,4369
862,50837057,22,57,4369
863,50837443,22,57,4369
864,50837835,-4,66,4358
865,50838231,-4,66,4358
866,50838631,-16,54,4360
867,50839023,-16,54,4360
868,50839413,-16,54,4360
869,50839789,6,37,4379
870,50840163,6,37,4379
871,50840541,6,37,4379
872,50840931,10,31,4353
873,50841336,10,31,4353
874,50841725,10,44,4326
875,50842118,10,44,4326
876,50842509,10,44,4326
877,50842903,-17,44,4351
878,50843310,-17,44,4351
879,50843703,-18,50,4395
880,50844102,-18,50,4395
881,50844513,-18,50,4395
882,50844909,5,52,4387
883,50845314,5,52,4387
884,50845688,-16,57,4352
885,50846091,-16,57,4352
886,50846494,-16,57,4352
887,50846896,-18,58,4363
888,50847303,-18,58,4363
889,50847696,3,50,4385
890,50848087,3,50,4385
891,50848482,3,50,4385
892,50848870,-14,49,4367
893,50849272,-14,49,4367
894,50849665,-18,23,4372
895,50850072,-18,23,4372
896,50850471,-18,23,4372
897,50850873,2,22,4397
898,50851262,2,22,4397
899,50851649,11,41,4381
900,50852033,11,41,4381
901,50852432,11,41,4381
902,50852822,1,28,4386
903,50853216,1,28,4386
904,50853605,1,28,4386
905,50854004,-2,29,4392
906,50854405,-2,29,4392
907,50854814,9,29,4358
908,50855208,9,29,4358
909,50855608,9,29,4358
910,50855992,-10,26,4348
911,50856405,-10,26,4348
912,50856807,-20,43,4352
913,50857215,-20,43,4352
914,50857617,-20,43,4352
915,50858024,-1,55,4359
916,50858426,-1,55,4359
917,50858827,-8,58,4406
918,50859234,-8,58,4406
919,50859635,-26,55,4405
920,50860035,-26,55,4405
921,50860443,-26,55,4405
922,50860846,-14,39,4361
923,50861254,-14,39,4361
924,50861648,0,40,4369
925,50862040,0,40,4369
926,50862434,0,40,4369
927,50862834,-26,48,4415
928,50863242,-26,48,4415
929,50863642,-35,48,4402
930,50864040,-35,48,4402
931,50864450,-35,48,4402
932,50864845,-16,61,4379
933,50865254,-16,61,4379
934,50865642,-21,72,4375
935,50866032,-21,72,4375
936,50866421,-21,72,4375
937,50866824,-17,56,4353
938,50867225,-17,56,4353
939,50867633,-21,38,4360
940,50868027,-21,38,4360
941,50868434,-21,38,4360
942,50868836,-24,47,4365
943,50869244,-24,47,4365
944,50869645,-11,50,4358
945,50870049,-11,50,4358
946,50870449,-11,50,4358
947,50870858,0,49,4352
948,50871245,0,49,4352
949,50871644,14,43,4355
950,50872029,14,43,4355
951,50872429,14,43,4355
952,50872825,-7,51,4352
953,50873238,-7,51,4352
954,50873633,-12,64,4345
955,50874040,-12,64,4345
956,50874441,-12,64,4345
957,50874842,-11,33,4366
958,50875236,-11,33,4366
959,50875627,-8,24,4365
960,50876027,-8,24,4365
961,50876436,-8,24,4365
962,50876838,23,23,4368
963,50877231,23,23,4368
964,50877625,33,5,4405
965,50878017,33,5,4405
966,50878404,33,5,4405
967,50878805,32,39,4384
968,50879198,32,39,4384
969,50879598,32,39,4384
970,50879989,27,71,4347
971,50880390,27,71,4347
972,50880783,-13,56,4345
973,50881190,-13,56,4345
974,50881587,-13,56,4345
975,50881999,-34,45,4359
976,50882402,-34,45,4359
977,50882808,-3,49,4394
978,50883209,-3,49,4394
979,50883609,-3,49,4394
980,50884017,18,49,4411
981,50884396,18,49,4411
982,50884792,23,37,4376
983,50885192,23,37,4376
984,50885585,23,37,4376
985,50885983,5,37,4352
986,50886377,5,37,4352
987,50886777,11,50,4375
988,50887166,11,50,4375
989,50887565,11,50,4375
990,50887964,15,42,4372
991,50888364,15,42,4372
992,50888752,7,17,4371
993,50889150,7,17,4371
994,50889544,7,17,4371
995,50889948,25,20,4391
996,50890342,25,20,4391
997,50890735,49,34,4369
998,50891123,49,34,4369
999,50891526,49,34,4369
1000,50891912,42,17,4329
1001,50892285,42,17,4329
1002,50892659,23,29,4336
1003,50893061,23,29,4336
1004,50893456,23,29,4336
1005,50893856,12,71,4353
1006,50894251,12,71,4353
1007,50894651,7,63,4366
1008,50895036,7,63,4366
1009,50895436,7,63,4366
1010,50895831,19,30,4373
1011,50896230,19,30,4373
1012,50896614,19,30,4373
1013,50897006,13,20,4375
1014,50897402,13,20,4375
1015,50897797,5,31,4369
1016,50898185,5,31,4369
1017,50898580,5,31,4369
1018,50898972,-5,55,4381
1019,50899379,-5,55,4381
1020,50899782,-16,70,4403
1021,50900184,-16,70,4403
1022,50900560,-16,70,4403
1023,50900929,2,75,4402
1024,50901329,2,75,4402
1025,50901719,25,61,4380
1026,50902100,25,61,4380
1027,50902497,25,61,4380
1028,50902886,5,42,4339
1029,50903290,5,42,4339
1030,50903671,-29,48,4336
1031,50904079,-29,48,4336
1032,50904481,-29,48,4336
1033,50904888,-27,49,4366
1034,50905293,-27,49,4366
1035,50905686,1,54,4369
1036,50906077,1,54,4369
1037,50906473,1,54,4369
1038,50906863,-6,56,4364
1039,50907265,-6,56,4364
1040,50907654,-37,32,4388
1041,50908053,-37,32,4388
1042,50908450,-37,32,4388
1043,50908837,-35,37,4356
1044,50909226,-35,37,4356
1045,50909628,-14,51,4333
1046,50910029,-14,51,4333
1047,50910431,-14,51,4333
1048,50910832,13,43,4363
1049,50911227,13,43,4363
1050,50911615,37,28,4369
1051,50912007,37,28,4369
1052,50912388,37,28,4369
1053,50912790,-5,29,4379
1054,50913198,-5,29,4379
1055,50913605,-5,29,4379
1056,50914003,-29,53,4372
1057,50914410,-29,53,4372
1058,50914805,-3,49,4375
1059,50915218,-3,49,4375
1060,50915613,-6,29,4382
1061,50916027,-6,29,4382
1062,50916422,-6,29,4382
1063,50916836,-17,38,4381
1064,50917231,-17,38,4381
1065,50917638,-27,43,4367
1066,50918040,-27,43,4367
1067,50918441,-27,43,4367
1068,50918846,-8,36,4357
1069,50919261,-8,36,4357
1070,50919656,1,39,4379
1071,50920048,1,39,4379
1072,50920441,1,39,4379
1073,50920841,-16,27,4377
1074,50921243,-16,27,4377
1075,50921650,-31,13,4347
1076,50922051,-31,13,4347
1077,50922451,-31,13,4347
1078,50922859,-33,21,4340
1079,50923257,-33,21,4340
1080,50923659,-11,28,4350
1081,50924057,-11,28,4350
1082,50924465,-11,28,4350
1083,50924860,3,14,4366
1084,50925246,3,14,4366
1085,50925618,22,21,4398
1086,50926011,22,21,4398
1087,50926397,22,21,4398
1088,50926785,20,38,4391
1089,50927180,20,38,4391
1090,50927580,20,38,4391
1091,50927972,3,35,4375
1092,50928346,3,35,4375
1093,50928732,3,45,4367
1094,50929128,3,45,4367
1095,50929516,3,45,4367
1096,50929917,-1,54,4367
1097,50930324,-1,54,4367
1098,50930727,8,44,4400
1099,50931115,8,44,4400
1100,50931513,8,44,4400
1101,50931908,5,33,4405
1102,50932313,5,33,4405
1103,50932694,-4,43,4395
1104,50933104,-4,43,4395
1105,50933509,-4,43,4395
1106,50933916,-21,25,4383
1107,50934324,-21,25,4383
1108,50934720,-12,21,4359
1109,50935107,-12,21,4359
1110,50935528,-12,21,4359
1111,50935923,7,47,4354
1112,50936328,7,47,4354
1113,50936717,-8,35,4383
1114,50937123,-8,35,4383
1115,50937526,-8,35,4383
1116,50937934,-17,31,4390
1117,50938333,-17,31,4390
1118,50938736,-14,41,4364
1119,50939132,-14,41,4364
1120,50939550,-14,41,4364
1121,50939949,3,38,4363
1122,50940349,3,38,4363
1123,50940738,-3,52,4353
1124,50941153,-3,52,4353
1125,50941556,-3,52,4353
1126,50941954,12,56,4359
1127,50942336,12,56,4359
1128,50942725,14,31,4380
1129,50943107,14,31,4380
1130,50943503,14,31,4380
1131,50943890,-30,31,4390
1132,50944293,-30,31,4390
1133,50944674,-33,44,4380
1134,50945059,-33,44,4380
1135,50945450,-33,44,4380
1136,50945858,-15,45,4361
1137,50946260,-15,45,4361
1138,50946661,-11,41,4371
1139,50947061,-11,41,4371
1140,50947472,-11,41,4371
1141,50947873,-11,22,4376
1142,50948282,-11,22,4376
1143,50948668,-16,45,4352
1144,50949084,-16,45,4352
1145,50949486,-16,45,4352
1146,50949893,-5,60,4362
1147,50950300,-5,60,4362
1148,50950693,21,41,4391
1149,50951083,21,41,4391
1150,50951486,21,41,4391
1151,50951881,36,43,4413
1152,50952286,36,43,4413
1153,50952673,29,43,4404
1154,50953071,29,43,4404
1155,50953468,29,43,4404
1156,50953868,3,30,4359
1157,50954262,3,30,4359
1158,50954661,-6,14,4378
1159,50955054,-6,14,4378
1160,50955468,-6,14,4378
1161,50955870,7,14,4393
1162,50956263,7,14,4393
1163,50956657,27,44,4359
1164,50957049,27,44,4359
1165,50957444,27,44,4359
1166,50957847,29,49,4366
1167,50958241,29,49,4366
1168,50958634,18,37,4373
1169,50959026,18,37,4373
1170,50959420,18,37,4373
1171,50959809,16,26,4342
1172,50960204,16,26,4342
1173,50960593,16,26,4342
1174,50960994,1,18,4339
1175,50961382,1,18,4339
1176,50961778,-4,48,4332
1177,50962172,-4,48,4332
1178,50962581,-4,48,4332
1179,50962982,3,57,4325
1180,50963377,3,57,4325
1181,50963760,14,48,4378
1182,50964161,14,48,4378
1183,50964552,14,48,4378
1184,50964952,25,57,4393
1185,50965333,25,57,4393
1186,50965716,14,72,4347
1187,50966098,14,72,4347
1188,50966494,14,72,4347
1189,50966883,2,54,4325
1190,50967278,2,54,4325
1191,50967658,-2,49,4349
1192,50968068,-2,49,4349
1193,50968471,-2,49,4349
1194,50968879,-2,49,4362
1195,50969275,-2,49,4362
1196,50969674,6,28,4368
1197,50970068,6,28,4368
1198,50970465,6,28,4368
1199,50970853,8,35,4354
1200,50971247,8,35,4354
1201,50971636,-2,29,4307
1202,50972035,-2,29,4307
1203,50972430,-2,29,4307
1204,50972838,22,44,4338
1205,50973232,22,44,4338
1206,50973627,27,56,4370
1207,50974013,27,56,4370
1208,50974408,27,56,4370
1209,50974798,-5,46,4353
1210,50975200,-5,46,4353
1211,50975589,-5,46,4353
1212,50976004,-8,34,4366
1213,50976398,-8,34,4366
1214,50976807,14,17,4400
1215,50977202,14,17,4400
1216,50977601,14,17,4400
1217,50977992,44,18,4420
1218,50978392,44,18,4420
1219,50978785,36,37,4404
1220,50979185,36,37,4404
1221,50979579,36,37,4404
1222,50979979,13,60,4378
1223,50980371,13,60,4378
1224,50980774,25,43,4388
1225,50981161,25,43,4388
1226,50981561,25,43,4388
1227,50981961,23,32,4419
1228,50982360,23,32,4419
1229,50982748,-8,45,4419
1230,50983155,-8,45,4419
1231,50983560,-8,45,4419
1232,50983980,-23,48,4380
1233,50984375,-23,48,4380
1234,50984784,-4,45,4331
1235,50985181,-4,45,4331
1236,50985587,-4,45,4331
1237,50985991,12,56,4359
1238,50986391,12,56,4359
1239,50986786,-17,58,4394
1240,50987186,-17,58,4394
1241,50987583,-17,58,4394
1242,50987995,-16,53,4381
1243,50988391,-16,53,4381
1244,50988799,-10,53,4386
1245,50989201,-10,53,4386
1246,50989602,-10,53,4386
1247,50990011,-24,22,4396
1248,50990411,-24,22,4396
1249,50990815,-16,28,4373
1250,50991218,-16,28,4373
1251,50991613,1,52,4348
1252,50992005,1,52,4348
1253,50992366,1,52,4348
1254,50992742,10,43,4377
1255,50993141,10,43,4377
1256,50993537,10,43,4377
1257,50993937,11,52,4404
1258,50994334,11,52,4404
1259,50994729,17,39,4396
1260,50995117,17,39,4396
1261,50995512,17,39,4396
1262,50995913,13,35,4385
1263,50996310,13,35,4385
1264,50996697,8,44,4370
1265,50997099,8,44,4370
1266,50997495,8,44,4370
1267,50997894,-11,26,4374
1268,50998306,-11,26,4374
1269,50998699,-32,25,4398
1270,50999098,-32,25,4398
1271,50999506,-32,25,4398
1272,50999916,-3,31,4402
1273,51000328,-3,31,4402
1274,51000719,8,32,4397
1275,51001107,8,32,4397
1276,51001502,8,32,4397
1277,51001902,-19,38,4359
1278,51002314,-19,38,4359
1279,51002715,-1,49,4325
1280,51003116,-1,49,4325
1281,51003527,-1,49,4325
1282,51003922,20,52,4371
1283,51004327,20,52,4371
1284,51004717,1,63,4405
1285,51005110,1,63,4405
1286,51005507,1,63,4405
1287,51005907,-15,59,4371
1288,51006314,-15,59,4371
1289,51006717,-11,38,4349
1290,51007108,-11,38,4349
1291,51007497,-11,38,4349
1292,51007882,-28,47,4364
1293,51008294,-28,47,4364
1294,51008683,-24,50,4348
1295,51009060,-24,50,4348
1296,51009449,-24,50,4348
1297,51009853,8,47,4324
1298,51010241,8,47,4324
1299,51010641,30,59,4352
1300,51011025,30,59,4352
1301,51011424,30,59,4352
1302,51011820,22,50,4357
1303,51012221,22,50,4357
1304,51012616,26,42,4360
1305,51013014,26,42,4360
1306,51013409,26,42,4360
1307,51013807,33,71,4399
1308,51014201,33,71,4399
1309,51014601,33,71,4399
1310,51014994,17,78,4401
1311,51015393,17,78,4401
1312,51015784,6,59,4350
1313,51016183,6,59,4350
1314,51016577,6,59,4350
1315,51016984,-16,45,4340
1316,51017379,-16,45,4340
1317,51017786,4,45,4380
1318,51018180,4,45,4380
1319,51018579,4,45,4380
1320,51018979,21,51,4373
1321,51019370,21,51,4373
1322,51019755,16,48,4369
1323,51020155,16,48,4369
1324,51020553,16,48,4369
1325,51020958,28,52,4366
1326,51021352,28,52,4366
1327,51021747,7,54,4307
1328,51022141,7,54,4307
1329,51022536,7,54,4307
1330,51022931,-18,35,4318
1331,51023329,-18,35,4318
1332,51023705,-11,38,4355
1333,51024101,-11,38,4355
1334,51024491,-11,38,4355
1335,51024898,10,47,4361
1336,51025290,10,47,4361
1337,51025658,25,53,4365
1338,51026042,25,53,4365
1339,51026443,25,53,4365
1340,51026839,17,50,4386
1341,51027233,17,50,4386
1342,51027614,-13,39,4405
1343,51028009,-13,39,4405
1344,51028406,-13,39,4405
1345,51028814,-26,59,4394
1346,51029216,-26,59,4394
1347,51029624,11,57,4398
1348,51030010,11,57,4398
1349,51030405,11,57,4398
1350,51030792,16,52,4379
1351,51031188,16,52,4379
1352,51031576,16,52,4379
1353,51031974,-22,46,4363
1354,51032377,-22,46,4363
1355,51032772,-32,53,4360
1356,51033169,-32,53,4360
1357,51033578,-32,53,4360
1358,51033980,7,57,4351
1359,51034374,7,57,4351
1360,51034754,30,29,4352
1361,51035156,30,29,4352
1362,51035546,30,29,4352
1363,51035940,12,29,4349
1364,51036339,12,29,4349
1365,51036729,20,45,4346
1366,51037117,20,45,4346
1367,51037514,20,45,4346
1368,51037897,31,54,4386
1369,51038294,31,54,4386
1370,51038674,25,51,4403
1371,51039072,25,51,4403
1372,51039464,25,51,4403
1373,51039857,33,48,4376
1374,51040246,33,48,4376
1375,51040647,41,52,4360
1376,51041031,41,52,4360
1377,51041426,41,52,4360
1378,51041815,16,52,4367
1379,51042210,16,52,4367
1380,51042598,17,61,4353
1381,51042997,17,61,4353
1382,51043385,17,61,4353
1383,51043773,28,60,4337
1384,51044147,28,60,4337
1385,51044518,28,60,4337
1386,51044897,-15,45,4352
1387,51045309,-15,45,4352
1388,51045697,-3,41,4384
1389,51046102,-3,41,4384
1390,51046507,-3,41,4384
1391,51046910,3,57,4411
1392,51047309,3,57,4411
1393,51047695,-23,62,4399
1394,51048093,-23,62,4399
1395,51048497,-23,62,4399
1396,51048893,-10,41,4371
1397,51049305,-10,41,4371
1398,51049694,-15,20,4384
1399,51050097,-15,20,4384
1400,51050503,-15,20,4384
1401,51050905,1,24,4413
1402,51051305,1,24,4413
1403,51051691,34,38,4380
1404,51052082,34,38,4380
1405,51052476,34,38,4380
1406,51052865,34,43,4344
1407,51053260,34,43,4344
1408,51053641,21,67,4358
1409,51054038,21,67,4358
1410,51054417,21,67,4358
1411,51054826,20,53,4351
1412,51055213,20,53,4351
1413,51055614,-4,37,4316
1414,51056021,-4,37,4316
1415,51056429,-4,37,4316
1416,51056832,-38,49,4303
1417,51057240,-38,49,4303
1418,51057635,-16,48,4332
1419,51058040,-16,48,4332
1420,51058443,-16,48,4332
1421,51058849,-3,50,4355
1422,51059251,-3,50,4355
1423,51059652,-14,34,4361
1424,51060052,-14,34,4361
1425,51060461,-14,34,4361
1426,51060863,-4,21,4387
1427,51061270,-4,21,4387
1428,51061665,8,34,4400
1429,51062064,8,34,4400
1430,51062460,8,34,4400
1431,51062860,17,46,4391
1432,51063254,17,46,4391
1433,51063653,8,35,4343
1434,51064044,8,35,4343
1435,51064436,8,35,4343
1436,51064830,18,39,4328
1437,51065222,18,39,4328
1438,51065603,33,39,4355
1439,51066008,33,39,4355
1440,51066396,33,39,4355
1441,51066795,22,41,4341
1442,51067189,22,41,4341
1443,51067589,22,41,4341
1444,51067982,17,44,4333
1445,51068382,17,44,4333
1446,51068777,14,38,4351
1447,51069172,14,38,4351
1448,51069560,14,38,4351
1449,51069967,-7,29,4349
1450,51070376,-7,29,4349
1451,51070777,-1,19,4376
1452,51071181,-1,19,4376
1453,51071581,-1,19,4376
1454,51071986,15,31,4367
1455,51072387,15,31,4367
1456,51072782,2,13,4350
1457,51073176,2,13,4350
1458,51073571,2,13,4350
1459,51073976,0,1,4362
1460,51074370,0,1,4362
1461,51074769,-8,34,4380
1462,51075171,-8,34,4380
1463,51075567,-8,34,4380
1464,51075975,-18,34,4387
1465,51076382,-18,34,4387
1466,51076777,-30,4,4374
1467,51077179,-30,4,4374
1468,51077588,-30,4,4374
1469,51077997,-22,22,4408
1470,51078392,-22,22,4408
1471,51078800,-6,37,4383
1472,51079202,-6,37,4383
1473,51079617,-14,29,4352
1474,51080018,-14,29,4352
1475,51080419,-14,29,4352
1476,51080821,-9,30,4365
1477,51081233,-9,30,4365
1478,51081628,4,25,4360
1479,51082020,4,25,4360
1480,51082414,4,25,4360
1481,51082814,2,37,4361
1482,51083208,2,37,4361
1483,51083603,-1,56,4365
1484,51084003,-1,56,4365
1485,51084395,-1,56,4365
1486,51084797,7,59,4386
1487,51085198,7,59,4386
1488,51085593,7,59,4386
1489,51085993,27,55,4379
1490,51086381,27,55,4379
1491,51086782,33,53,4348
1492,51087171,33,53,4348
1493,51087571,33,53,4348
1494,51087971,19,49,4351
1495,51088370,19,49,4351
1496,51088759,9,53,4361
1497,51089158,9,53,4361
1498,51089553,9,53,4361
1499,51089957,-6,62,4347
1500,51090358,-6,62,4347
1501,51090760,3,55,4348
1502,51091155,3,55,4348
1503,51091554,3,55,4348
1504,51091952,2,64,4357
1505,51092320,2,64,4357
1506,51092691,-14,75,4364
1507,51093095,-14,75,4364
1508,51093505,-14,75,4364
1509,51093913,5,67,4349
1510,51094303,5,67,4349
1511,51094695,11,65,4331
1512,51095085,11,65,4331
1513,51095485,11,65,4331
1514,51095873,3,42,4332
1515,51096274,3,42,4332
1516,51096660,0,-5,4373
1517,51097068,0,-5,4373
1518,51097478,0,-5,4373
1519,51097877,-15,0,4384
1520,51098279,-15,0,4384
1521,51098679,-27,26,4335
1522,51099077,-27,26,4335
1523,51099486,-27,26,4335
1524,51099883,6,14,4342
1525,51100288,6,14,4342
1526,51100674,19,34,4380
1527,51101072,19,34,4380
1528,51101468,19,34,4380
1529,51101870,9,55,4408
1530,51102262,9,55,4408
1531,51102662,21,43,4383
1532,51103047,21,43,4383
1533,51103447,21,43,4383
1534,51103846,23,31,4377
1535,51104246,23,31,4377
1536,51104639,37,48,4368
1537,51105030,37,48,4368
1538,51105418,37,48,4368
1539,51105818,30,62,4331
1540,51106212,30,62,4331
1541,51106613,-9,40,4346
1542,51107012,-9,40,4346
1543,51107415,-9,40,4346
1544,51107818,-21,28,4367
1545,51108193,-21,28,4367
1546,51108562,-21,28,4367
1547,51108931,22,30,4395
1548,51109315,22,30,4395
1549,51109701,31,39,4362
1550,51110092,31,39,4362
1551,51110496,31,39,4362
1552,51110883,13,30,4330
1553,51111288,13,30,4330
1554,51111675,-14,30,4345
1555,51112079,-14,30,4345
1556,51112482,-14,30,4345
1557,51112888,-24,33,4388
1558,51113296,-24,33,4388
1559,51113695,7,32,4396
1560,51114086,7,32,4396
1561,51114482,7,32,4396
1562,51114876,-1,31,4352
1563,51115284,-1,31,4352
1564,51115672,-29,18,4349
1565,51116080,-29,18,4349
1566,51116476,-29,18,4349
1567,51116891,-22,42,4357
1568,51117281,-22,42,4357
1569,51117681,21,51,4376
1570,51118075,21,51,4376
1571,51118475,21,51,4376
1572,51118868,15,22,4348
1573,51119268,15,22,4348
1574,51119655,-22,19,4323
1575,51120054,-22,19,4323
1576,51120456,-22,19,4323
1577,51120864,-25,24,4367
1578,51121273,-25,24,4367
1579,51121665,-15,49,4394
1580,51122069,-15,49,4394
1581,51122473,-15,49,4394
1582,51122874,-7,70,4397
1583,51123283,-7,70,4397
1584,51123670,-15,39,4406
1585,51124084,-15,39,4406
1586,51124487,-15,39,4406
1587,51124886,-21,27,4408
1588,51125293,-21,27,4408
1589,51125669,-24,54,4414
1590,51126072,-24,54,4414
1591,51126481,-24,54,4414
1592,51126883,-5,64,4395
1593,51127295,-5,64,4395
1594,51127682,9,70,4409
1595,51128079,9,70,4409
1596,51128468,9,70,4409
1597,51128867,-4,72,4404
1598,51129269,-4,72,4404
1599,51129663,-14,44,4393
1600,51130066,-14,44,4393
1601,51130474,-14,44,4393
1602,51130875,-20,30,4388
1603,51131283,-20,30,4388
1604,51131672,-6,51,4382
1605,51132079,-6,51,4382
1606,51132485,-6,51,4382
1607,51132880,2,45,4388
1608,51133274,2,45,4388
1609,51133661,14,41,4361
1610,51134048,14,41,4361
1611,51134443,14,41,4361
1612,51134837,27,63,4378
1613,51135238,27,63,4378
1614,51135628,-2,40,4384
1615,51136033,-2,40,4384
1616,51136428,-2,40,4384
1617,51136837,-22,30,4370
1618,51137238,-22,30,4370
1619,51137647,-5,29,4392
1620,51138045,-5,29,4392
1621,51138446,-5,29,4392
1622,51138847,3,32,4369
1623,51139246,3,32,4369
1624,51139640,-4,55,4365
1625,51140045,-4,55,4365
1626,51140441,-4,55,4365
1627,51140844,-10,51,4387
1628,51141233,-10,51,4387
1629,51141633,-13,57,4360
1630,51142018,-13,57,4360
1631,51142413,-13,57,4360
1632,51142815,18,47,4331
1633,51143210,18,47,4331
1634,51143597,30,24,4354
1635,51144003,30,24,4354
1636,51144392,30,24,4354
1637,51144783,7,34,4397
1638,51145157,7,34,4397
1639,51145537,7,34,4397
1640,51145898,8,53,4400
1641,51146284,8,53,4400
1642,51146670,25,53,4392
1643,51147064,25,53,4392
1644,51147465,25,53,4392
1645,51147857,14,39,4362
1646,51148254,14,39,4362
1647,51148643,-18,38,4352
1648,51149049,-18,38,4352
1649,51149444,-18,38,4352
1650,51149854,-3,42,4382
1651,51150255,-3,42,4382
1652,51150650,36,43,4394
1653,51151036,36,43,4394
1654,51151436,36,43,4394
1655,51151827,43,26,4355
1656,51152220,43,26,4355
1657,51152609,32,22,4367
1658,51153008,32,22,4367
1659,51153399,32,22,4367
1660,51153793,-3,30,4377
1661,51154180,-3,30,4377
1662,51154590,-3,30,4377
1663,51154990,-7,38,4349
1664,51155393,-7,38,4349
1665,51155789,9,63,4331
1666,51156188,9,63,4331
1667,51156582,9,63,4331
1668,51156979,5,71,4335
1669,51157365,5,71,4335
1670,51157745,2,68,4347
1671,51158134,2,68,4347
1672,51158528,2,68,4347
1673,51158904,26,53,4335
1674,51159307,26,53,4335
1675,51159687,25,28,4352
1676,51160084,25,28,4352
1677,51160479,25,28,4352
1678,51160879,-7,26,4369
1679,51161281,-7,26,4369
1680,51161680,7,24,4363
1681,51162074,7,24,4363
1682,51162474,7,24,4363
1683,51162868,21,39,4349
1684,51163269,21,39,4349
1685,51163649,23,50,4339
1686,51164041,23,50,4339
1687,51164435,23,50,4339
1688,51164829,10,34,4339
1689,51165217,10,34,4339
1690,51165618,-4,22,4349
1691,51166025,-4,22,4349
1692,51166425,-4,22,4349
1693,51166827,2,27,4342
1694,51167227,2,27,4342
1695,51167605,7,52,4351
1696,51168005,7,52,4351
1697,51168398,7,52,4351
1698,51168798,-15,70,4361
1699,51169199,-15,70,4361
1700,51169607,-24,80,4362
1701,51170008,-24,80,4362
1702,51170410,-24,80,4362
1703,51170812,-9,58,4368
1704,51171219,-9,58,4368
1705,51171615,20,43,4351
1706,51172015,20,43,4351
1707,51172410,20,43,4351
1708,51172810,22,44,4356
1709,51173204,22,44,4356
1710,51173591,22,44,4356
1711,51173977,-15,29,4363
1712,51174384,-15,29,4363
1713,51174787,-13,55,4340
1714,51175192,-13,55,4340
1715,51175582,-13,55,4340
1716,51175995,14,75,4353
1717,51176382,14,75,4353
1718,51176783,14,39,4390
1719,51177171,14,39,4390
1720,51177571,14,39,4390
1721,51177969,28,11,4393
1722,51178360,28,11,4393
1723,51178751,30,25,4372
1724,51179147,30,25,4372
1725,51179539,30,25,4372
1726,51179939,19,39,4364
1727,51180337,19,39,4364
1728,51180727,41,23,4368
1729,51181109,41,23,4368
1730,51181505,41,23,4368
1731,51181899,43,21,4366
1732,51182303,43,21,4366
1733,51182685,16,33,4386
1734,51183082,16,33,4386
1735,51183477,16,33,4386
1736,51183877,6,40,4385
1737,51184258,6,40,4385
1738,51184646,26,50,4380
1739,51185031,26,50,4380
1740,51185431,26,50,4380
1741,51185826,19,54,4370
1742,51186227,19,54,4370
1743,51186621,2,53,4355
1744,51187020,2,53,4355
1745,51187414,2,53,4355
1746,51187814,7,44,4376
1747,51188208,7,44,4376
1748,51188607,5,31,4365
1749,51189001,5,31,4365
1750,51189400,5,31,4365
1751,51189795,-4,38,4358
1752,51190202,-4,38,4358
1753,51190604,-42,33,4384
1754,51191019,-42,33,4384
1755,51191413,-42,33,4384
1756,51191822,-27,35,4381
1757,51192203,-27,35,4381
1758,51192579,-27,35,4381
1759,51192972,25,47,4375
1760,51193371,25,47,4375
1761,51193759,18,39,4374
1762,51194159,18,39,4374
1763,51194549,18,39,4374
1764,51194953,-17,46,4355
1765,51195355,-17,46,4355
1766,51195757,-19,36,4341
1767,51196154,-19,36,4341
1768,51196556,-19,36,4341
1769,51196970,10,28,4364
1770,51197363,10,28,4364
1771,51197746,15,63,4356
1772,51198141,15,63,4356
1773,51198528,15,63,4356
1774,51198924,8,84,4334
1775,51199322,8,84,4334
1776,51199708,11,60,4363
1777,51200099,11,60,4363
1778,51200500,11,60,4363
1779,51200888,3,34,4385
1780,51201290,3,34,4385
1781,51201677,-5,52,4387
1782,51202084,-5,52,4387
1783,51202484,-5,52,4387
1784,51202888,-4,60,4383
1785,51203294,-4,60,4383
1786,51203693,3,44,4409
1787,51204084,3,44,4409
1788,51204488,3,44,4409
1789,51204867,36,45,4423
1790,51205254,36,45,4423
1791,51205648,30,52,4399
1792,51206040,30,52,4399
1793,51206427,30,52,4399
1794,51206823,10,46,4392
1795,51207218,10,46,4392
1796,51207598,26,42,4415
1797,51207964,26,42,4415
1798,51208343,26,42,4415
1799,51208738,14,63,4424
1800,51209100,14,63,4424
1801,51209462,14,63,4424
1802,51209824,-6,58,4414
1803,51210220,-6,58,4414
1804,51210621,16,37,4391
1805,51210987,16,37,4391
1806,51211355,16,37,4391
1807,51211716,18,41,4361
1808,51212078,18,41,4361
1809,51212440,18,41,4361
1810,51212801,9,33,4365
1811,51213163,9,33,4365
1812,51213527,9,33,4365
1813,51213888,14,22,4382
1814,51299485,24,52,4377
1815,51299882,-1,47,4376
1816,51300291,-1,47,4376
1817,51300683,6,27,4382
1818,51301074,6,27,4382
1819,51301474,6,27,4382
1820,51301868,21,30,4391
1821,51302267,21,30,4391
1822,51302661,11,47,4377
1823,51303054,11,47,4377
1824,51303448,11,47,4377
1825,51303850,32,59,4399
1826,51304244,32,59,4399
1827,51304643,39,73,4415
1828,51305027,39,73,4415
1829,51305428,39,73,4415
1830,51305822,32,53,4422
1831,51306230,32,53,4422
1832,51306618,34,41,4442
1833,51307017,34,41,4442
1834,51307407,34,41,4442
1835,51307795,2,30,4417
1836,51308183,2,30,4417
1837,51308582,-21,44,4364
1838,51308975,-21,44,4364
1839,51309377,-21,44,4364
1840,51309766,-22,58,4336
1841,51310180,-22,58,4336
1842,51310582,-5,42,4329
1843,51310987,-5,42,4329
1844,51311388,-5,42,4329
1845,51311791,13,50,4352
1846,51312180,13,50,4352
1847,51312575,13,50,4352
1848,51312969,23,52,4370
1849,51313369,23,52,4370
1850,51313752,18,36,4358
1851,51314148,18,36,4358
1852,51314537,18,36,4358
1853,51314933,7,23,4361
1854,51315324,7,23,4361
1855,51315710,0,34,4396
1856,51316101,0,34,4396
1857,51316497,0,34,4396
1858,51316886,-19,51,4375
1859,51317293,-19,51,4375
1860,51317681,-17,61,4329
1861,51318086,-17,61,4329
1862,51318491,-17,61,4329
1863,51318900,-8,60,4371
1864,51319306,-8,60,4371
1865,51319706,-17,46,4379
1866,51320104,-17,46,4379
1867,51320512,-17,46,4379
1868,51320910,-11,35,4347
1869,51321322,-11,35,4347
1870,51321709,4,47,4346
1871,51322112,4,47,4346
1872,51322503,4,47,4346
1873,51322891,2,65,4353
1874,51323284,2,65,4353
1875,51323671,-12,50,4366
1876,51324073,-12,50,4366
1877,51324481,-12,50,4366
1878,51324884,-22,35,4370
1879,51325286,-22,35,4370
1880,51325680,-9,48,4372
1881,51326085,-9,48,4372
1882,51326480,-9,48,4372
1883,51326888,-20,39,4394
1884,51327294,-20,39,4394
1885,51327694,-26,57,4387
1886,51328092,-26,57,4387
1887,51328497,-26,57,4387
1888,51328899,-12,62,4370
1889,51329312,-12,62,4370
1890,51329700,7,30,4372
1891,51330096,7,30,4372
1892,51330487,7,30,4372
1893,51330887,-1,40,4386
1894,51331282,-1,40,4386
1895,51331681,-26,51,4394
1896,51332082,-26,51,4394
1897,51332491,-26,51,4394
1898,51332886,-15,46,4374
1899,51333298,-15,46,4374
1900,51333692,-18,42,4376
1901,51334097,-18,42,4376
1902,51334500,-18,42,4376
1903,51334904,11,42,4371
1904,51335297,11,42,4371
1905,51335684,19,34,4363
1906,51336069,19,34,4363
1907,51336470,19,34,4363
1908,51336860,-18,37,4319
1909,51337261,-18,37,4319
1910,51337657,-21,42,4341
1911,51338058,-21,42,4341
1912,51338455,-21,42,4341
1913,51338857,-11,42,4389
1914,51339259,-11,42,4389
1915,51339658,16,50,4411
1916,51340042,16,50,4411
1917,51340442,16,50,4411
1918,51340832,14,41,4410
1919,51341227,14,41,4410
1920,51341615,-6,36,4376
1921,51342015,-6,36,4376
1922,51342417,-6,36,4376
1923,51342819,9,61,4398
1924,51343213,9,61,4398
1925,51343612,-1,76,4384
1926,51344013,-1,76,4384
1927,51344420,-1,76,4384
1928,51344809,-22,63,4356
1929,51345213,-22,63,4356
1930,51345613,-18,32,4372
1931,51346020,-18,32,4372
1932,51346415,-18,32,4372
1933,51346822,-5,14,4377
1934,51347224,-5,14,4377
1935,51347632,17,36,4370
1936,51348019,17,36,4370
1937,51348418,17,36,4370
1938,51348807,35,29,4365
1939,51349206,35,29,4365
1940,51349601,21,21,4369
1941,51350001,21,21,4369
1942,51350396,21,21,4369
1943,51350791,-10,19,4362
1944,51351187,-10,19,4362
1945,51351588,5,-7,4345
1946,51351987,5,-7,4345
1947,51352395,5,-7,4345
1948,51352791,18,16,4333
1949,51353186,18,16,4333
1950,51353580,2,45,4335
1951,51353979,2,45,4335
1952,51354368,2,45,4335
1953,51354762,-6,31,4375
1954,51355164,-6,31,4375
1955,51355578,-1,23,4379
1956,51355984,-1,23,4379
1957,51356391,-1,23,4379
1958,51356787,12,43,4377
1959,51357186,12,43,4377
1960,51357581,33,43,4370
1961,51357983,33,43,4370
1962,51358384,33,43,4370
1963,51358771,37,39,4330
1964,51359164,37,39,4330
1965,51359565,37,39,4330
1966,51359963,30,46,4349
1967,51360362,30,46,4349
1968,51360750,35,43,4364
1969,51361145,35,43,4364
1970,51361540,35,43,4364
1971,51361941,9,45,4340
1972,51362338,9,45,4340
1973,51362732,19,38,4355
1974,51363114,19,38,4355
1975,51363514,19,38,4355
1976,51363909,35,30,4368
1977,51364314,35,30,4368
1978,51364699,31,32,4353
1979,51365097,31,32,4353
1980,51365488,31,32,4353
1981,51365881,35,40,4335
1982,51366275,35,40,4335
1983,51366667,-2,33,4336
1984,51367077,-2,33,4336
1985,51367487,-2,33,4336
1986,51367889,10,43,4347
1987,51368288,10,43,4347
1988,51368674,39,66,4351
1989,51369078,39,66,4351
1990,51369468,39,66,4351
1991,51369869,26,61,4349
1992,51370257,26,61,4349
1993,51370658,21,52,4347
1994,51371043,21,52,4347
1995,51371438,21,52,4347
1996,51371833,9,40,4363
1997,51372228,9,40,4363
1998,51372621,6,39,4357
1999,51373013,6,39,4357
2000,51373402,6,39,4357
2001,51373802,-7,38,4346
2002,51374202,-7,38,4346
2003,51374609,-14,46,4389
2004,51375017,-14,46,4389
2005,51375419,-14,46,4389
2006,51375815,-2,67,4360
2007,51376223,-2,67,4360
2008,51376623,27,49,4331
2009,51377015,27,49,4331
2010,51377406,27,49,4331
2011,51377800,40,28,4405
2012,51378190,40,28,4405
2013,51378589,16,36,4434
2014,51378981,16,36,4434
2015,51379382,16,36,4434
2016,51379769,24,37,4399
2017,51380169,24,37,4399
2018,51380564,24,37,4399
2019,51380963,24,29,4402
2020,51381358,24,29,4402
2021,51381752,20,34,4422
2022,51382141,20,34,4422
2023,51382543,20,34,4422
2024,51382937,24,47,4411
2025,51383342,24,47,4411
2026,51383732,7,47,4389
2027,51384120,7,47,4389
2028,51384503,7,47,4389
2029,51384899,0,69,4327
2030,51385289,0,69,4327
2031,51385675,-5,73,4343
2032,51386076,-5,73,4343
2033,51386486,-5,73,4343
2034,51386883,14,50,4394
2035,51387281,14,50,4394
2036,51387662,19,59,4365
2037,51388054,19,59,4365
2038,51388444,19,59,4365
2039,51388847,8,43,4343
2040,51389240,8,43,4343
2041,51389641,12,49,4357
2042,51390026,12,49,4357
2043,51390426,12,49,4357
2044,51390820,1,57,4386
2045,51391215,1,57,4386
2046,51391603,-5,47,4418
2047,51392017,-5,47,4418
2048,51392404,-5,47,4418
2049,51392799,8,58,4388
2050,51393188,8,58,4388
2051,51393588,23,32,4358
2052,51393980,23,32,4358
2053,51394376,23,32,4358
2054,51394758,22,21,4366
2055,51395154,22,21,4366
2056,51395549,22,21,4366
2057,51395949,19,32,4354
2058,51396344,19,32,4354
2059,51396734,17,48,4364
2060,51397116,17,48,4364
2061,51397513,17,48,4364
2062,51397902,3,74,4374
2063,51398300,3,74,4374
2064,51398681,11,64,4385
2065,51399078,11,64,4385
2066,51399468,11,64,4385
2067,51399862,15,36,4354
2068,51400252,15,36,4354
2069,51400641,7,39,4337
2070,51401025,7,39,4337
2071,51401420,7,39,4337
2072,51401810,5,41,4398
2073,51402201,5,41,4398
2074,51402591,39,19,4399
2075,51402991,39,19,4399
2076,51403379,39,19,4399
2077,51403767,60,16,4366
2078,51404162,60,16,4366
2079,51404559,60,16,4366
2080,51404940,31,18,4346
2081,51405327,31,18,4346
2082,51405701,22,25,4330
2083,51406091,22,25,4330
2084,51406468,22,25,4330
2085,51406849,37,43,4342
2086,51407231,37,43,4342
2087,51407635,24,46,4365
2088,51408021,24,46,4365
2089,51408413,24,46,4365
2090,51408796,6,47,4371
2091,51409164,6,47,4371
2092,51409547,6,47,4371
2093,51409940,26,43,4388
2094,51410334,26,43,4388
2095,51410715,33,27,4366
2096,51411106,33,27,4366
2097,51411504,33,27,4366
2098,51411891,11,20,4347
2099,51412295,11,20,4347
2100,51412676,-9,17,4369
2101,51413079,-9,17,4369
2102,51413491,-9,17,4369
2103,51413899,8,25,4384
2104,51414291,8,25,4384
2105,51414683,13,14,4388
2106,51415074,13,14,4388
2107,51415474,13,14,4388
2108,51415868,8,12,4363
2109,51416260,8,12,4363
2110,51416643,36,53,4335
2111,51417040,36,53,4335
2112,51417427,36,53,4335
2113,51417827,35,51,4317
2114,51418215,35,51,4317
2115,51418615,4,19,4338
2116,51419015,4,19,4338
2117,51419414,4,19,4338
2118,51419801,22,14,4341
2119,51420200,22,14,4341
2120,51420594,44,24,4336
2121,51420993,44,24,4336
2122,51421386,44,24,4336
2123,51421786,49,45,4358
2124,51422175,49,45,4358
2125,51422571,61,52,4370
2126,51422970,61,52,4370
2127,51423358,61,52,4370
2128,51423746,62,37,4367
2129,51424146,62,37,4367
2130,51424535,62,37,4367
2131,51424928,48,42,4333
2132,51425326,48,42,4333
2133,51425707,53,43,4329
2134,51426069,53,43,4329
2135,51426430,53,43,4329
2136,51426820,67,44,4377
2137,51427215,67,44,4377
2138,51427608,79,53,4398
2139,51428016,79,53,4398
2140,51428403,79,53,4398
2141,51428801,54,40,4361
2142,51429195,54,40,4361
2143,51429595,18,48,4332
2144,51429986,18,48,4332
2145,51430386,18,48,4332
2146,51430781,22,47,4339
2147,51431175,22,47,4339
2148,51431579,37,21,4356
2149,51431984,37,21,4356
2150,51432373,37,21,4356
2151,51432761,43,18,4351
2152,51433134,43,18,4351
2153,51433522,43,18,4351
2154,51433916,42,46,4359
2155,51434328,42,46,4359
2156,51434702,25,65,4370
2157,51435098,25,65,4370
2158,51435494,25,65,4370
2159,51435893,3,45,4349
2160,51436293,3,45,4349
2161,51436679,1,30,4361
2162,51437070,1,30,4361
2163,51437470,1,30,4361
2164,51437864,3,42,4398
2165,51438263,3,42,4398
2166,51438657,-4,45,4399
2167,51439064,-4,45,4399
2168,51439467,-4,45,4399
2169,51439874,13,26,4343
2170,51440261,13,26,4343
2171,51440656,12,32,4348
2172,51441041,12,32,4348
2173,51441440,12,32,4348
2174,51441834,13,31,4383
2175,51442226,13,31,4383
2176,51442608,59,9,4359
2177,51443007,59,9,4359
2178,51443401,59,9,4359
2179,51443801,44,19,4328
2180,51444195,44,19,4328
2181,51444594,22,61,4331
2182,51444961,22,61,4331
2183,51445343,22,61,4331
2184,51445732,50,55,4340
2185,51446119,50,55,4340
2186,51446520,50,55,4340
2187,51446915,69,18,4334
2188,51447319,69,18,4334
2189,51447700,34,23,4344
2190,51448103,34,23,4344
2191,51448499,34,23,4344
2192,51448899,27,42,4354
2193,51449291,27,42,4354
2194,51449684,44,42,4377
2195,51450075,44,42,4377
2196,51450475,44,42,4377
2197,51450868,41,43,4368
2198,51451268,41,43,4368
2199,51451661,52,38,4357
2200,51452054,52,38,4357
2201,51452448,52,38,4357
2202,51452850,44,41,4393
2203,51453244,44,41,4393
2204,51453644,21,52,4381
2205,51454029,21,52,4381
2206,51454429,21,52,4381
2207,51454824,29,48,4365
2208,51455225,29,48,4365
2209,51455619,49,36,4376
2210,51456025,49,36,4376
2211,51456412,49,36,4376
2212,51456819,43,17,4382
2213,51457207,43,17,4382
2214,51457605,29,15,4365
2215,51458004,29,15,4365
2216,51458397,29,15,4365
2217,51458791,19,38,4366
2218,51459181,19,38,4366
2219,51459575,35,51,4399
2220,51459987,35,51,4399
2221,51460375,35,51,4399
2222,51460776,54,47,4405
2223,51461164,54,47,4405
2224,51461564,26,40,4349
2225,51461963,26,40,4349
2226,51462362,26,40,4349
2227,51462749,8,40,4316
2228,51463150,8,40,4316
2229,51463545,8,40,4316
2230,51463936,10,51,4367
2231,51464322,10,51,4367
2232,51464709,-12,44,4386
2233,51465099,-12,44,4386
2234,51465475,-12,44,4386
2235,51465844,-7,43,4367
2236,51466238,-7,43,4367
2237,51466644,35,44,4376
2238,51467028,35,44,4376
2239,51467428,35,44,4376
2240,51467823,41,31,4360
2241,51468224,41,31,4360
2242,51468618,22,33,4349
2243,51469024,22,33,4349
2244,51469412,22,33,4349
2245,51469812,27,42,4356
2246,51470206,27,42,4356
2247,51470606,50,32,4360
2248,51471006,50,32,4360
2249,51471399,50,32,4360
2250,51471794,33,45,4343
2251,51472186,33,45,4343
2252,51472568,5,49,4364
2253,51472973,5,49,4364
2254,51473367,5,49,4364
2255,51473754,14,32,4382
2256,51474149,14,32,4382
2257,51474550,14,32,4382
2258,51474949,27,29,4350
2259,51475348,27,29,4350
2260,51475738,44,28,4379
2261,51476139,44,28,4379
2262,51476527,44,28,4379
2263,51476926,31,35,4377
2264,51477326,31,35,4377
2265,51477712,28,46,4389
2266,51478110,28,46,4389
2267,51478504,28,46,4389
2268,51478898,34,54,4394
2269,51479305,34,54,4394
2270,51479684,5,41,4402
2271,51480080,5,41,4402
2272,51480476,5,41,4402
2273,51480876,11,38,4406
2274,51481271,11,38,4406
2275,51481672,33,42,4349
2276,51482058,33,42,4349
2277,51482469,33,42,4349
2278,51482856,19,20,4365
2279,51483255,19,20,4365
2280,51483650,16,13,4370
2281,51484033,16,13,4370
2282,51484414,16,13,4370
2283,51484814,25,45,4347
2284,51485208,25,45,4347
2285,51485608,41,33,4364
2286,51485995,41,33,4364
2287,51486389,41,33,4364
2288,51486783,49,11,4382
2289,51487183,49,11,4382
2290,51487577,9,32,4407
2291,51487981,9,32,4407
2292,51488374,9,32,4407
2293,51488775,-19,45,4371
2294,51489177,-19,45,4371
2295,51489586,-7,57,4349
2296,51489992,-7,57,4349
2297,51490401,-7,57,4349
2298,51490796,-2,59,4379
2299,51491209,-2,59,4379
2300,51491611,-7,45,4372
2301,51492017,-7,45,4372
2302,51492399,-7,45,4372
2303,51492786,-13,40,4375
2304,51493196,-13,40,4375
2305,51493604,-2,38,4376
2306,51494003,-2,38,4376
2307,51494411,-2,38,4376
2308,51494814,16,50,4368
2309,51495209,16,50,4368
2310,51495602,17,68,4358
2311,51496001,17,68,4358
2312,51496395,17,68,4358
2313,51496796,45,50,4340
2314,51497189,45,50,4340
2315,51497589,48,21,4359
2316,51497987,48,21,4359
2317,51498387,48,21,4359
2318,51498783,43,39,4402
2319,51499177,43,39,4402
2320,51499572,52,42,4424
2321,51499982,52,42,4424
2322,51500369,52,42,4424
2323,51500762,52,18,4385
2324,51501156,52,18,4385
2325,51501558,45,32,4348
2326,51501964,45,32,4348
2327,51502357,45,32,4348
2328,51502747,13,31,4365
2329,51503146,13,31,4365
2330,51503540,13,31,4365
2331,51503941,11,16,4344
2332,51504337,11,16,4344
2333,51504733,17,37,4317
2334,51505113,17,37,4317
2335,51505514,17,37,4317
2336,51505909,18,47,4326
2337,51506314,18,47,4326
2338,51506699,17,38,4352
2339,51507096,17,38,4352
2340,51507490,17,38,4352
2341,51507890,26,34,4385
2342,51508289,26,34,4385
2343,51508682,50,24,4362
2344,51509061,50,24,4362
2345,51509450,50,24,4362
2346,51509839,46,32,4346
2347,51510240,46,32,4346
2348,51510629,42,38,4361
2349,51511027,42,38,4361
2350,51511420,42,38,4361
2351,51511820,44,45,4355
2352,51512214,44,45,4355
2353,51512613,39,55,4365
2354,51513006,39,55,4365
2355,51513406,39,55,4365
2356,51513801,33,61,4365
2357,51514200,33,61,4365
2358,51514595,26,60,4354
2359,51514999,26,60,4354
2360,51515386,26,60,4354
2361,51515787,-11,36,4359
2362,51516196,-11,36,4359
2363,51516604,-26,28,4367
2364,51517009,-26,28,4367
2365,51517417,-26,28,4367
2366,51517820,-3,63,4356
2367,51518226,-3,63,4356
2368,51518628,-21,57,4360
2369,51519034,-21,57,4360
2370,51519436,-21,57,4360
2371,51519843,-25,32,4372
2372,51520245,-25,32,4372
2373,51520645,15,24,4386
2374,51521036,15,24,4386
2375,51521430,15,24,4386
2376,51521825,25,20,4389
2377,51522225,25,20,4389
2378,51522619,14,38,4391
2379,51523026,14,38,4391
2380,51523413,14,38,4391
2381,51523814,13,26,4393
2382,51524208,13,26,4393
2383,51524606,26,11,4378
2384,51525005,26,11,4378
2385,51525399,26,11,4378
2386,51525790,41,27,4357
2387,51526174,41,27,4357
2388,51526567,33,45,4355
2389,51526972,33,45,4355
2390,51527359,33,45,4355
2391,51527742,28,60,4378
2392,51528130,28,60,4378
2393,51528538,28,60,4378
2394,51528924,45,78,4348
2395,51529328,45,78,4348
2396,51529709,55,46,4336
2397,51530105,55,46,4336
2398,51530502,55,46,4336
2399,51530902,25,23,4377
2400,51531300,25,23,4377
2401,51531693,33,51,4395
2402,51532084,33,51,4395
2403,51532490,33,51,4395
2404,51532875,48,68,4377
2405,51533275,48,68,4377
2406,51533669,29,39,4356
2407,51534068,29,39,4356
2408,51534456,29,39,4356
2409,51534854,25,24,4353
2410,51535248,25,24,4353
2411,51535648,6,47,4363
2412,51536034,6,47,4363
2413,51536428,6,47,4363
2414,51536822,23,61,4344
2415,51537224,23,61,4344
2416,51537619,46,77,4347
2417,51538017,46,77,4347
2418,51538406,46,77,4347
2419,51538805,54,57,4388
2420,51539207,54,57,4388
2421,51539599,56,28,4372
2422,51539992,56,28,4372
2423,51540392,56,28,4372
2424,51540787,18,30,4341
2425,51541193,18,30,4341
2426,51541581,21,27,4361
2427,51541985,21,27,4361
2428,51542371,21,27,4361
2429,51542754,30,34,4372
2430,51543140,30,34,4372
2431,51543528,30,34,4372
2432,51543916,15,37,4364
2433,51544321,15,37,4364
2434,51544703,13,36,4351
2435,51545086,13,36,4351
2436,51545477,13,36,4351
2437,51545869,-1,51,4360
2438,51546258,-1,51,4360
2439,51546660,-4,40,4394
2440,51547053,-4,40,4394
2441,51547462,-4,40,4394
2442,51547871,6,35,4379
2443,51548259,6,35,4379
2444,51548646,25,35,4403
2445,51549038,25,35,4403
2446,51549432,25,35,4403
2447,51549828,33,21,4411
2448,51550223,33,21,4411
2449,51550623,4,26,4373
2450,51551015,4,26,4373
2451,51551409,4,26,4373
2452,51551804,-17,56,4410
2453,51552217,-17,56,4410
2454,51552619,-20,47,4402
2455,51553027,-20,47,4402
2456,51553429,-20,47,4402
2457,51553837,21,20,4381
2458,51554224,21,20,4381
2459,51554624,67,37,4393
2460,51555017,67,37,4393
2461,51555419,67,37,4393
2462,51555812,27,62,4348
2463,51556220,27,62,4348
2464,51556607,-4,82,4323
2465,51557021,-4,82,4323
2466,51557424,-4,82,4323
2467,51557817,18,69,4350
2468,51558199,18,69,4350
2469,51558599,33,32,4392
2470,51558984,33,32,4392
2471,51559373,33,32,4392
2472,51559754,28,29,4400
2473,51560161,28,29,4400
2474,51560548,46,52,4391
2475,51560960,46,52,4391
2476,51561347,46,52,4391
2477,51561741,76,48,4374
2478,51562129,76,48,4374
2479,51562530,76,48,4374
2480,51562932,81,44,4358
2481,51563330,81,44,4358
2482,51563710,63,65,4361
2483,51564115,63,65,4361
2484,51564502,63,65,4361
2485,51564903,56,64,4337
2486,51565300,56,64,4337
2487,51565692,75,47,4318
2488,51566085,75,47,4318
2489,51566481,75,47,4318
2490,51566875,66,48,4309
2491,51567275,66,48,4309
2492,51567669,70,31,4321
2493,51568061,70,31,4321
2494,51568456,70,31,4321
2495,51568856,76,12,4357
2496,51569251,76,12,4357
2497,51569650,50,39,4381
2498,51570035,50,39,4381
2499,51570436,50,39,4381
2500,51570831,20,59,4388
2501,51571231,20,59,4388
2502,51571625,31,61,4381
2503,51572024,31,61,4381
2504,51572412,31,61,4381
2505,51572819,72,46,4371
2506,51573206,72,46,4371
2507,51573605,63,16,4387
2508,51573999,63,16,4387
2509,51574394,63,16,4387
2510,51574789,27,15,4394
2511,51575188,27,15,4394
2512,51575575,-45,34,4353
2513,51575973,-45,34,4353
2514,51576373,-45,34,4353
2515,51576782,-59,40,4375
2516,51577186,-59,40,4375
2517,51577594,5,42,4422
2518,51577983,5,42,4422
2519,51578391,5,42,4422
2520,51578779,46,22,4402
2521,51579171,46,22,4402
2522,51579567,48,38,4395
2523,51579972,48,38,4395
2524,51580366,48,38,4395
2525,51580760,-5,70,4368
2526,51581169,-5,70,4368
2527,51581577,-41,63,4342
2528,51581984,-41,63,4342
2529,51582393,-41,63,4342
2530,51582788,-5,35,4361
2531,51583194,-5,35,4361
2532,51583602,62,12,4356
2533,51583993,62,12,4356
2534,51584374,62,12,4356
2535,51584774,75,20,4334
2536,51585162,75,20,4334
2537,51585563,6,21,4353
2538,51585969,6,21,4353
2539,51586363,6,21,4353
2540,51586751,-66,30,4367
2541,51587165,-66,30,4367
2542,51587567,-56,31,4333
2543,51587980,-56,31,4333
2544,51588381,-56,31,4333
2545,51588783,-14,28,4350
2546,51589178,-14,28,4350
2547,51589592,-6,59,4374
2548,51589994,-6,59,4374
2549,51590395,-6,59,4374
2550,51590798,-10,77,4371
2551,51591191,-10,77,4371
2552,51591595,15,47,4365
2553,51591985,15,47,4365
2554,51592353,15,47,4365
2555,51592734,15,26,4333
2556,51593116,15,26,4333
2557,51593518,15,26,4333
2558,51593911,15,29,4304
2559,51594316,15,29,4304
2560,51594703,38,23,4284
2561,51595105,38,23,4284
2562,51595500,38,23,4284
2563,51595900,48,34,4281
2564,51596297,48,34,4281
2565,51596690,53,26,4296
2566,51597081,53,26,4296
2567,51597481,53,26,4296
2568,51597875,54,9,4363
2569,51598276,54,9,4363
2570,51598661,50,42,4424
2571,51599054,50,42,4424
2572,51599448,50,42,4424
2573,51599849,22,70,4485
2574,51600244,22,70,4485
2575,51600638,20,69,4556
2576,51601024,20,69,4556
2577,51601419,20,69,4556
2578,51601806,66,81,4553
2579,51602206,66,81,4553
2580,51602601,101,87,4524
2581,51603007,101,87,4524
2582,51603395,101,87,4524
2583,51603797,80,85,4482
2584,51604191,80,85,4482
2585,51604590,94,93,4419
2586,51604981,94,93,4419
2587,51605369,94,93,4419
2588,51605758,134,70,4346
2589,51606157,134,70,4346
2590,51606546,138,50,4264
2591,51606959,138,50,4264
2592,51607346,138,50,4264
2593,51607742,97,30,4226
2594,51608129,97,30,4226
2595,51608525,97,30,4226
2596,51608912,28,-2,4206
2597,51609304,28,-2,4206
2598,51609692,-15,-29,4188
2599,51610110,-15,-29,4188
2600,51610521,-15,-29,4188
2601,51610938,-48,-34,4215
2602,51611353,-48,-34,4215
2603,51611755,-36,6,4255
2604,51612156,-36,6,4255
2605,51612568,-13,41,4329
2606,51612981,-13,41,4329
2607,51613389,-13,41,4329
2608,51613785,12,43,4396
2609,51614179,12,43,4396
2610,51614574,9,65,4415
2611,51614979,9,65,4415
2612,51615373,9,65,4415
2613,51615767,4,91,4445
2614,51616161,4,91,4445
2615,51616560,26,75,4463
2616,51616959,26,75,4463
2617,51617359,26,75,4463
2618,51617747,22,91,4486
2619,51618146,22,91,4486
2620,51618541,22,91,4486
2621,51618941,23,71,4481
2622,51619334,23,71,4481
2623,51619730,25,39,4446
2624,51620117,25,39,4446
2625,51620527,25,39,4446
2626,51620914,23,60,4430
2627,51621320,23,60,4430
2628,51621694,30,61,4396
2629,51622091,30,61,4396
2630,51622480,30,61,4396
2631,51622880,102,42,4354
2632,51623274,102,42,4354
2633,51623674,106,4,4317
2634,51624046,106,4,4317
2635,51624434,106,4,4317
2636,51624823,37,-4,4290
2637,51625238,37,-4,4290
2638,51625624,23,30,4295
2639,51625997,23,30,4295
2640,51626379,23,30,4295
2641,51626781,14,42,4311
2642,51627168,14,42,4311
2643,51627570,33,23,4306
2644,51627968,33,23,4306
2645,51628369,33,23,4306
2646,51628758,64,26,4352
2647,51629157,64,26,4352
2648,51629552,41,56,4401
2649,51629964,41,56,4401
2650,51630351,41,56,4401
2651,51630746,22,66,4396
2652,51631134,22,66,4396
2653,51631529,22,66,4396
2654,51631923,12,50,4390
2655,51632328,12,50,4390
2656,51632709,21,39,4397
2657,51633105,21,39,4397
2658,51633502,21,39,4397
2659,51633900,57,48,4416
2660,51634287,57,48,4416
2661,51634679,71,72,4392
2662,51635070,71,72,4392
2663,51635470,71,72,4392
2664,51635864,71,62,4391
2665,51636272,71,62,4391
2666,51636659,35,48,4409
2667,51637051,35,48,4409
2668,51637446,35,48,4409
2669,51637847,5,33,4381
2670,51638241,5,33,4381
2671,51638641,-10,7,4344
2672,51639032,-10,7,4344
2673,51639446,-10,7,4344
2674,51639843,-24,13,4352
2675,51640251,-24,13,4352
2676,51640652,-34,30,4360
2677,51641058,-34,30,4360
2678,51641462,-34,30,4360
2679,51641869,-15,29,4335
2680,51642250,-15,29,4335
2681,51642651,28,29,4345
2682,51643037,28,29,4345
2683,51643436,28,29,4345
2684,51643830,50,45,4379
2685,51644231,50,45,4379
2686,51644612,43,39,4393
2687,51644997,43,39,4393
2688,51645373,43,39,4393
2689,51645768,26,35,4374
2690,51646162,26,35,4374
2691,51646562,36,42,4372
2692,51646961,36,42,4372
2693,51647361,36,42,4372
2694,51647751,32,28,4397
2695,51648150,32,28,4397
2696,51648545,31,24,4377
2697,51648949,31,24,4377
2698,51649344,31,24,4377
2699,51649740,69,27,4339
2700,51650128,69,27,4339
2701,51650529,69,27,4339
2702,51650924,57,32,4322
2703,51651326,57,32,4322
2704,51651707,22,39,4284
2705,51652104,22,39,4284
2706,51652500,22,39,4284
2707,51652898,47,33,4275
2708,51653288,47,33,4275
2709,51653676,60,34,4287
2710,51654070,60,34,4287
2711,51654481,60,34,4287
2712,51654868,53,48,4291
2713,51655268,53,48,4291
2714,51655661,53,63,4319
2715,51656054,53,63,4319
2716,51656449,53,63,4319
2717,51656850,29,50,4381
2718,51657252,29,50,4381
2719,51657645,21,25,4411
2720,51658030,21,25,4411
2721,51658430,21,25,4411
2722,51658825,39,32,4435
2723,51659213,39,32,4435
2724,51659603,34,51,4460
2725,51660009,34,51,4460
2726,51660396,34,51,4460
2727,51660791,30,72,4440
2728,51661178,30,72,4440
2729,51661581,21,80,4413
2730,51661980,21,80,4413
2731,51662380,21,80,4413
2732,51662776,2,55,4376
2733,51663169,2,55,4376
2734,51663563,-18,41,4355
2735,51663982,-18,41,4355
2736,51664376,-18,41,4355
2737,51664785,-22,40,4358
2738,51665175,-22,40,4358
2739,51665585,-33,18,4345
2740,51665992,-33,18,4345
2741,51666400,-33,18,4345
2742,51666795,-46,21,4336
2743,51667208,-46,21,4336
2744,51667603,-22,31,4343
2745,51668018,-22,31,4343
2746,51668419,-22,31,4343
2747,51668828,-4,17,4312
2748,51669222,-4,17,4312
2749,51669617,23,20,4312
2750,51670010,23,20,4312
2751,51670410,23,20,4312
2752,51670806,48,28,4323
2753,51671186,48,28,4323
2754,51671575,27,27,4341
2755,51671980,27,27,4341
2756,51672368,27,27,4341
2757,51672760,30,28,4411
2758,51673156,30,28,4411
2759,51673558,32,50,4406
2760,51673957,32,50,4406
2761,51674357,32,50,4406
2762,51674745,17,56,4396
2763,51675140,17,56,4396
2764,51675533,17,56,4396
2765,51675928,41,54,4440
2766,51676327,41,54,4440
2767,51676713,65,74,4433
2768,51677109,65,74,4433
2769,51677510,65,74,4433
2770,51677904,54,49,4428
2771,51678309,54,49,4428
2772,51678694,27,36,4445
2773,51679091,27,36,4445
2774,51679494,27,36,4445
2775,51679888,42,68,4422
2776,51680285,42,68,4422
2777,51680678,42,68,4393
2778,51681069,42,68,4393
2779,51681470,42,68,4393
2780,51681864,21,40,4366
2781,51682263,21,40,4366
2782,51682657,43,45,4363
2783,51683049,43,45,4363
2784,51683443,43,45,4363
2785,51683847,70,50,4327
2786,51684242,70,50,4327
2787,51684641,61,31,4273
2788,51685026,61,31,4273
2789,51685427,61,31,4273
2790,51685816,26,33,4300
2791,51686210,26,33,4300
2792,51686604,13,39,4317
2793,51686989,13,39,4317
2794,51687371,13,39,4317
2795,51687764,11,37,4312
2796,51688159,11,37,4312
2797,51688559,3,50,4337
2798,51688953,3,50,4337
2799,51689353,3,50,4337
2800,51689742,15,53,4370
2801,51690136,15,53,4370
2802,51690527,15,53,4370
2803,51690934,31,38,4371
2804,51691334,31,38,4371
2805,51691713,24,44,4351
2806,51692104,24,44,4351
2807,51692494,24,44,4351
2808,51692881,-19,44,4374
2809,51693287,-19,44,4374
2810,51693680,-35,45,4412
2811,51694092,-35,45,4412
2812,51694488,-35,45,4412
2813,51694902,-10,36,4405
2814,51695310,-10,36,4405
2815,51695703,14,35,4394
2816,51696092,14,35,4394
2817,51696481,14,35,4394
2818,51696875,23,62,4394
2819,51697274,23,62,4394
2820,51697668,20,67,4373
2821,51698060,20,67,4373
2822,51698450,20,67,4373
2823,51698850,49,59,4359
2824,51699245,49,59,4359
2825,51699640,66,34,4360
2826,51700032,66,34,4360
2827,51700432,66,34,4360
2828,51700812,32,29,4365
2829,51701201,32,29,4365
2830,51701583,14,53,4329
2831,51701994,14,53,4329
2832,51702381,14,53,4329
2833,51702783,20,37,4298
2834,51703171,20,37,4298
2835,51703580,27,35,4326
2836,51703974,27,35,4326
2837,51704367,27,35,4326
2838,51704756,33,52,4357
2839,51705156,33,52,4357
2840,51705559,18,53,4360
2841,51705964,18,53,4360
2842,51706350,18,53,4360
2843,51706746,25,49,4372
2844,51707134,25,49,4372
2845,51707527,25,49,4372
2846,51707908,38,32,4384
2847,51708314,38,32,4384
2848,51708700,14,23,4379
2849,51709089,14,23,4379
2850,51709478,14,23,4379
2851,51709872,28,33,4396
2852,51710266,28,33,4396
2853,51710665,56,68,4366
2854,51711052,56,68,4366
2855,51711451,56,68,4366
2856,51711851,28,74,4355
2857,51712246,28,74,4355
2858,51712645,15,38,4396
2859,51713032,15,38,4396
2860,51713431,15,38,4396
2861,51713825,-9,17,4400
2862,51714239,-9,17,4400
2863,51714635,-10,21,4408
2864,51715040,-10,21,4408
2865,51715442,-10,21,4408
2866,51715850,21,29,4397
2867,51716237,21,29,4397
2868,51716636,24,46,4382
2869,51717020,24,46,4382
2870,51717427,24,46,4382
2871,51717815,49,58,4383
2872,51718216,49,58,4383
2873,51718603,37,39,4367
2874,51719009,37,39,4367
2875,51719394,37,39,4367
2876,51719791,4,48,4374
2877,51720191,4,48,4374
2878,51720584,41,45,4374
2879,51720991,41,45,4374
2880,51721390,41,45,4374
2881,51721779,49,26,4384
2882,51722173,49,26,4384
2883,51722575,28,38,4381
2884,51722980,28,38,4381
2885,51723367,28,38,4381
2886,51723762,34,44,4364
2887,51724156,34,44,4364
2888,51724565,33,53,4377
2889,51724964,33,53,4377
2890,51725357,33,53,4377
2891,51725746,51,52,4368
2892,51726134,51,52,4368
2893,51726528,51,52,4368
2894,51726928,51,37,4375
2895,51727327,51,37,4375
2896,51727706,51,37,4368
2897,51728097,51,37,4368
2898,51728496,51,37,4368
2899,51728890,65,41,4359
2900,51729295,65,41,4359
2901,51729681,45,50,4379
2902,51730078,45,50,4379
2903,51730473,45,50,4379
2904,51730873,5,46,4388
2905,51731266,5,46,4388
2906,51731659,0,32,4395
2907,51732044,0,32,4395
2908,51732444,0,32,4395
2909,51732843,21,37,4403
2910,51733244,21,37,4403
2911,51733631,40,61,4409
2912,51734036,40,61,4409
2913,51734423,40,61,4409
2914,51734819,39,58,4420
2915,51735207,39,58,4420
2916,51735607,8,30,4419
2917,51736001,8,30,4419
2918,51736401,8,30,4419
2919,51736795,17,39,4385
2920,51737195,17,39,4385
2921,51737590,42,46,4390
2922,51737993,42,46,4390
2923,51738388,42,46,4390
2924,51738788,36,29,4388
2925,51739177,36,29,4388
2926,51739577,4,32,4356
2927,51739983,4,32,4356
2928,51740376,4,32,4356
2929,51740764,-16,42,4357
2930,51741179,-16,42,4357
2931,51741582,3,28,4376
2932,51741980,3,28,4376
2933,51742366,3,28,4376
2934,51742748,6,19,4357
2935,51743135,6,19,4357
2936,51743542,6,19,4357
2937,51743929,5,39,4350
2938,51744324,5,39,4350
2939,51744697,17,48,4358
2940,51745095,17,48,4358
2941,51745484,17,48,4358
2942,51745883,23,57,4338
2943,51746277,23,57,4338
2944,51746677,36,70,4364
2945,51747055,36,70,4364
2946,51747453,36,70,4364
2947,51747847,48,45,4385
2948,51748247,48,45,4385
2949,51748641,17,27,4378
2950,51749038,17,27,4378
2951,51749425,17,27,4378
2952,51749826,9,38,4370
2953,51750220,9,38,4370
2954,51750619,39,38,4411
2955,51751019,39,38,4411
2956,51751412,39,38,4411
2957,51751807,54,16,4417
2958,51752206,54,16,4417
2959,51752599,44,12,4402
2960,51753004,44,12,4402
2961,51753390,44,12,4402
2962,51753791,43,36,4423
2963,51754179,43,36,4423
2964,51754579,45,44,4391
2965,51754973,45,44,4391
2966,51755380,45,44,4391
2967,51755762,40,47,4381
2968,51756160,40,47,4381
2969,51756556,43,38,4363
2970,51756967,43,38,4363
2971,51757362,43,38,4363
2972,51757750,15,9,4362
2973,51758139,15,9,4362
2974,51758540,-5,21,4375
2975,51758942,-5,21,4375
2976,51759342,-5,21,4375
2977,51759739,16,30,4347
2978,51760133,16,30,4347
2979,51760527,16,30,4347
2980,51760927,38,19,4346
2981,51761326,38,19,4346
2982,51761712,7,18,4359
2983,51762103,7,18,4359
2984,51762501,7,18,4359
2985,51762891,-14,30,4341
2986,51763308,-14,30,4341
2987,51763695,12,54,4319
2988,51764093,12,54,4319
2989,51764487,12,54,4319
2990,51764879,28,46,4362
2991,51765267,28,46,4362
2992,51765660,12,33,4380
2993,51766046,12,33,4380
2994,51766449,12,33,4380
2995,51766847,-14,53,4340
2996,51767256,-14,53,4340
2997,51767656,14,52,4369
2998,51768041,14,52,4369
2999,51768441,14,52,4369
3000,51768836,23,30,4375
3001,51769236,23,30,4375
3002,51769630,25,34,4371
3003,51770028,25,34,4371
3004,51770423,25,34,4371
3005,51770823,45,48,4383
3006,51771218,45,48,4383
3007,51771618,7,37,4361
3008,51772011,7,37,4361
3009,51772410,7,37,4361
3010,51772804,61,23,4375
3011,51773205,61,23,4375
3012,51773599,148,24,4396
3013,51773998,148,24,4396
3014,51774392,148,24,4396
3015,51774793,126,16,4344
3016,51775182,126,16,4344
3017,51775583,87,21,4307
3018,51775976,87,21,4307
3019,51776364,87,21,4307
3020,51776753,87,53,4359
3021,51777153,87,53,4359
3022,51777548,9,55,4364
3023,51777953,9,55,4364
3024,51778348,9,55,4364
3025,51778743,-123,47,4380
3026,51779146,-123,47,4380
3027,51779556,-121,96,4432
3028,51779963,-121,96,4432
3029,51780371,-121,96,4432
3030,51780762,-49,108,4479
3031,51781170,-49,108,4479
3032,51781583,-11,80,4523
3033,51781996,-11,80,4523
3034,51782398,-11,80,4523
3035,51782799,27,43,4481
3036,51783187,27,43,4481
3037,51783587,96,15,4391
3038,51783978,96,15,4391
3039,51784366,96,15,4391
3040,51784755,114,20,4354
3041,51785156,114,20,4354
3042,51785552,70,2,4332
3043,51785957,70,2,4332
3044,51786351,70,2,4332
3045,51786746,39,-39,4248
3046,51787141,39,-39,4248
3047,51787557,12,-32,4192
3048,51787964,12,-32,4192
3049,51788372,12,-32,4192
3050,51788762,-51,5,4206
3051,51789169,-51,5,4206
3052,51789570,-144,39,4292
3053,51789990,-144,39,4292
3054,51790393,-144,39,4292
3055,51790794,-210,70,4390
3056,51791198,-210,70,4390
3057,51791598,-145,61,4407
3058,51791999,-145,61,4407
3059,51792400,-145,61,4407
3060,51792769,7,50,4427
3061,51793165,7,50,4427
3062,51793566,143,52,4510
3063,51793958,143,52,4510
3064,51794359,143,52,4510
3065,51794749,219,75,4536
3066,51795149,219,75,4536
3067,51795544,229,98,4465
3068,51795949,229,98,4465
3069,51796343,229,98,4465
3070,51796739,196,94,4381
3071,51797126,196,94,4381
3072,51797528,196,94,4381
3073,51797922,185,56,4358
3074,51798325,185,56,4358
3075,51798712,139,11,4356
3076,51799114,139,11,4356
3077,51799511,139,11,4356
3078,51799911,6,-11,4287
3079,51800317,6,-11,4287
3080,51800716,-63,6,4243
3081,51801119,-63,6,4243
3082,51801534,-63,6,4243
3083,51801928,-69,48,4263
3084,51802348,-69,48,4263
3085,51802738,-50,38,4324
3086,51803146,-50,38,4324
3087,51803541,-4,22,4351
3088,51803960,-4,22,4351
3089,51804354,-4,22,4351
3090,51804756,78,30,4303
3091,51805146,78,30,4303
3092,51805546,276,65,4205
3093,51805940,276,65,4205
3094,51806344,276,65,4205
3095,51806734,435,74,4112
3096,51807120,435,74,4112
3097,51807503,435,74,4112
3098,51807903,457,19,4155
3099,51808301,457,19,4155
3100,51808693,254,-28,4314
3101,51809084,254,-28,4314
3102,51809488,254,-28,4314
3103,51809890,-68,-25,4452
3104,51810310,-68,-25,4452
3105,51810706,-157,36,4460
3106,51811118,-157,36,4460
3107,51811523,-157,36,4460
3108,51811924,-117,88,4266
3109,51812338,-117,88,4266
3110,51812734,124,49,4133
3111,51813116,124,49,4133
3112,51813518,124,49,4133
3113,51813912,515,-44,4413
3114,51814332,515,-44,4413
3115,51814719,524,3,4866
3116,51815121,524,3,4866
3117,51815518,524,3,4866
3118,51815918,-181,138,4832
3119,51816324,-181,138,4832
3120,51816719,-829,152,4469
3121,51817117,-829,152,4469
3122,51817536,-829,152,4469
3123,51817938,-430,62,4461
3124,51818350,-430,62,4461
3125,51818741,305,5,4595
3126,51819135,305,5,4595
3127,51819529,66,42,4516
3128,51819929,66,42,4516
3129,51820327,66,42,4516
3130,51820714,-155,125,4414
3131,51821120,-155,125,4414
3132,51821521,-155,125,4414
3133,51821923,-236,111,4399
3134,51822343,-236,111,4399
3135,51822734,-612,30,4461
3136,51823130,-612,30,4461
3137,51823535,26,37,4476
3138,51823928,26,37,4476
3139,51824325,26,37,4476
3140,51824717,499,95,4215
3141,51825108,499,95,4215
3142,51825516,499,95,4215
3143,51825903,194,12,3814
3144,51826307,194,12,3814
3145,51826694,82,-132,3912
3146,51827094,82,-132,3912
3147,51827492,82,-132,3912
3148,51827907,139,-135,4267
3149,51828305,139,-135,4267
3150,51828706,-123,-48,4321
3151,51829120,-123,-48,4321
3152,51829536,-320,91,4217
3153,51829938,-320,91,4217
3154,51830349,-320,91,4217
3155,51830739,-204,167,4250
3156,51831148,-204,167,4250
3157,51831553,-180,148,4750
3158,51831965,-180,148,4750
3159,51832368,-180,148,4750
3160,51832765,-59,89,5081
3161,51833174,-59,89,5081
3162,51833583,-298,65,4638
3163,51833990,-298,65,4638
3164,51834390,-298,65,4638
3165,51834794,-329,108,4178
3166,51835208,-329,108,4178
3167,51835602,132,119,4327
3168,51836009,132,119,4327
3169,51836396,132,119,4327
3170,51836797,236,27,4452
3171,51837191,236,27,4452
3172,51837591,305,-94,4137
3173,51838002,305,-94,4137
3174,51838412,305,-94,4137
3175,51838807,385,-86,3916
3176,51839222,385,-86,3916
3177,51839617,232,14,4082
3178,51840025,232,14,4082
3179,51840414,232,14,4082
3180,51840807,89,95,4412
3181,51841202,89,95,4412
3182,51841601,91,103,4536
3183,51842000,91,103,4536
3184,51842385,91,103,4536
3185,51842755,-29,31,4347
3186,51843169,-29,31,4347
3187,51843573,-116,21,4379
3188,51843979,-116,21,4379
3189,51844380,-116,21,4379
3190,51844789,102,116,4747
3191,51845178,102,116,4747
3192,51845568,101,132,4663
3193,51845962,101,132,4663
3194,51846361,101,132,4663
3195,51846750,-11,62,4205
3196,51847159,-11,62,4205
3197,51847555,150,14,4129
3198,51847960,150,14,4129
3199,51848355,150,14,4129
3200,51848750,225,-11,4313
3201,51849145,225,-11,4313
3202,51849560,178,-9,4320
3203,51849967,178,-9,4320
3204,51850374,178,-9,4320
3205,51850763,301,-12,4128
3206,51851170,301,-12,4128
3207,51851575,251,-1,3989
3208,51851995,251,-1,3989
3209,51852390,251,-1,3989
3210,51852799,97,60,4165
3211,51853186,97,60,4165
3212,51853588,202,86,4439
3213,51853986,202,86,4439
3214,51854386,202,86,4439
3215,51854781,210,21,4381
3216,51855175,210,21,4381
3217,51855564,144,-5,4266
3218,51855978,144,-5,4266
3219,51856374,144,-5,4266
3220,51856770,197,79,4422
3221,51857159,197,79,4422
3222,51857560,158,121,4548
3223,51857959,158,121,4548
3224,51858360,158,121,4548
3225,51858750,103,77,4470
3226,51859136,103,77,4470
3227,51859519,103,77,4470
3228,51859914,127,34,4343
3229,51860312,127,34,4343
3230,51860704,138,53,4322
3231,51861095,138,53,4322
3232,51861496,138,53,4322
3233,51861890,194,103,4437
3234,51862294,194,103,4437
3235,51862676,208,102,4459
3236,51863067,208,102,4459
3237,51863463,208,102,4459
3238,51863862,103,38,4288
3239,51864256,103,38,4288
3240,51864658,8,-7,4230
3241,51865049,8,-7,4230
3242,51865458,8,-7,4230
3243,51865867,-34,28,4370
3244,51866274,-34,28,4370
3245,51866661,-71,57,4414
3246,51867068,-71,57,4414
3247,51867470,-71,57,4414
3248,51867877,-123,56,4340
3249,51868272,-123,56,4340
3250,51868679,-182,47,4307
3251,51869072,-182,47,4307
3252,51869488,-182,47,4307
3253,51869890,-247,42,4376
3254,51870302,-247,42,4376
3255,51870689,-304,52,4419
3256,51871101,-304,52,4419
3257,51871496,-304,52,4419
3258,51871902,-327,48,4382
3259,51872318,-327,48,4382
3260,51872711,-329,39,4377
3261,51873117,-329,39,4377
3262,51873528,-329,39,4377
3263,51873930,-332,45,4426
3264,51874343,-332,45,4426
3265,51874724,-293,64,4505
3266,51875134,-293,64,4505
3267,51875544,-251,78,4506
3268,51875941,-251,78,4506
3269,51876342,-251,78,4506
3270,51876740,-251,49,4434
3271,51877143,-251,49,4434
3272,51877551,-250,21,4380
3273,51877956,-250,21,4380
3274,51878365,-250,21,4380
3275,51878755,-201,19,4418
3276,51879167,-201,19,4418
3277,51879572,-117,4,4431
3278,51879984,-117,4,4431
3279,51880386,-117,4,4431
3280,51880788,-59,14,4361
3281,51881191,-59,14,4361
3282,51881599,-13,5,4339
3283,51881990,-13,5,4339
3284,51882393,-13,5,4339
3285,51882788,38,3,4374
3286,51883182,38,3,4374
3287,51883583,64,16,4410
3288,51883989,64,16,4410
3289,51884383,64,16,4410
3290,51884770,70,22,4384
3291,51885152,70,22,4384
3292,51885561,67,30,4342
3293,51885960,67,30,4342
3294,51886360,67,30,4342
3295,51886743,85,14,4353
3296,51887144,85,14,4353
3297,51887539,103,51,4368
3298,51887933,103,51,4368
3299,51888330,103,51,4368
3300,51888715,116,63,4396
3301,51889107,116,63,4396
3302,51889507,116,63,4396
3303,51889901,137,17,4400
3304,51890305,137,17,4400
3305,51890692,132,23,4388
3306,51891088,132,23,4388
3307,51891484,132,23,4388
3308,51891884,118,49,4447
3309,51892279,118,49,4447
3310,51892654,101,51,4506
3311,51893041,101,51,4506
3312,51893434,101,51,4506
3313,51893829,61,37,4482
3314,51894235,61,37,4482
3315,51894622,11,25,4421
3316,51895021,11,25,4421
3317,51895415,11,25,4421
3318,51895814,-17,48,4407
3319,51896223,-17,48,4407
3320,51896630,-50,77,4391
3321,51897031,-50,77,4391
3322,51897432,-50,77,4391
3323,51897841,-91,63,4314
3324,51898247,-91,63,4314
3325,51898651,-104,20,4281
3326,51899057,-104,20,4281
3327,51899462,-104,20,4281
3328,51899868,-90,13,4300
3329,51900263,-90,13,4300
3330,51900671,-66,36,4312
3331,51901064,-66,36,4312
3332,51901473,-66,36,4312
3333,51901876,-44,41,4328
3334,51902291,-44,41,4328
3335,51902686,-11,31,4353
3336,51903089,-11,31,4353
3337,51903494,-11,31,4353
3338,51903895,5,17,4363
3339,51904294,5,17,4363
3340,51904686,15,44,4338
3341,51905076,15,44,4338
3342,51905478,15,44,4338
3343,51905872,22,93,4335
3344,51906272,22,93,4335
3345,51906666,35,88,4386
3346,51907058,35,88,4386
3347,51907455,35,88,4386
3348,51907855,57,73,4436
3349,51908250,57,73,4436
3350,51908650,78,68,4416
3351,51909027,78,68,4416
3352,51909415,78,68,4416
3353,51909809,113,67,4400
3354,51910210,113,67,4400
3355,51910604,126,82,4377
3356,51911012,126,82,4377
3357,51911399,126,82,4377
3358,51911800,109,48,4366
3359,51912194,109,48,4366
3360,51912594,119,39,4400
3361,51912994,119,39,4400
3362,51913395,119,39,4400
3363,51913789,134,70,4380
3364,51914184,134,70,4380
3365,51914578,119,70,4333
3366,51914989,119,70,4333
3367,51915376,119,70,4333
3368,51915769,81,57,4321
3369,51916163,81,57,4321
3370,51916562,35,51,4337
3371,51916962,35,51,4337
3372,51917362,35,51,4337
3373,51917750,28,38,4352
3374,51918144,28,38,4352
3375,51918540,23,13,4361
3376,51918941,23,13,4361
3377,51919338,23,13,4361
3378,51919725,-8,-10,4371
3379,51920138,-8,-10,4371
3380,51920553,-26,-8,4382
3381,51920966,-26,-8,4382
3382,51921373,-26,-8,4382
3383,51921772,-11,25,4363
3384,51922185,-11,25,4363
3385,51922588,14,34,4341
3386,51922984,14,34,4341
3387,51923379,14,34,4341
3388,51923773,29,22,4348
3389,51924167,29,22,4348
3390,51924569,21,24,4370
3391,51924968,21,24,4370
3392,51925366,21,24,4370
3393,51925751,9,34,4397
3394,51926139,9,34,4397
3395,51926534,20,30,4423
3396,51926933,20,30,4423
3397,51927323,20,30,4423
3398,51927702,24,38,4377
3399,51928093,24,38,4377
3400,51928497,24,38,4377
3401,51928891,2,40,4348
3402,51929300,2,40,4348
3403,51929679,23,38,4374
3404,51930077,23,38,4374
3405,51930472,23,38,4374
3406,51930877,51,52,4377
3407,51931265,51,52,4377
3408,51931665,49,59,4387
3409,51932058,49,59,4387
3410,51932451,49,59,4387
3411,51932859,49,68,4358
3412,51933254,49,68,4358
3413,51933647,59,68,4312
3414,51934024,59,68,4312
3415,51934425,59,68,4312
3416,51934827,66,63,4316
3417,51935220,66,63,4316
3418,51935608,34,39,4333
3419,51936013,34,39,4333
3420,51936401,34,39,4333
3421,51936790,7,22,4328
3422,51937184,7,22,4328
3423,51937584,5,29,4303
3424,51937982,5,29,4303
3425,51938381,5,29,4303
3426,51938762,8,44,4313
3427,51939162,8,44,4313
3428,51939558,9,50,4333
3429,51939969,9,50,4333
3430,51940356,9,50,4333
3431,51940751,-1,49,4359
3432,51941154,-1,49,4359
3433,51941562,-4,57,4387
3434,51941969,-4,57,4387
3435,51942370,-4,57,4387
3436,51942753,-17,39,4384
3437,51943167,-17,39,4384
3438,51943556,-22,22,4372
3439,51943957,-22,22,4372
3440,51944352,-22,22,4372
3441,51944749,-9,23,4372
3442,51945137,-9,23,4372
3443,51945540,-10,44,4396
3444,51945936,-10,44,4396
3445,51946354,-10,44,4396
3446,51946744,3,69,4388
3447,51947145,3,69,4388
3448,51947532,12,64,4386
3449,51947932,12,64,4386
3450,51948328,12,64,4386
3451,51948715,16,38,4381
3452,51949104,16,38,4381
3453,51949505,16,38,4381
3454,51949891,65,59,4364
3455,51950293,65,59,4364
3456,51950679,95,86,4374
3457,51951084,95,86,4374
3458,51951472,95,86,4374
3459,51951879,58,44,4354
3460,51952266,58,44,4354
3461,51952666,47,14,4341
3462,51953051,47,14,4341
3463,51953450,47,14,4341
3464,51953845,40,38,4347
3465,51954245,40,38,4347
3466,51954631,28,53,4349
3467,51955032,28,53,4349
3468,51955427,28,53,4349
3469,51955828,35,46,4344
3470,51956222,35,46,4344
3471,51956630,36,44,4316
3472,51957015,36,44,4316
3473,51957414,36,44,4316
3474,51957809,16,32,4311
3475,51958215,16,32,4311
3476,51958602,-8,32,4344
3477,51959015,-8,32,4344
3478,51959404,-8,32,4344
3479,51959819,-9,53,4379
3480,51960221,-9,53,4379
3481,51960628,-20,54,4359
3482,51961029,-20,54,4359
3483,51961436,-20,54,4359
3484,51961831,-10,34,4368
3485,51962245,-10,34,4368
3486,51962640,10,22,4409
3487,51963045,10,22,4409
3488,51963433,10,22,4409
3489,51963833,-13,29,4404
3490,51964241,-13,29,4404
3491,51964649,-30,23,4424
3492,51965050,-30,23,4424
3493,51965451,-30,23,4424
3494,51965860,-12,36,4437
3495,51966268,-12,36,4437
3496,51966662,-24,58,4394
3497,51967069,-24,58,4394
3498,51967475,-24,58,4394
3499,51967877,-29,46,4369
3500,51968286,-29,46,4369
3501,51968688,4,27,4388
3502,51969076,4,27,4388
3503,51969485,4,27,4388
3504,51969872,22,27,4394
3505,51970272,22,27,4394
3506,51970667,39,48,4384
3507,51971059,39,48,4384
3508,51971455,39,48,4384
3509,51971855,24,61,4365
3510,51972250,24,61,4365
3511,51972650,20,39,4327
3512,51973037,20,39,4327
3513,51973437,20,39,4327
3514,51973831,59,34,4332
3515,51974232,59,34,4332
3516,51974625,54,58,4353
3517,51975023,54,58,4353
3518,51975418,54,58,4353
3519,51975810,27,45,4335
3520,51976192,27,45,4335
3521,51976599,38,33,4324
3522,51976998,38,33,4324
3523,51977392,38,33,4324
3524,51977787,39,30,4357
3525,51978181,39,30,4357
3526,51978575,1,40,4381
3527,51978978,1,40,4381
3528,51979372,1,40,4381
3529,51979766,2,47,4381
3530,51980160,2,47,4381
3531,51980561,22,45,4389
3532,51980960,22,45,4389
3533,51981361,22,45,4389
3534,51981743,16,55,4407
3535,51982143,16,55,4407
3536,51982531,5,67,4412
3537,51982929,5,67,4412
3538,51983326,5,67,4412
3539,51983718,-16,50,4411
3540,51984129,-16,50,4411
3541,51984539,-20,52,4373
3542,51984943,-20,52,4373
3543,51985357,-20,52,4373
3544,51985747,-25,65,4360
3545,51986161,-25,65,4360
3546,51986563,-25,61,4397
3547,51986976,-25,61,4397
3548,51987378,-25,61,4397
3549,51987781,-14,54,4398
3550,51988182,-14,54,4398
3551,51988590,-7,51,4376
3552,51988996,-7,51,4376
3553,51989404,-7,51,4376
3554,51989800,-13,43,4365
3555,51990214,-13,43,4365
3556,51990616,-7,35,4358
3557,51991022,-7,35,4358
3558,51991424,-7,35,4358
3559,51991826,9,56,4347
3560,51992221,9,56,4347
3561,51992606,4,41,4350
3562,51992991,4,41,4350
3563,51993389,4,41,4350
3564,51993785,-1,25,4356
3565,51994192,-1,25,4356
3566,51994586,-16,26,4351
3567,51995004,-16,26,4351
3568,51995399,-16,26,4351
3569,51995796,8,44,4354
3570,51996184,8,44,4354
3571,51996584,47,78,4365
3572,51996980,47,78,4365
3573,51997380,47,78,4365
3574,51997768,59,71,4372
3575,51998168,59,71,4372
3576,51998563,67,52,4376
3577,51998967,67,52,4376
3578,51999361,67,52,4376
3579,51999755,73,58,4389
3580,52000144,73,58,4389
3581,52000544,69,62,4391
3582,52000938,69,62,4391
3583,52001340,69,62,4391
3584,52001721,73,48,4388
3585,52002122,73,48,4388
3586,52002518,79,46,4400
3587,52002916,79,46,4400
3588,52003315,79,46,4400
3589,52003708,50,57,4383
3590,52004098,50,57,4383
3591,52004498,50,57,4383
3592,52004891,33,58,4382
3593,52005295,33,58,4382
3594,52005681,20,47,4374
3595,52006078,20,47,4374
3596,52006476,20,47,4374
3597,52006876,8,46,4327
3598,52007262,8,46,4327
3599,52007656,26,50,4339
3600,52008041,26,50,4339
3601,52008440,26,50,4339
3602,52008836,16,23,4357
3603,52009229,16,23,4357
3604,52009620,-13,13,4334
3605,52010034,-13,13,4334
3606,52010436,-13,13,4334
3607,52010844,-10,36,4336
3608,52011238,-10,36,4336
3609,52011648,3,40,4356
3610,52012039,3,40,4356
3611,52012439,3,40,4356
3612,52012826,-8,20,4363
3613,52013239,-8,20,4363
3614,52013640,-19,33,4343
3615,52014045,-19,33,4343
3616,52014447,-19,33,4343
3617,52014858,-22,69,4343
3618,52015259,-22,69,4343
3619,52015661,-2,66,4372
3620,52016061,-2,66,4372
3621,52016472,-2,66,4372
3622,52016874,9,53,4377
3623,52017274,9,53,4377
3624,52017661,-8,54,4394
3625,52018068,-8,54,4394
3626,52018470,-8,54,4394
3627,52018878,-15,57,4415
3628,52019281,-15,57,4415
3629,52019682,-5,62,4423
3630,52020080,-5,62,4423
3631,52020488,-5,62,4423
3632,52020890,18,61,4414
3633,52021297,18,61,4414
3634,52021684,19,48,4403
3635,52022085,19,48,4403
3636,52022484,19,48,4403
3637,52022877,19,44,4430
3638,52023270,19,44,4430
3639,52023670,9,63,4421
3640,52024057,9,63,4421
3641,52024458,9,63,4421
3642,52024845,10,68,4371
3643,52025253,10,68,4371
3644,52025648,25,46,4351
3645,52026020,25,46,4351
3646,52026403,25,46,4351
3647,52026798,24,41,4357
3648,52027192,24,41,4357
3649,52027591,14,46,4345
3650,52027988,14,46,4345
3651,52028387,14,46,4345
3652,52028784,2,41,4362
3653,52029177,2,41,4362
3654,52029571,2,38,4358
3655,52029982,2,38,4358
3656,52030370,2,38,4358
3657,52030759,0,24,4370
3658,52031153,0,24,4370
3659,52031555,-8,10,4375
3660,52031959,-8,10,4375
3661,52032367,-8,10,4375
3662,52032756,-18,28,4350
3663,52033170,-18,28,4350
3664,52033573,-7,56,4351
3665,52033986,-7,56,4351
3666,52034387,-7,56,4351
3667,52034789,17,38,4345
3668,52035185,17,38,4345
3669,52035571,6,10,4375
3670,52035964,6,10,4375
3671,52036364,6,10,4375
3672,52036742,8,32,4382
3673,52037141,8,32,4382
3674,52037535,-7,48,4345
3675,52037943,-7,48,4345
3676,52038349,-7,48,4345
3677,52038745,-11,44,4364
3678,52039148,-11,44,4364
3679,52039556,27,42,4387
3680,52039948,27,42,4387
3681,52040348,27,42,4387
3682,52040738,38,30,4369
3683,52041132,38,30,4369
3684,52041510,38,30,4369
3685,52041898,25,12,4350
3686,52042289,25,12,4350
3687,52042688,-3,3,4354
3688,52043083,-3,3,4354
3689,52043493,-3,3,4354
3690,52043894,-18,14,4376
3691,52044302,-18,14,4376
3692,52044688,-36,19,4376
3693,52045094,-36,19,4376
3694,52045492,-36,19,4376
3695,52045899,-31,14,4356
3696,52046305,-31,14,4356
3697,52046698,2,20,4353
3698,52047085,2,20,4353
3699,52047485,2,20,4353
3700,52047871,2,24,4368
3701,52048267,2,24,4368
3702,52048662,-2,59,4346
3703,52049061,-2,59,4346
3704,52049470,-2,59,4346
3705,52049878,17,74,4356
3706,52050266,17,74,4356
3707,52050664,17,66,4383
3708,52051049,17,66,4383
3709,52051449,17,66,4383
3710,52051846,37,65,4355
3711,52052244,37,65,4355
3712,52052639,42,61,4353
3713,52053044,42,61,4353
3714,52053431,42,61,4353
3715,52053831,7,73,4367
3716,52054225,7,73,4367
3717,52054625,20,58,4367
3718,52055018,20,58,4367
3719,52055418,20,58,4367
3720,52055812,39,48,4386
3721,52056211,39,48,4386
3722,52056605,45,50,4401
3723,52057011,45,50,4401
3724,52057398,45,50,4401
3725,52057799,49,55,4380
3726,52058194,49,55,4380
3727,52058587,29,66,4366
3728,52058988,29,66,4366
3729,52059389,29,66,4366
3730,52059770,-3,44,4383
3731,52060184,-3,44,4383
3732,52060586,-12,29,4401
3733,52060996,-12,29,4401
3734,52061399,-12,29,4401
3735,52061800,17,45,4403
3736,52062188,17,45,4403
3737,52062588,14,43,4393
3738,52062985,14,43,4393
3739,52063385,14,43,4393
3740,52063775,1,45,4376
3741,52064175,1,45,4376
3742,52064572,5,53,4368
3743,52064970,5,53,4368
3744,52065363,5,53,4368
3745,52065758,18,47,4374
3746,52066146,18,47,4374
3747,52066547,14,32,4360
3748,52066951,14,32,4360
3749,52067344,14,32,4360
3750,52067725,-16,32,4345
3751,52068129,-16,32,4345
3752,52068539,-12,51,4327
3753,52068938,-12,51,4327
3754,52069351,-12,51,4327
3755,52069747,-4,47,4338
3756,52070149,-4,47,4338
3757,52070556,-8,47,4356
3758,52070963,-8,47,4356
3759,52071371,-8,47,4356
3760,52071760,-1,39,4374
3761,52072172,-1,39,4374
3762,52072574,9,24,4395
3763,52072972,9,24,4395
3764,52073366,9,24,4395
3765,52073760,17,46,4388
3766,52074148,17,46,4388
3767,52074548,13,56,4395
3768,52074942,13,56,4395
3769,52075346,13,56,4395
3770,52075727,14,61,4399
3771,52076124,14,61,4399
3772,52076518,8,54,4366
3773,52076918,8,54,4366
3774,52077317,8,54,4366
3775,52077709,9,34,4350
3776,52078098,9,34,4350
3777,52078502,9,34,4350
3778,52078896,11,38,4380
3779,52079297,11,38,4380
3780,52079683,6,45,4386
3781,52080080,6,45,4386
3782,52080476,6,45,4386
3783,52080883,7,36,4395
3784,52081270,7,36,4395
3785,52081670,8,31,4368
3786,52082055,8,31,4368
3787,52082457,8,31,4368
3788,52082851,10,49,4334
3789,52083251,10,49,4334
3790,52083645,-3,32,4338
3791,52084041,-3,32,4338
3792,52084451,-3,32,4338
3793,52084859,-8,16,4329
3794,52085261,-8,16,4329
3795,52085662,18,46,4355
3796,52086047,18,46,4355
3797,52086449,18,46,4355
3798,52086853,40,61,4377
3799,52087247,40,61,4377
3800,52087646,40,65,4382
3801,52088031,40,65,4382
3802,52088431,40,65,4382
3803,52088826,56,71,4368
3804,52089226,56,71,4368
3805,52089619,61,68,4342
3806,52090026,61,68,4342
3807,52090420,61,68,4342
3808,52090813,25,70,4370
3809,52091212,25,70,4370
3810,52091606,26,68,4380
3811,52092013,26,68,4380
3812,52092406,26,68,4380
3813,52092767,42,74,4353
3814,52093149,42,74,4353
3815,52093556,42,70,4377
3816,52093949,42,70,4377
3817,52094349,42,70,4377
3818,52094739,28,36,4409
3819,52095138,28,36,4409
3820,52095526,0,35,4380
3821,52095925,0,35,4380
3822,52096324,0,35,4380
3823,52096716,17,77,4325
3824,52097107,17,77,4325
3825,52097517,50,80,4332
3826,52097904,50,80,4332
3827,52098308,50,80,4332
3828,52098695,33,53,4357
3829,52099092,33,53,4357
3830,52099487,33,53,4357
3831,52099888,16,40,4370
3832,52100286,16,40,4370
3833,52100685,15,54,4367
3834,52101069,15,54,4367
3835,52101470,15,54,4367
3836,52101865,-3,51,4383
3837,52102277,-3,51,4383
3838,52102672,-8,40,4398
3839,52103079,-8,40,4398
3840,52103484,-8,40,4398
3841,52103891,0,49,4376
3842,52104278,0,49,4376
3843,52104677,-19,53,4379
3844,52105073,-19,53,4379
3845,52105477,-19,53,4379
3846,52105880,-16,47,4362
3847,52106287,-16,47,4362
3848,52106682,-11,33,4354
3849,52107086,-11,33,4354
3850,52107487,-11,33,4354
3851,52107896,-17,40,4378
3852,52108304,-17,40,4378
3853,52108698,24,49,4367
3854,52109089,24,49,4367
3855,52109487,24,49,4367
3856,52109882,26,48,4341
3857,52110275,26,48,4341
3858,52110670,-1,20,4323
3859,52111076,-1,20,4323
3860,52111479,-1,20,4323
3861,52111887,-12,22,4331
3862,52112290,-12,22,4331
3863,52112690,-9,37,4365
3864,52113094,-9,37,4365
3865,52113502,-9,37,4365
3866,52113904,-14,49,4362
3867,52114317,-14,49,4362
3868,52114705,-2,68,4366
3869,52115102,-2,68,4366
3870,52115507,-2,68,4366
3871,52115915,6,45,4362
3872,52116313,6,45,4362
3873,52116698,8,40,4335
3874,52117087,8,40,4335
3875,52117496,8,40,4335
3876,52117884,7,49,4356
3877,52118295,7,49,4356
3878,52118681,29,33,4365
3879,52119079,29,33,4365
3880,52119468,29,33,4365
3881,52119875,36,14,4356
3882,52120262,36,14,4356
3883,52120663,2,39,4358
3884,52121049,2,39,4358
3885,52121448,2,39,4358
3886,52121859,-16,55,4370
3887,52122261,-16,55,4370
3888,52122661,-22,32,4368
3889,52123062,-22,32,4368
3890,52123472,-22,32,4368
3891,52123874,-2,30,4344
3892,52124281,-2,30,4344
3893,52124675,29,23,4349
3894,52125066,29,23,4349
3895,52125462,29,23,4349
3896,52125853,33,21,4381
3897,52126234,33,21,4381
3898,52126633,8,44,4391
3899,52127024,8,44,4391
3900,52127417,8,44,4391
3901,52127779,-5,44,4384
3902,52128170,-5,44,4384
3903,52128585,6,50,4394
3904,52128981,6,50,4394
3905,52129374,6,50,4394
3906,52129763,6,56,4390
3907,52130163,6,56,4390
3908,52130552,-10,57,4381
3909,52130972,-10,57,4381
3910,52131375,-10,57,4381
3911,52131770,15,80,4348
3912,52132164,15,80,4348
3913,52132565,44,69,4318
3914,52132970,44,69,4318
3915,52133364,44,69,4318
3916,52133754,31,42,4350
3917,52134161,31,42,4350
3918,52134556,25,49,4402
3919,52134958,25,49,4402
3920,52135345,25,49,4402
3921,52135740,46,51,4399
3922,52136128,46,51,4399
3923,52136530,44,38,4353
3924,52136923,44,38,4353
3925,52137328,44,38,4353
3926,52137715,19,31,4359
3927,52138117,19,31,4359
3928,52138512,16,37,4390
3929,52138911,16,37,4390
3930,52139310,16,37,4390
3931,52139703,13,56,4381
3932,52140093,13,56,4381
3933,52140493,13,56,4381
3934,52140880,11,58,4351
3935,52141286,11,58,4351
3936,52141680,4,38,4374
3937,52142070,4,38,4374
3938,52142468,4,38,4374
3939,52142862,-5,39,4414
3940,52143264,-5,39,4414
3941,52143664,30,56,4351
3942,52144042,30,56,4351
3943,52144436,30,56,4351
3944,52144832,28,53,4330
3945,52145226,28,53,4330
3946,52145614,-1,47,4361
3947,52146020,-1,47,4361
3948,52146423,-1,47,4361
3949,52146831,-5,45,4348
3950,52147232,-5,45,4348
3951,52147640,6,58,4367
3952,52148024,6,58,4367
3953,52148423,6,58,4367
3954,52148816,30,41,4371
3955,52149218,30,41,4371
3956,52149612,39,23,4355
3957,52150010,39,23,4355
3958,52150404,39,23,4355
3959,52150805,30,31,4360
3960,52151199,30,31,4360
3961,52151599,5,30,4382
3962,52151993,5,30,4382
3963,52152393,5,30,4382
3964,52152788,-39,42,4390
3965,52153197,-39,42,4390
3966,52153599,-25,68,4359
3967,52154010,-25,68,4359
3968,52154411,-25,68,4359
3969,52154820,16,66,4326
3970,52155207,16,66,4326
3971,52155614,12,33,4348
3972,52156013,12,33,4348
3973,52156406,12,33,4348
3974,52156803,29,34,4348
3975,52157202,29,34,4348
3976,52157595,35,46,4333
3977,52158007,35,46,4333
3978,52158394,35,46,4333
3979,52158796,13,38,4350
3980,52159181,13,38,4350
3981,52159577,15,39,4346
3982,52159976,15,39,4346
3983,52160376,15,39,4346
3984,52160759,41,52,4355
3985,52161157,41,52,4355
3986,52161553,49,53,4387
3987,52161963,49,53,4387
3988,52162358,49,53,4387
3989,52162747,42,25,4410
3990,52163141,42,25,4410
3991,52163535,31,8,4384
3992,52163931,31,8,4384
3993,52164334,31,8,4384
3994,52164714,14,24,4361
3995,52165116,14,24,4361
3996,52165511,8,26,4365
3997,52165903,8,26,4365
3998,52166309,8,26,4365
3999,52166694,14,34,4338
4000,52167084,14,34,4338
4001,52167485,14,34,4338
4002,52167874,10,37,4335
4003,52168274,10,37,4335
4004,52168668,-4,27,4348
4005,52169075,-4,27,4348
4006,52169478,-4,27,4348
4007,52169886,-13,38,4326
4008,52170288,-13,38,4326
4009,52170681,-14,46,4353
4010,52171081,-14,46,4353
4011,52171489,-14,46,4353
4012,52171891,-9,68,4373
4013,52172304,-9,68,4373
4014,52172691,9,52,4341
4015,52173087,9,52,4341
4016,52173491,9,52,4341
4017,52173891,-4,34,4338
4018,52174293,-4,34,4338
4019,52174685,-9,48,4361
4020,52175090,-9,48,4361
4021,52175498,-9,48,4361
4022,52175885,25,44,4390
4023,52176271,25,44,4390
4024,52176661,8,40,4373
4025,52177054,8,40,4373
4026,52177449,8,40,4373
4027,52177850,7,37,4348
4028,52178243,7,37,4348
4029,52178641,22,43,4378
4030,52179035,22,43,4378
4031,52179435,22,43,4378
4032,52179828,10,35,4405
4033,52180233,10,35,4405
4034,52180621,-3,30,4398
4035,52181034,-3,30,4398
4036,52181437,-3,30,4398
4037,52181838,13,38,4407
4038,52182232,13,38,4407
4039,52182631,40,37,4402
4040,52183030,40,37,4402
4041,52183431,40,37,4402
4042,52183811,41,37,4387
4043,52184199,41,37,4387
4044,52184592,42,21,4379
4045,52184996,42,21,4379
4046,52185390,42,21,4379
4047,52185792,38,14,4354
4048,52186178,38,14,4354
4049,52186577,25,30,4380
4050,52186976,25,30,4380
4051,52187376,25,30,4380
4052,52187765,32,43,4415
4053,52188173,32,43,4415
4054,52188560,41,39,4373
4055,52188972,41,39,4373
4056,52189359,41,39,4373
4057,52189754,29,42,4357
4058,52190142,29,42,4357
4059,52190548,21,34,4357
4060,52190937,21,34,4357
4061,52191342,21,34,4357
4062,52191722,13,32,4317
4063,52192116,13,32,4317
4064,52192500,13,32,4317
4065,52192868,2,57,4340
4066,52193229,2,57,4340
4067,52193607,1,52,4391
4068,52194005,1,52,4391
4069,52194400,1,52,4391
4070,52194793,18,34,4378
4071,52195181,18,34,4378
4072,52195587,25,25,4375
4073,52195978,25,25,4375
4074,52196378,25,25,4375
4075,52196767,3,42,4395
4076,52197166,3,42,4395
4077,52197560,1,52,4376
4078,52197965,1,52,4376
4079,52198346,1,52,4376
4080,52198742,5,45,4361
4081,52199136,5,45,4361
4082,52199528,-19,47,4372
4083,52199938,-19,47,4372
4084,52200350,-19,47,4372
4085,52200741,-2,33,4396
4086,52201142,-2,33,4396
4087,52201552,15,20,4380
4088,52201955,15,20,4380
4089,52202342,15,20,4380
4090,52202729,-3,51,4340
4091,52203139,-3,51,4340
4092,52203546,26,44,4326
4093,52203935,26,44,4326
4094,52204338,26,44,4326
4095,52204719,26,31,4318
4096,52205122,26,31,4318
4097,52205510,27,58,4337
4098,52205910,27,58,4337
4099,52206316,27,58,4337
4100,52206702,31,69,4343
4101,52207092,31,69,4343
4102,52207499,31,69,4343
4103,52207886,33,57,4332
4104,52208298,33,57,4332
4105,52208685,39,32,4324
4106,52209077,39,32,4324
4107,52209451,39,32,4324
4108,52209813,16,42,4347
4109,52210201,16,42,4347
4110,52210595,22,53,4370
4111,52210992,22,53,4370
4112,52211392,22,53,4370
4113,52211781,29,45,4361
4114,52212182,29,45,4361
4115,52212576,23,45,4382
4116,52212988,23,45,4382
4117,52213376,23,45,4382
4118,52213771,41,56,4425
4119,52214164,41,56,4425
4120,52214571,40,59,4399
4121,52214971,40,59,4399
4122,52215371,40,59,4399
4123,52215754,11,51,4387
4124,52216160,11,51,4387
4125,52216548,28,34,4396
4126,52216960,28,34,4396
4127,52217346,28,34,4396
4128,52217742,18,39,4364
4129,52218130,18,39,4364
4130,52218533,11,47,4357
4131,52218920,11,47,4357
4132,52219324,11,47,4357
4133,52219711,18,36,4371
4134,52220114,18,36,4371
4135,52220502,-5,20,4377
4136,52220917,-5,20,4377
4137,52221323,-5,20,4377
4138,52221715,14,32,4371
4139,52222107,14,32,4371
4140,52222517,4,37,4362
4141,52222912,4,37,4362
4142,52223307,4,37,4362
4143,52223694,2,34,4364
4144,52224098,2,34,4364
4145,52224494,2,34,4364
4146,52224886,35,42,4369
4147,52225285,35,42,4369
4148,52225685,25,44,4364
4149,52226050,25,44,4364
4150,52226433,25,44,4364
4151,52226835,36,65,4363
4152,52227228,36,65,4363
4153,52227623,36,61,4358
4154,52228029,36,61,4358
4155,52228416,36,61,4358
4156,52228823,17,41,4368
4157,52229211,17,41,4368
4158,52229606,2,68,4371
4159,52230004,2,68,4371
4160,52230403,2,68,4371
4161,52230798,7,88,4369
4162,52231205,7,88,4369
4163,52231592,15,69,4352
4164,52232002,15,69,4352
4165,52232396,15,69,4352
4166,52232789,7,64,4343
4167,52233176,7,64,4343
4168,52233576,6,35,4366
4169,52233981,6,35,4366
4170,52234373,6,35,4366
4171,52234763,4,14,4349
4172,52235168,4,14,4349
4173,52235558,14,34,4344
4174,52235962,14,34,4344
4175,52236357,14,34,4344
4176,52236752,1,37,4377
4177,52237126,1,37,4377
4178,52237529,-12,46,4362
4179,52237938,-12,46,4362
4180,52238350,-12,46,4362
4181,52238732,20,45,4345
4182,52239134,20,45,4345
4183,52239535,27,51,4360
4184,52239928,27,51,4360
4185,52240327,27,51,4360
4186,52240719,31,41,4362
4187,52241111,31,41,4362
4188,52241513,46,43,4361
4189,52241907,46,43,4361
4190,52242310,46,43,4361
4191,52242696,30,59,4359
4192,52243093,30,59,4359
4193,52243489,30,59,4359
4194,52243882,31,41,4377
4195,52244276,31,41,4377
4196,52244676,29,37,4394
4197,52245062,29,37,4394
4198,52245472,29,37,4394
4199,52245859,9,41,4373
4200,52246265,9,41,4373
4201,52246653,-7,61,4376
4202,52247058,-7,61,4376
4203,52247462,-7,61,4376
4204,52247869,-1,71,4370
4205,52248256,-1,71,4370
4206,52248650,12,69,4391
4207,52249037,12,69,4391
4208,52249436,12,69,4391
4209,52249832,12,52,4434
4210,52250232,12,52,4434
4211,52250626,-17,33,4419
4212,52251037,-17,33,4419
4213,52251439,-17,33,4419
4214,52251847,-8,45,4405
4215,52252249,-8,45,4405
4216,52252657,22,61,4396
4217,52253049,22,61,4396
4218,52253449,22,61,4396
4219,52253839,5,55,4386
4220,52254245,5,55,4386
4221,52254640,0,47,4385
4222,52255038,0,47,4385
4223,52255431,0,47,4385
4224,52255832,9,52,4348
4225,52256219,9,52,4348
4226,52256619,-2,35,4326
4227,52257027,-2,35,4326
4228,52257435,-2,35,4326
4229,52257838,23,26,4348
4230,52258238,23,26,4348
4231,52258624,43,42,4359
4232,52259031,43,42,4359
4233,52259425,43,42,4359
4234,52259826,32,50,4370
4235,52260220,32,50,4370
4236,52260614,49,53,4395
4237,52261013,49,53,4395
4238,52261405,49,53,4395
4239,52261801,44,54,4433
4240,52262207,44,54,4433
4241,52262602,38,56,4424
4242,52263007,38,56,4424
4243,52263395,38,56,4424
4244,52263796,59,65,4390
4245,52264183,59,65,4390
4246,52264583,42,53,4350
4247,52264988,42,53,4350
4248,52265389,42,53,4350
4249,52265771,7,40,4364
4250,52266178,7,40,4364
4251,52266574,24,37,4380
4252,52266980,24,37,4380
4253,52267367,24,37,4380
4254,52267762,75,31,4367
4255,52268155,75,31,4367
4256,52268555,94,30,4399
4257,52268961,94,30,4399
4258,52269353,94,30,4399
4259,52269743,47,13,4394
4260,52270136,47,13,4394
4261,52270533,-6,38,4387
4262,52270953,-6,38,4387
4263,52271360,-6,38,4387
4264,52271756,-29,55,4384
4265,52272160,-29,55,4384
4266,52272569,-11,33,4378
4267,52272975,-11,33,4378
4268,52273384,-11,33,4378
4269,52273773,41,33,4383
4270,52274178,41,33,4383
4271,52274568,34,42,4394
4272,52274981,34,42,4394
4273,52275367,34,42,4394
4274,52275762,-20,44,4423
4275,52276162,-20,44,4423
4276,52276574,-18,36,4432
4277,52276981,-18,36,4432
4278,52277389,-18,36,4432
4279,52277778,21,53,4385
4280,52278186,21,53,4385
4281,52278580,39,64,4349
4282,52278985,39,64,4349
4283,52279373,39,64,4349
4284,52279768,13,30,4350
4285,52280169,13,30,4350
4286,52280561,-13,8,4316
4287,52280974,-13,8,4316
4288,52281387,-13,8,4316
4289,52281777,0,17,4326
4290,52282183,0,17,4326
4291,52282578,31,35,4342
4292,52282984,31,35,4342
4293,52283370,31,35,4342
4294,52283766,17,43,4331
4295,52284154,17,43,4331
4296,52284555,10,42,4355
4297,52284961,10,42,4355
4298,52285361,10,42,4355
4299,52285745,13,46,4383
4300,52286137,13,46,4383
4301,52286530,-14,50,4367
4302,52286943,-14,50,4367
4303,52287342,-14,50,4367
4304,52287744,-7,48,4348
4305,52288145,-7,48,4348
4306,52288554,3,33,4379
4307,52288942,3,33,4379
4308,52289344,3,33,4379
4309,52289725,8,34,4359
4310,52290129,8,34,4359
4311,52290525,17,37,4346
4312,52290917,17,37,4346
4313,52291324,17,37,4346
4314,52291709,15,35,4388
4315,52292099,15,35,4388
4316,52292498,10,49,4381
4317,52292867,10,49,4381
4318,52293256,10,49,4381
4319,52293648,0,39,4348
4320,52294047,0,39,4348
4321,52294439,0,39,4348
4322,52294843,9,33,4331
4323,52295243,9,33,4331
4324,52295630,11,47,4341
4325,52296035,11,47,4341
4326,52296422,11,47,4341
4327,52296831,20,49,4365
4328,52297218,20,49,4365
4329,52297624,19,34,4360
4330,52298018,19,34,4360
4331,52298412,19,34,4360
4332,52298806,24,38,4336
4333,52299205,24,38,4336
4334,52299598,35,46,4354
4335,52300010,35,46,4354
4336,52300397,35,46,4354
4337,52300799,5,47,4381
4338,52301199,5,47,4381
4339,52301599,-3,43,4370
4340,52302003,-3,43,4370
4341,52302412,-3,43,4370
4342,52302808,11,36,4366
4343,52303207,11,36,4366
4344,52303602,4,43,4370
4345,52304014,4,43,4370
4346,52304400,4,43,4370
4347,52304800,-7,36,4383
4348,52305208,-7,36,4383
4349,52305615,-9,28,4381
4350,52306021,-9,28,4381
4351,52306430,-9,28,4381
4352,52306817,-2,44,4363
4353,52307220,-2,44,4363
4354,52307622,5,50,4363
4355,52308027,5,50,4363
4356,52308409,5,50,4363
4357,52308809,6,43,4398
4358,52309202,6,43,4398
4359,52309589,0,43,4377
4360,52309993,0,43,4377
4361,52310386,0,43,4377
4362,52310774,16,57,4361
4363,52311174,16,57,4361
4364,52311568,27,49,4388
4365,52311973,27,49,4388
4366,52312367,27,49,4388
4367,52312761,9,53,4400
4368,52313149,9,53,4400
4369,52313549,23,71,4383
4370,52313954,23,71,4383
4371,52314353,23,71,4383
4372,52314727,43,53,4365
4373,52315124,43,53,4365
4374,52315526,49,43,4367
4375,52315918,49,43,4367
4376,52316325,49,43,4367
4377,52316710,33,31,4379
4378,52317100,33,31,4379
4379,52317509,26,19,4376
4380,52317905,26,19,4376
4381,52318302,26,19,4376
4382,52318688,30,37,4346
4383,52319092,30,37,4346
4384,52319479,30,37,4346
4385,52319886,50,70,4343
4386,52320273,50,70,4343
4387,52320674,56,58,4356
4388,52321059,56,58,4356
4389,52321469,56,58,4356
4390,52321856,31,49,4364
4391,52322255,31,49,4364
4392,52322657,22,53,4354
4393,52323049,22,53,4354
4394,52323443,22,53,4354
4395,52323843,14,45,4365
4396,52324237,14,45,4365
4397,52324637,21,63,4365
4398,52325028,21,63,4365
4399,52325435,21,63,4365
4400,52325831,37,70,4349
4401,52326226,37,70,4349
4402,52326613,31,39,4362
4403,52327019,31,39,4362
4404,52327410,31,39,4362
4405,52327805,8,22,4371
4406,52328198,8,22,4371
4407,52328599,3,50,4362
4408,52329003,3,50,4362
4409,52329403,3,50,4362
4410,52329793,7,53,4340
4411,52330192,7,53,4340
4412,52330579,8,26,4326
4413,52330989,8,26,4326
4414,52331376,8,26,4326
4415,52331771,20,40,4323
4416,52332165,20,40,4323
4417,52332565,16,46,4331
4418,52332971,16,46,4331
4419,52333364,16,46,4331
4420,52333754,29,11,4343
4421,52334148,29,11,4343
4422,52334548,25,12,4373
4423,52334950,25,12,4373
4424,52335337,25,12,4373
4425,52335723,-1,30,4431
4426,52336121,-1,30,4431
4427,52336535,7,27,4435
4428,52336922,7,27,4435
4429,52337314,7,27,4435
4430,52337702,-21,42,4402
4431,52338114,-21,42,4402
4432,52338517,-24,61,4389
4433,52338926,-24,61,4389
4434,52339331,-24,61,4389
4435,52339725,-28,52,4380
4436,52340135,-28,52,4380
4437,52340543,-20,30,4381
4438,52340951,-20,30,4381
4439,52341359,-20,30,4381
4440,52341750,23,30,4391
4441,52342151,23,30,4391
4442,52342541,24,36,4406
4443,52342926,24,36,4406
4444,52343325,24,36,4406
4445,52343717,33,40,4409
4446,52344107,33,40,4409
4447,52344517,3,54,4391
4448,52344904,3,54,4391
4449,52345290,3,54,4391
4450,52345684,-12,55,4380
4451,52346087,-12,55,4380
4452,52346491,7,41,4383
4453,52346890,7,41,4383
4454,52347277,7,41,4383
4455,52347677,28,29,4392
4456,52348062,28,29,4392
4457,52348471,28,29,4392
4458,52348859,34,35,4384
4459,52349266,34,35,4384
4460,52349653,9,32,4411
4461,52350060,9,32,4411
4462,52350454,9,32,4411
4463,52350848,10,23,4407
4464,52351242,10,23,4407
4465,52351641,41,19,4383
4466,52352040,41,19,4383
4467,52352439,41,19,4383
4468,52352828,37,58,4368
4469,52353235,37,58,4368
4470,52353622,3,61,4341
4471,52354029,3,61,4341
4472,52354416,3,61,4341
4473,52354815,-11,13,4370
4474,52355222,-11,13,4370
4475,52355630,20,23,4363
4476,52356029,20,23,4363
4477,52356421,20,23,4363
4478,52356816,41,46,4362
4479,52357224,41,46,4362
4480,52357612,33,49,4380
4481,52358023,33,49,4380
4482,52358417,33,49,4380
4483,52358811,43,66,4396
4484,52359203,43,66,4396
4485,52359592,46,45,4447
4486,52359998,46,45,4447
4487,52360390,46,45,4447
4488,52360779,35,22,4429
4489,52361180,35,22,4429
4490,52361575,10,35,4390
4491,52361979,10,35,4390
4492,52362373,10,35,4390
4493,52362768,-15,30,4366
4494,52363176,-15,30,4366
4495,52363584,-9,41,4367
4496,52363991,-9,41,4367
4497,52364400,-9,41,4367
4498,52364795,21,39,4395
4499,52365201,21,39,4395
4500,52365597,50,39,4380
4501,52365999,50,39,4380
4502,52366387,50,39,4380
4503,52366781,32,46,4365
4504,52367176,32,46,4365
4505,52367583,16,35,4357
4506,52367983,16,35,4357
4507,52368381,16,35,4357
4508,52368763,2,45,4388
4509,52369163,2,45,4388
4510,52369558,-11,63,4407
4511,52369978,-11,63,4407
4512,52370380,-11,63,4407
4513,52370776,11,63,4365
4514,52371169,11,63,4365
4515,52371570,-5,44,4359
4516,52371984,-5,44,4359
4517,52372393,-5,44,4359
4518,52372789,-15,29,4344
4519,52373196,-15,29,4344
4520,52373598,13,30,4340
4521,52374000,13,30,4340
4522,52374386,13,30,4340
4523,52374788,10,43,4380
4524,52375175,10,43,4380
4525,52375575,0,53,4378
4526,52375965,0,53,4378
4527,52376352,0,53,4378
4528,52376733,30,38,4370
4529,52377135,30,38,4370
4530,52377529,45,26,4356
4531,52377928,45,26,4356
4532,52378327,45,26,4356
4533,52378720,40,27,4352
4534,52379111,40,27,4352
4535,52379518,43,21,4364
4536,52379905,43,21,4364
4537,52380313,43,21,4364
4538,52380694,28,43,4360
4539,52381090,28,43,4360
4540,52381484,18,54,4355
4541,52381883,18,54,4355
4542,52382277,18,54,4355
4543,52382677,29,30,4372
4544,52383062,29,30,4372
4545,52383465,29,30,4372
4546,52383859,25,42,4374
4547,52384259,25,42,4374
4548,52384654,6,48,4354
4549,52385050,6,48,4354
4550,52385437,6,48,4354
4551,52385837,10,39,4352
4552,52386233,10,39,4352
4553,52386618,18,38,4346
4554,52387011,18,38,4346
4555,52387404,18,38,4346
4556,52387798,16,43,4349
4557,52388205,16,43,4349
4558,52388599,22,37,4374
4559,52389002,22,37,4374
4560,52389389,22,37,4374
4561,52389791,14,40,4346
4562,52390186,14,40,4346
4563,52390581,0,65,4348
4564,52390980,0,65,4348
4565,52391379,0,65,4348
4566,52391760,18,49,4375
4567,52392167,18,49,4375
4568,52392556,28,49,4350
4569,52392924,28,49,4350
4570,52393310,28,49,4350
4571,52393703,-5,62,4355
4572,52394108,-5,62,4355
4573,52394517,7,55,4389
4574,52394911,7,55,4389
4575,52395307,7,55,4389
4576,52395693,19,56,4384
4577,52396095,19,56,4384
4578,52396491,-1,49,4325
4579,52396898,-1,49,4325
4580,52397304,-1,49,4325
4581,52397705,9,35,4334
4582,52398101,9,35,4334
4583,52398493,22,30,4381
4584,52398887,22,30,4381
4585,52399291,22,30,4381
4586,52399685,41,43,4390
4587,52400084,41,43,4390
4588,52400472,41,43,4390
4589,52400872,39,62,4371
4590,52401266,39,62,4371
4591,52401665,20,52,4362
4592,52402051,20,52,4362
4593,52402451,20,52,4362
4594,52402845,34,42,4382
4595,52403245,34,42,4382
4596,52403639,39,61,4370
4597,52404018,39,61,4370
4598,52404379,39,61,4370
4599,52404762,3,51,4357
4600,52405162,3,51,4357
4601,52405557,-15,60,4359
4602,52405977,-15,60,4359
4603,52406371,-15,60,4359
4604,52406760,4,74,4339
4605,52407154,4,74,4339
4606,52407554,15,52,4369
4607,52407959,15,52,4369
4608,52408352,15,52,4369
4609,52408733,31,44,4390
4610,52409141,31,44,4390
4611,52409536,53,35,4391
4612,52409936,53,35,4391
4613,52410328,53,35,4391
4614,52410719,44,36,4369
4615,52411109,44,36,4369
4616,52411510,14,61,4317
4617,52411904,14,61,4317
4618,52412308,14,61,4317
4619,52412695,12,82,4345
4620,52413092,12,82,4345
4621,52413487,14,75,4372
4622,52413887,14,75,4372
4623,52414287,14,75,4372
4624,52414678,28,65,4413
4625,52415064,28,65,4413
4626,52415465,28,65,4413
4627,52415854,26,40,4401
4628,52416254,26,40,4401
4629,52416648,4,30,4357
4630,52417035,4,30,4357
4631,52417430,4,30,4357
4632,52417831,7,48,4379
4633,52418219,7,48,4379
4634,52418625,16,59,4380
4635,52419018,16,59,4380
4636,52419419,16,59,4380
4637,52419809,18,60,4346
4638,52420214,18,60,4346
4639,52420601,11,52,4363
4640,52421013,11,52,4363
4641,52421393,11,52,4363
4642,52421797,18,63,4385
4643,52422191,18,63,4385
4644,52422583,27,53,4349
4645,52422990,27,53,4349
4646,52423383,27,53,4349
4647,52423772,29,30,4360
4648,52424159,29,30,4360
4649,52424556,31,39,4381
4650,52424961,31,39,4381
4651,52425348,31,39,4381
4652,52425735,25,60,4378
4653,52426123,25,60,4378
4654,52426519,10,56,4388
4655,52426906,10,56,4388
4656,52427309,10,56,4388
4657,52427697,-2,59,4394
4658,52428106,-2,59,4394
4659,52428501,-22,58,4363
4660,52428916,-22,58,4363
4661,52429320,-22,58,4363
4662,52429713,0,33,4350
4663,52430104,0,33,4350
4664,52430504,29,30,4367
4665,52430898,29,30,4367
4666,52431308,29,30,4367
4667,52431688,27,34,4346
4668,52432092,27,34,4346
4669,52432480,18,41,4349
4670,52432881,18,41,4349
4671,52433268,18,41,4349
4672,52433667,13,33,4395
4673,52434053,13,33,4395
4674,52434453,13,33,4395
4675,52434854,49,16,4393
4676,52435255,49,16,4393
4677,52435647,62,40,4353
4678,52436039,62,40,4353
4679,52436446,62,40,4353
4680,52436836,26,46,4361
4681,52437242,26,46,4361
4682,52437629,17,38,4405
4683,52438033,17,38,4405
4684,52438427,17,38,4405
4685,52438827,31,50,4404
4686,52439215,31,50,4404
4687,52439621,21,59,4405
4688,52440021,21,59,4405
4689,52440421,21,59,4405
4690,52440809,7,61,4383
4691,52441214,7,61,4383
4692,52441602,-6,45,4377
4693,52442012,-6,45,4377
4694,52442407,-6,45,4377
4695,52442815,-6,21,4365
4696,52443223,-6,21,4365
4697,52443629,-18,28,4365
4698,52444036,-18,28,4365
