row,seconds,esp32_index,micros,ax,ay,az
1,0.000000,70,170274468,-6283,2517,4794
2,0.000397,71,170274865,-6283,2517,4794
3,0.000796,72,170275264,-5300,1738,5890
4,0.001199,73,170275667,-5300,1738,5890
5,0.001601,74,170276069,-8761,845,5780
6,0.002003,75,170276471,-8761,845,5780
7,0.002393,76,170276861,-8761,845,5780
8,0.002799,77,170277267,-6104,-806,3352
9,0.003216,78,170277684,-6104,-806,3352
10,0.003627,79,170278095,-3347,-1930,2265
11,0.004031,80,170278499,-3347,-1930,2265
12,0.004448,81,170278916,-3347,-1930,2265
13,0.004859,82,170279327,956,-2500,3043
14,0.005252,83,170279720,956,-2500,3043
15,0.005654,84,170280122,5165,-3042,3952
16,0.006051,85,170280519,5165,-3042,3952
17,0.006456,86,170280924,5726,-3316,4928
18,0.006858,87,170281326,5726,-3316,4928
19,0.007260,88,170281728,5726,-3316,4928
20,0.007662,89,170282130,6529,-3469,6412
21,0.008056,90,170282524,6529,-3469,6412
22,0.008467,91,170282935,6423,-3086,7038
23,0.008862,92,170283330,6423,-3086,7038
24,0.009265,93,170283733,6423,-3086,7038
25,0.009667,94,170284135,6253,-2386,5457
26,0.010061,95,170284529,6253,-2386,5457
27,0.010472,96,170284940,7305,-1662,4150
28,0.010867,97,170285335,7305,-1662,4150
29,0.011269,98,170285737,7305,-1662,4150
30,0.011672,99,170286140,7791,-1243,3406
31,0.012067,100,170286535,7791,-1243,3406
32,0.012485,101,170286953,7088,-1758,1889
33,0.012880,102,170287348,7088,-1758,1889
34,0.013283,103,170287751,7088,-1758,1889
35,0.013694,104,170288162,790,-2115,2035
36,0.014084,105,170288552,790,-2115,2035
37,0.014492,106,170288960,-4520,-1627,4012
38,0.014901,107,170289369,-4520,-1627,4012
39,0.015311,108,170289779,-4520,-1627,4012
40,0.015722,109,170290190,-1699,-1389,5550
41,0.016119,110,170290587,-1699,-1389,5550
42,0.016542,111,170291010,109,-1142,6467
43,0.016937,112,170291405,109,-1142,6467
44,0.017343,113,170291811,109,-1142,6467
45,0.017745,114,170292213,1872,-753,6797
46,0.018148,115,170292616,1872,-753,6797
47,0.018554,116,170293022,3385,-153,6444
48,0.018959,117,170293427,3385,-153,6444
49,0.019354,118,170293822,3385,-153,6444
50,0.019757,119,170294225,3553,515,6010
51,0.020152,120,170294620,3553,515,6010
52,0.020549,121,170295017,5875,693,4890
53,0.020941,122,170295409,5875,693,4890
54,0.021330,123,170295798,5875,693,4890
55,0.021725,124,170296193,2424,1092,3413
56,0.022113,125,170296581,2424,1092,3413
57,0.022513,126,170296981,-1065,1717,2830
58,0.022915,127,170297383,-1065,1717,2830
59,0.023318,128,170297786,-1065,1717,2830
60,0.023721,129,170298189,-5810,2115,3192
61,0.024118,130,170298586,-5810,2115,3192
62,0.024533,131,170299001,-12850,2964,2613
63,0.024928,132,170299396,-12850,2964,2613
64,0.025331,133,170299799,-12850,2964,2613
65,0.025734,134,170300202,-7383,3396,1023
66,0.026137,135,170300605,-7383,3396,1023
67,0.026536,136,170301004,-1203,3737,2028
68,0.026938,137,170301406,-1203,3737,2028
69,0.027340,138,170301808,-1203,3737,2028
70,0.027743,139,170302211,-920,4456,4572
71,0.028146,140,170302614,-920,4456,4572
72,0.028560,141,170303028,-2301,4406,5454
73,0.028955,142,170303423,-2301,4406,5454
74,0.029353,143,170303821,-2301,4406,5454
75,0.029754,144,170304222,-7561,3863,5025
76,0.030157,145,170304625,-7561,3863,5025
77,0.030562,146,170305030,-7254,2678,4597
78,0.030962,147,170305430,-7254,2678,4597
79,0.031359,148,170305827,-7254,2678,4597
80,0.031762,149,170306230,-5638,2008,5558
81,0.032165,150,170306633,-5638,2008,5558
82,0.032571,151,170307039,-8735,1373,6170
83,0.032975,152,170307443,-8735,1373,6170
84,0.033373,153,170307841,-8735,1373,6170
85,0.033775,154,170308243,-6111,-390,4111
86,0.034193,155,170308661,-6111,-390,4111
87,0.034603,156,170309071,-4058,-1722,2273
88,0.035007,157,170309475,-4058,-1722,2273
89,0.035413,158,170309881,-4058,-1722,2273
90,0.035826,159,170310294,-1088,-2278,2713
91,0.036236,160,170310704,-1088,-2278,2713
92,0.036646,161,170311114,4670,-2934,3954
93,0.037034,162,170311502,4670,-2934,3954
94,0.037431,163,170311899,4670,-2934,3954
95,0.037838,164,170312306,5847,-3330,4614
96,0.038241,165,170312709,5847,-3330,4614
97,0.038644,166,170313112,6127,-3502,5892
98,0.039039,167,170313507,6127,-3502,5892
99,0.039440,168,170313908,6616,-3344,7230
100,0.039845,169,170314313,6616,-3344,7230
101,0.040248,170,170314716,6616,-3344,7230
102,0.040652,171,170315120,6437,-2512,5985
103,0.041047,172,170315515,6437,-2512,5985
104,0.041460,173,170315928,6904,-1912,4521
105,0.041855,174,170316323,6904,-1912,4521
106,0.042258,175,170316726,6904,-1912,4521
107,0.042660,176,170317128,7440,-1301,3669
108,0.043057,177,170317525,7440,-1301,3669
109,0.043461,178,170317929,8072,-1559,2133
110,0.043872,179,170318340,8072,-1559,2133
111,0.044267,180,170318735,8072,-1559,2133
112,0.044669,181,170319137,3573,-2141,1905
113,0.045060,182,170319528,3573,-2141,1905
114,0.045464,183,170319932,-4174,-1762,3559
115,0.045882,184,170320350,-4174,-1762,3559
116,0.046292,185,170320760,-4174,-1762,3559
117,0.046703,186,170321171,-3000,-1496,4998
118,0.047099,187,170321567,-3000,-1496,4998
119,0.047518,188,170321986,37,-1339,6107
120,0.047914,189,170322382,37,-1339,6107
121,0.048316,190,170322784,37,-1339,6107
122,0.048718,191,170323186,1235,-858,6855
123,0.049115,192,170323583,1235,-858,6855
124,0.049530,193,170323998,3002,-332,6532
125,0.049925,194,170324393,3002,-332,6532
126,0.050328,195,170324796,3002,-332,6532
127,0.050730,196,170325198,2982,282,6061
128,0.051119,197,170325587,2982,282,6061
129,0.051517,198,170325985,5684,627,5287
130,0.051912,199,170326380,5684,627,5287
131,0.052307,200,170326775,5684,627,5287
132,0.052701,201,170327169,4887,816,3771
133,0.053091,202,170327559,4887,816,3771
134,0.053483,203,170327951,433,1499,3034
135,0.053877,204,170328345,433,1499,3034
136,0.054272,205,170328740,433,1499,3034
137,0.054666,206,170329134,-6051,2182,3107
138,0.055061,207,170329529,-6051,2182,3107
139,0.055464,208,170329932,-12778,2828,2869
140,0.055875,209,170330343,-12778,2828,2869
141,0.056271,210,170330739,-12778,2828,2869
142,0.056673,211,170331141,-7029,3070,1699
143,0.057062,212,170331530,-7029,3070,1699
144,0.057466,213,170331934,-1241,3416,1497
145,0.057877,214,170332345,-1241,3416,1497
146,0.058272,215,170332740,-1241,3416,1497
147,0.058675,216,170333143,-2889,4435,3679
148,0.059065,217,170333533,-2889,4435,3679
149,0.059476,218,170333944,-2111,4632,5278
150,0.059872,219,170334340,-2111,4632,5278
151,0.060274,220,170334742,-2111,4632,5278
152,0.060675,221,170335143,-5138,4024,5200
153,0.061067,222,170335535,-5138,4024,5200
154,0.061485,223,170335953,-8090,3121,4706
155,0.061880,224,170336348,-8090,3121,4706
156,0.062283,225,170336751,-8090,3121,4706
157,0.062680,226,170337148,-5717,2242,5208
158,0.063068,227,170337536,-5717,2242,5208
159,0.063481,228,170337949,-8290,1632,6124
160,0.063875,229,170338343,-8290,1632,6124
161,0.064278,230,170338746,-8290,1632,6124
162,0.064682,231,170339150,-7395,191,4828
163,0.065070,232,170339538,-7395,191,4828
164,0.065474,233,170339942,-4564,-1358,2625
165,0.065892,234,170340360,-4564,-1358,2625
166,0.066302,235,170340770,-4564,-1358,2625
167,0.066712,236,170341180,-2413,-2101,2515
168,0.067109,237,170341577,-2413,-2101,2515
169,0.067526,238,170341994,4012,-2822,3605
170,0.067920,239,170342388,4012,-2822,3605
171,0.068323,240,170342791,4012,-2822,3605
172,0.068726,241,170343194,5794,-3206,4151
173,0.069123,242,170343591,5794,-3206,4151
174,0.069530,243,170343998,5512,-3414,5342
175,0.069933,244,170344401,5512,-3414,5342
176,0.070336,245,170344804,5512,-3414,5342
177,0.070739,246,170345207,6873,-3377,7052
178,0.071143,247,170345611,6873,-3377,7052
179,0.071549,248,170346017,6597,-2759,6659
180,0.071945,249,170346413,6597,-2759,6659
181,0.072348,250,170346816,6597,-2759,6659
182,0.072751,251,170347219,6019,-2150,4824
183,0.073155,252,170347623,6019,-2150,4824
184,0.073561,253,170348029,6722,-1427,3770
185,0.073971,254,170348439,6722,-1427,3770
186,0.074360,255,170348828,6722,-1427,3770
187,0.074762,256,170349230,8203,-1307,2729
188,0.075164,257,170349632,8203,-1307,2729
189,0.075570,258,170350038,5968,-1947,1953
190,0.075975,259,170350443,5968,-1947,1953
191,0.076372,260,170350840,5968,-1947,1953
192,0.076782,261,170351250,-2528,-1900,2813
193,0.077191,262,170351659,-2528,-1900,2813
194,0.077602,263,170352070,-4115,-1640,4310
195,0.078005,264,170352473,-4115,-1640,4310
196,0.078410,265,170352878,-4115,-1640,4310
197,0.078830,266,170353298,-93,-1469,5772
198,0.079238,267,170353706,-93,-1469,5772
199,0.079649,268,170354117,1046,-974,6895
200,0.080037,269,170354505,1046,-974,6895
201,0.080438,270,170354906,2688,-503,6794
202,0.080843,271,170355311,2688,-503,6794
203,0.081245,272,170355713,2688,-503,6794
204,0.081643,273,170356111,2701,100,6125
205,0.082025,274,170356493,2701,100,6125
206,0.082417,275,170356885,2701,100,6125
207,0.082815,276,170357283,4367,517,5687
208,0.083209,277,170357677,4367,517,5687
209,0.083604,278,170358072,6237,810,4510
210,0.084000,279,170358468,6237,810,4510
211,0.084382,280,170358850,6237,810,4510
212,0.084777,281,170359245,798,1482,3226
213,0.085172,282,170359640,798,1482,3226
214,0.085564,283,170360032,-3423,1804,2796
215,0.085970,284,170360438,-3423,1804,2796
216,0.086367,285,170360835,-3423,1804,2796
217,0.086769,286,170361237,-10120,2496,2870
218,0.087173,287,170361641,-10120,2496,2870
219,0.087577,288,170362045,-10445,3129,2301
220,0.087979,289,170362447,-10445,3129,2301
221,0.088376,290,170362844,-10445,3129,2301
222,0.088779,291,170363247,-3056,3409,1257
223,0.089181,292,170363649,-3056,3409,1257
224,0.089584,293,170364052,-2370,4171,2619
225,0.089987,294,170364455,-2370,4171,2619
226,0.090384,295,170364852,-2370,4171,2619
227,0.090790,296,170365258,-1105,4419,5025
228,0.091193,297,170365661,-1105,4419,5025
229,0.091595,298,170366063,-3415,4226,5486
230,0.091999,299,170366467,-3415,4226,5486
231,0.092389,300,170366857,-3415,4226,5486
232,0.092797,301,170367265,-8924,3614,4949
233,0.093199,302,170367667,-8924,3614,4949
234,0.093602,303,170368070,-6133,2475,4968
235,0.094005,304,170368473,-6133,2475,4968
236,0.094395,305,170368863,-6133,2475,4968
237,0.094800,306,170369268,-5800,1704,5947
238,0.095203,307,170369671,-5800,1704,5947
239,0.095606,308,170370074,-9078,742,5523
240,0.096010,309,170370478,-9078,742,5523
241,0.096399,310,170370867,-9078,742,5523
242,0.096805,311,170371273,-6100,-961,3241
243,0.097215,312,170371683,-6100,-961,3241
244,0.097620,313,170372088,-2893,-1959,2381
245,0.098025,314,170372493,-2893,-1959,2381
246,0.098429,315,170372897,2017,-2585,3199
247,0.098829,316,170373297,2017,-2585,3199
248,0.099232,317,170373700,2017,-2585,3199
249,0.099629,318,170374097,5162,-3093,4036
250,0.100026,319,170374494,5162,-3093,4036
251,0.100414,320,170374882,5162,-3093,4036
252,0.100821,321,170375289,5577,-3359,4969
253,0.101224,322,170375692,5577,-3359,4969
254,0.101627,323,170376095,6645,-3452,6377
255,0.102031,324,170376499,6645,-3452,6377
256,0.102429,325,170376897,6757,-3017,6913
257,0.102828,326,170377296,6757,-3017,6913
258,0.103231,327,170377699,6757,-3017,6913
259,0.103634,328,170378102,6430,-2332,5366
260,0.104037,329,170378505,6430,-2332,5366
261,0.104435,330,170378903,6583,-1632,3931
262,0.104840,331,170379308,6583,-1632,3931
263,0.105243,332,170379711,6583,-1632,3931
264,0.105640,333,170380108,7456,-1291,3213
265,0.106038,334,170380506,7456,-1291,3213
266,0.106438,335,170380906,7379,-1741,2164
267,0.106845,336,170381313,7379,-1741,2164
268,0.107254,337,170381722,7379,-1741,2164
269,0.107649,338,170382117,547,-2082,2365
270,0.108044,339,170382512,547,-2082,2365
271,0.108455,340,170382923,-4692,-1727,3975
272,0.108858,341,170383326,-4692,-1727,3975
273,0.109268,342,170383736,-4692,-1727,3975
274,0.109686,343,170384154,-1771,-1415,5415
275,0.110085,344,170384553,-1771,-1415,5415
276,0.110495,345,170384963,462,-1169,6418
277,0.110890,346,170385358,462,-1169,6418
278,0.111292,347,170385760,462,-1169,6418
279,0.111695,348,170386163,2540,-748,6785
280,0.112092,349,170386560,2540,-748,6785
281,0.112491,350,170386959,3005,-64,6399
282,0.112893,351,170387361,3005,-64,6399
283,0.113296,352,170387764,3005,-64,6399
284,0.113697,353,170388165,3243,543,5964
285,0.114088,354,170388556,3243,543,5964
286,0.114480,355,170388948,6334,728,4885
287,0.114874,356,170389342,6334,728,4885
288,0.115269,357,170389737,6334,728,4885
289,0.115663,358,170390131,2188,1187,3475
290,0.116050,359,170390518,2188,1187,3475
291,0.116447,360,170390915,-1250,1746,2947
292,0.116844,361,170391312,-1250,1746,2947
293,0.117247,362,170391715,-1250,1746,2947
294,0.117649,363,170392117,-6063,2048,3133
295,0.118044,364,170392512,-6063,2048,3133
296,0.118448,365,170392916,-13215,2987,2275
297,0.118851,366,170393319,-13215,2987,2275
298,0.119254,367,170393722,-13215,2987,2275
299,0.119664,368,170394132,-6984,3461,933
300,0.120052,369,170394520,-6984,3461,933
301,0.120456,370,170394924,-1092,3856,2218
302,0.120861,371,170395329,-1092,3856,2218
303,0.121256,372,170395724,-1092,3856,2218
304,0.121653,373,170396121,-980,4425,4607
305,0.122051,374,170396519,-980,4425,4607
306,0.122463,375,170396931,-2566,4314,5418
307,0.122858,376,170397326,-2566,4314,5418
308,0.123261,377,170397729,-2566,4314,5418
309,0.123658,378,170398126,-7718,3872,5126
310,0.124047,379,170398515,-7718,3872,5126
311,0.124449,380,170398917,-6862,2709,4843
312,0.124847,381,170399315,-6862,2709,4843
313,0.125244,382,170399712,-6862,2709,4843
314,0.125647,383,170400115,-5353,1986,5769
315,0.126041,384,170400509,-5353,1986,5769
316,0.126441,385,170400909,-8758,1197,6058
317,0.126849,386,170401317,-8758,1197,6058
318,0.127251,387,170401719,-8758,1197,6058
319,0.127645,388,170402113,-6427,-600,3748
320,0.128025,389,170402493,-6427,-600,3748
321,0.128429,390,170402897,-4044,-1725,2286
322,0.128843,391,170403311,-4044,-1725,2286
323,0.129253,392,170403721,-4044,-1725,2286
324,0.129664,393,170404132,-527,-2256,3014
325,0.130059,394,170404527,-527,-2256,3014
326,0.130477,395,170404945,4729,-3015,3776
327,0.130882,396,170405350,4729,-3015,3776
328,0.131284,397,170405752,4729,-3015,3776
329,0.131688,398,170406156,5654,-3397,4324
330,0.132069,399,170406537,5654,-3397,4324
331,0.132481,400,170406949,6177,-3459,6059
332,0.132867,401,170407335,6177,-3459,6059
333,0.133236,402,170407704,6177,-3459,6059
334,0.133606,403,170408074,6753,-3183,7370
335,0.133977,404,170408445,6753,-3183,7370
336,0.134347,405,170408815,6753,-3183,7370
337,0.134733,406,170409201,6623,-2543,5905
338,0.135102,407,170409570,6623,-2543,5905
339,0.135477,408,170409945,6855,-1891,4325
340,0.135846,409,170410314,6855,-1891,4325
341,0.136232,410,170410700,6855,-1891,4325
342,0.136612,411,170411080,7379,-1314,3555
343,0.136983,412,170411451,7379,-1314,3555
344,0.137352,413,170411820,7379,-1314,3555
345,0.137722,414,170412190,7918,-1519,2303
346,0.138108,415,170412576,7918,-1519,2303
347,0.138503,416,170412971,3089,-2046,2060
348,0.138873,417,170413341,3089,-2046,2060
349,0.139242,418,170413710,3089,-2046,2060
350,0.139627,419,170414095,-4171,-1808,3297
351,0.140006,420,170414474,-4171,-1808,3297
352,0.140383,421,170414851,-4171,-1808,3297
353,0.140760,422,170415228,-3080,-1444,4791
354,0.141138,423,170415606,-3080,-1444,4791
355,0.141544,424,170416012,-22,-1256,6288
356,0.141927,425,170416395,-22,-1256,6288
357,0.142303,426,170416771,-22,-1256,6288
358,0.142696,427,170417164,1620,-816,7014
359,0.143066,428,170417534,1620,-816,7014
360,0.143435,429,170417903,2937,-291,6528
361,0.143808,430,170418276,2937,-291,6528
362,0.144178,431,170418646,2937,-291,6528
363,0.144550,432,170419018,3002,354,6070
364,0.144924,433,170419392,3002,354,6070
365,0.145286,434,170419754,3002,354,6070
366,0.145663,435,170420131,5686,666,5401
367,0.146040,436,170420508,5686,666,5401
368,0.146402,437,170420870,5686,666,5401
369,0.146769,438,170421237,4581,914,3771
370,0.147131,439,170421599,4581,914,3771
371,0.147497,440,170421965,596,1509,2921
372,0.147859,441,170422327,596,1509,2921
373,0.148237,442,170422705,596,1509,2921
374,0.148618,443,170423086,-6266,2184,2843
375,0.148994,444,170423462,-6266,2184,2843
376,0.149363,445,170423831,-6266,2184,2843
377,0.149749,446,170424217,-13188,2806,2548
378,0.150124,447,170424592,-13188,2806,2548
379,0.150498,448,170424966,-7197,3080,1485
380,0.150868,449,170425336,-7197,3080,1485
381,0.151238,450,170425706,-7197,3080,1485
382,0.151607,451,170426075,-1074,3412,1613
383,0.151991,452,170426459,-1074,3412,1613
384,0.152361,453,170426829,-1074,3412,1613
385,0.152730,454,170427198,-2086,4390,4065
386,0.153099,455,170427567,-2086,4390,4065
387,0.153474,456,170427942,-1686,4669,5593
388,0.153873,457,170428341,-1686,4669,5593
389,0.154269,458,170428737,-1686,4669,5593
390,0.154679,459,170429147,-5387,3933,5499
391,0.155067,460,170429535,-5387,3933,5499
392,0.155485,461,170429953,-7713,3070,4833
393,0.155879,462,170430347,-7713,3070,4833
394,0.156282,463,170430750,-7713,3070,4833
395,0.156685,464,170431153,-5591,2200,5199
396,0.157085,465,170431553,-5591,2200,5199
397,0.157487,466,170431955,-9029,1611,6000
398,0.157882,467,170432350,-9029,1611,6000
399,0.158285,468,170432753,-9029,1611,6000
400,0.158695,469,170433163,-7683,101,4522
401,0.159086,470,170433554,-7683,101,4522
402,0.159494,471,170433962,-4967,-1476,2461
403,0.159904,472,170434372,-4967,-1476,2461
404,0.160308,473,170434776,-4967,-1476,2461
405,0.160719,474,170435187,-2471,-2201,2471
406,0.161116,475,170435584,-2471,-2201,2471
407,0.161498,476,170435966,4346,-2913,3704
408,0.161868,477,170436336,4346,-2913,3704
409,0.162275,478,170436743,4346,-2913,3704
410,0.162671,479,170437139,6042,-3242,4480
411,0.163066,480,170437534,6042,-3242,4480
412,0.163484,481,170437952,5564,-3487,5478
413,0.163881,482,170438349,5564,-3487,5478
414,0.164278,483,170438746,5564,-3487,5478
415,0.164683,484,170439151,7144,-3420,6995
416,0.165071,485,170439539,7144,-3420,6995
417,0.165488,486,170439956,7452,-2795,6523
418,0.165891,487,170440359,7452,-2795,6523
419,0.166293,488,170440761,7452,-2795,6523
420,0.166696,489,170441164,6700,-2167,4614
421,0.167087,490,170441555,6700,-2167,4614
422,0.167494,491,170441962,6682,-1454,3624
423,0.167898,492,170442366,6682,-1454,3624
424,0.168301,493,170442769,6682,-1454,3624
425,0.168696,494,170443164,7899,-1395,2729
426,0.169091,495,170443559,7899,-1395,2729
427,0.169500,496,170443968,5007,-1986,2130
428,0.169895,497,170444363,5007,-1986,2130
429,0.170300,498,170444768,5007,-1986,2130
430,0.170702,499,170445170,-3322,-1833,2988
431,0.171101,500,170445569,-3322,-1833,2988
432,0.171512,501,170445980,-4076,-1515,4472
433,0.171917,502,170446385,-4076,-1515,4472
434,0.172328,503,170446796,-4076,-1515,4472
435,0.172739,504,170447207,-507,-1351,5983
436,0.173143,505,170447611,-507,-1351,5983
437,0.173557,506,170448025,957,-825,6905
438,0.173954,507,170448422,957,-825,6905
439,0.174350,508,170448818,957,-825,6905
440,0.174752,509,170449220,3101,-373,6658
441,0.175154,510,170449622,3101,-373,6658
442,0.175568,511,170450036,3150,257,6215
443,0.175959,512,170450427,3150,257,6215
444,0.176348,513,170450816,3150,257,6215
445,0.176742,514,170451210,5141,634,5649
446,0.177137,515,170451605,5141,634,5649
447,0.177529,516,170451997,5927,785,4106
448,0.177903,517,170452371,5927,785,4106
449,0.178281,518,170452749,5927,785,4106
450,0.178671,519,170453139,982,1434,3040
451,0.179052,520,170453520,982,1434,3040
452,0.179449,521,170453917,-4651,1907,2840
453,0.179838,522,170454306,-4651,1907,2840
454,0.180248,523,170454716,-4651,1907,2840
455,0.180650,524,170455118,-11909,2688,2709
456,0.181040,525,170455508,-11909,2688,2709
457,0.181440,526,170455908,-8809,3013,1978
458,0.181846,527,170456314,-8809,3013,1978
459,0.182248,528,170456716,-8809,3013,1978
460,0.182653,529,170457121,-2377,3322,1318
461,0.183041,530,170457509,-2377,3322,1318
462,0.183441,531,170457909,-3077,4325,3160
463,0.183854,532,170458322,-3077,4325,3160
464,0.184249,533,170458717,-3077,4325,3160
465,0.184651,534,170459119,-1384,4541,5340
466,0.185046,535,170459514,-1384,4541,5340
467,0.185459,536,170459927,-3849,4165,5593
468,0.185861,537,170460329,-3849,4165,5593
469,0.186256,538,170460724,-3849,4165,5593
470,0.186650,539,170461118,-8171,3314,5044
471,0.187047,540,170461515,-8171,3314,5044
472,0.187457,541,170461925,-5234,2248,5111
473,0.187860,542,170462328,-5234,2248,5111
474,0.188254,543,170462722,-5234,2248,5111
475,0.188652,544,170463120,-6763,1598,6042
476,0.189047,545,170463515,-6763,1598,6042
477,0.189456,546,170463924,-8587,445,5184
478,0.189851,547,170464319,-8587,445,5184
479,0.190253,548,170464721,-8587,445,5184
480,0.190655,549,170465123,-5623,-1132,2868
481,0.191059,550,170465527,-5623,-1132,2868
482,0.191479,551,170465947,-2996,-1998,2400
483,0.191889,552,170466357,-2996,-1998,2400
484,0.192299,553,170466767,-2996,-1998,2400
485,0.192710,554,170467178,3057,-2711,3359
486,0.193101,555,170467569,3057,-2711,3359
487,0.193509,556,170467977,5327,-3107,4032
488,0.193912,557,170468380,5327,-3107,4032
489,0.194307,558,170468775,5327,-3107,4032
490,0.194696,559,170469164,5218,-3329,5183
491,0.195095,560,170469563,5218,-3329,5183
492,0.195496,561,170469964,6958,-3427,6824
493,0.195899,562,170470367,6958,-3427,6824
494,0.196294,563,170470762,6958,-3427,6824
495,0.196704,564,170471172,7017,-2905,6899
496,0.197095,565,170471563,7017,-2905,6899
497,0.197502,566,170471970,6198,-2248,5162
498,0.197904,567,170472372,6198,-2248,5162
499,0.198308,568,170472776,6198,-2248,5162
500,0.198703,569,170473171,6763,-1580,3869
501,0.199099,570,170473567,6763,-1580,3869
502,0.199508,571,170473976,7866,-1329,2932
503,0.199910,572,170474378,7866,-1329,2932
504,0.200314,573,170474782,7866,-1329,2932
505,0.200716,574,170475184,6537,-1908,1910
506,0.201106,575,170475574,6537,-1908,1910
507,0.201521,576,170475989,-1239,-2010,2464
508,0.201932,577,170476400,-1239,-2010,2464
509,0.202343,578,170476811,-1239,-2010,2464
510,0.202754,579,170477222,-4699,-1614,4153
511,0.203158,580,170477626,-4699,-1614,4153
512,0.203567,581,170478035,-1125,-1440,5717
513,0.203986,582,170478454,-1125,-1440,5717
514,0.204384,583,170478852,-1125,-1440,5717
515,0.204785,584,170479253,569,-1045,6801
516,0.205185,585,170479653,569,-1045,6801
517,0.205588,586,170480056,2698,-543,6809
518,0.205986,587,170480454,2698,-543,6809
519,0.206390,588,170480858,2698,-543,6809
520,0.206792,589,170481260,2964,100,6289
521,0.207171,590,170481639,2964,100,6289
522,0.207569,591,170482037,3821,633,5872
523,0.207963,592,170482431,3821,633,5872
524,0.208352,593,170482820,3821,633,5872
525,0.208746,594,170483214,6461,804,4475
526,0.209141,595,170483609,6461,804,4475
527,0.209535,596,170484003,1118,1407,3107
528,0.209921,597,170484389,1118,1407,3107
529,0.210303,598,170484771,1118,1407,3107
530,0.210693,599,170485161,-2350,1756,2908
531,0.211086,600,170485554,-2350,1756,2908
532,0.211482,601,170485950,-7988,2238,2962
533,0.211885,602,170486353,-7988,2238,2962
534,0.212289,603,170486757,-7988,2238,2962
535,0.212679,604,170487147,-11905,3085,2102
536,0.213068,605,170487536,-11905,3085,2102
537,0.213472,606,170487940,-4942,3416,1147
538,0.213870,607,170488338,-4942,3416,1147
539,0.214258,608,170488726,-4942,3416,1147
540,0.214658,609,170489126,-1857,4057,2682
541,0.215055,610,170489523,-1857,4057,2682
542,0.215459,611,170489927,-700,4348,4892
543,0.215862,612,170490330,-700,4348,4892
544,0.216264,613,170490732,-700,4348,4892
545,0.216666,614,170491134,-3082,4188,5332
546,0.217060,615,170491528,-3082,4188,5332
547,0.217464,616,170491932,-8460,3682,5091
548,0.217867,617,170492335,-8460,3682,5091
549,0.218264,618,170492732,-8460,3682,5091
550,0.218667,619,170493135,-6040,2553,5018
551,0.219061,620,170493529,-6040,2553,5018
552,0.219463,621,170493931,-5517,1806,5960
553,0.219860,622,170494328,-5517,1806,5960
554,0.220262,623,170494730,-5517,1806,5960
555,0.220659,624,170495127,-8973,893,5867
556,0.221054,625,170495522,-8973,893,5867
557,0.221459,626,170495927,-6204,-782,3408
558,0.221864,627,170496332,-6204,-782,3408
559,0.222274,628,170496742,-6204,-782,3408
560,0.222669,629,170497137,-3524,-1871,2364
561,0.223060,630,170497528,-3524,-1871,2364
562,0.223478,631,170497946,1111,-2484,3174
563,0.223874,632,170498342,1111,-2484,3174
564,0.224276,633,170498744,1111,-2484,3174
565,0.224680,634,170499148,5113,-3165,3570
566,0.225067,635,170499535,5113,-3165,3570
567,0.225470,636,170499938,5330,-3544,4417
568,0.225867,637,170500335,5330,-3544,4417
569,0.226264,638,170500732,5330,-3544,4417
570,0.226667,639,170501135,6311,-3414,6399
571,0.227057,640,170501525,6311,-3414,6399
572,0.227469,641,170501937,6892,-3105,7282
573,0.227856,642,170502324,6892,-3105,7282
574,0.228226,643,170502694,6892,-3105,7282
575,0.228611,644,170503079,6949,-2488,5665
576,0.228993,645,170503461,6949,-2488,5665
577,0.229394,646,170503862,7306,-1655,4316
578,0.229801,647,170504269,7306,-1655,4316
579,0.230204,648,170504672,7306,-1655,4316
580,0.230606,649,170505074,7430,-1253,3504
581,0.231004,650,170505472,7430,-1253,3504
582,0.231393,651,170505861,7110,-1642,1964
583,0.231800,652,170506268,7110,-1642,1964
584,0.232204,653,170506672,7110,-1642,1964
585,0.232606,654,170507074,1266,-2056,2035
586,0.233003,655,170507471,1266,-2056,2035
587,0.233392,656,170507860,-4507,-1650,3686
588,0.233815,657,170508283,-4507,-1650,3686
589,0.234226,658,170508694,-4507,-1650,3686
590,0.234636,659,170509104,-2447,-1437,5181
591,0.235039,660,170509507,-2447,-1437,5181
592,0.235456,661,170509924,-531,-1152,6513
593,0.235866,662,170510334,-531,-1152,6513
594,0.236277,663,170510745,-531,-1152,6513
595,0.236687,664,170511155,1892,-581,7033
596,0.237068,665,170511536,1892,-581,7033
597,0.237480,666,170511948,3604,-119,6490
598,0.237874,667,170512342,3604,-119,6490
599,0.238285,668,170512753,3604,-119,6490
600,0.238686,669,170513154,3714,495,5877
601,0.239066,670,170513534,3714,495,5877
602,0.239462,671,170513930,5747,739,4878
603,0.239857,672,170514325,5747,739,4878
604,0.240251,673,170514719,5747,739,4878
605,0.240645,674,170515113,2259,1155,3490
606,0.241032,675,170515500,2259,1155,3490
607,0.241424,676,170515892,-555,1681,2839
608,0.241832,677,170516300,-555,1681,2839
609,0.242234,678,170516702,-555,1681,2839
610,0.242631,679,170517099,-5668,1960,3122
611,0.243031,680,170517499,-5668,1960,3122
612,0.243428,681,170517896,-13165,2926,2436
613,0.243836,682,170518304,-13165,2926,2436
614,0.244232,683,170518700,-13165,2926,2436
615,0.244614,684,170519082,-7095,3380,926
616,0.245001,685,170519469,-7095,3380,926
617,0.245390,686,170519858,-946,3705,2027
618,0.245806,687,170520274,-946,3705,2027
619,0.246208,688,170520676,-946,3705,2027
620,0.246611,689,170521079,-756,4396,4728
621,0.247007,690,170521475,-756,4396,4728
622,0.247397,691,170521865,-2287,4351,5431
623,0.247809,692,170522277,-2287,4351,5431
624,0.248203,693,170522671,-2287,4351,5431
625,0.248606,694,170523074,-8052,3831,4841
626,0.249009,695,170523477,-8052,3831,4841
627,0.249406,696,170523874,-7181,2759,4913
628,0.249803,697,170524271,-7181,2759,4913
629,0.250206,698,170524674,-7181,2759,4913
630,0.250609,699,170525077,-5274,2082,6003
631,0.251012,700,170525480,-5274,2082,6003
632,0.251410,701,170525878,-9232,1362,6185
633,0.251808,702,170526276,-9232,1362,6185
634,0.252210,703,170526678,-9232,1362,6185
635,0.252620,704,170527088,-6501,-429,3993
636,0.253026,705,170527494,-6501,-429,3993
637,0.253430,706,170527898,-3636,-1630,2351
638,0.253844,707,170528312,-3636,-1630,2351
639,0.254255,708,170528723,-3636,-1630,2351
640,0.254666,709,170529134,-745,-2257,2789
641,0.255063,710,170529531,-745,-2257,2789
642,0.255481,711,170529949,4794,-2979,3643
643,0.255885,712,170530353,4794,-2979,3643
644,0.256288,713,170530756,4794,-2979,3643
645,0.256683,714,170531151,6072,-3310,4371
646,0.257071,715,170531539,6072,-3310,4371
647,0.257475,716,170531943,6219,-3530,5954
648,0.257873,717,170532341,6219,-3530,5954
649,0.258274,718,170532742,6219,-3530,5954
650,0.258677,719,170533145,6617,-3269,7178
651,0.259071,720,170533539,6617,-3269,7178
652,0.259482,721,170533950,6404,-2507,6017
653,0.259878,722,170534346,6404,-2507,6017
654,0.260280,723,170534748,6404,-2507,6017
655,0.260683,724,170535151,7033,-1877,4523
656,0.261071,725,170535539,7033,-1877,4523
657,0.261455,726,170535923,7400,-1345,3522
658,0.261845,727,170536313,7400,-1345,3522
659,0.262245,728,170536713,7400,-1345,3522
660,0.262645,729,170537113,7468,-1675,2034
661,0.263040,730,170537508,7468,-1675,2034
662,0.263440,731,170537908,2803,-2123,1970
663,0.263846,732,170538314,2803,-2123,1970
664,0.264248,733,170538716,2803,-2123,1970
665,0.264650,734,170539118,-4201,-1739,3667
666,0.265052,735,170539520,-4201,-1739,3667
667,0.265472,736,170539940,-2841,-1483,5065
668,0.265883,737,170540351,-2841,-1483,5065
669,0.266285,738,170540753,-2841,-1483,5065
670,0.266696,739,170541164,-93,-1320,6218
671,0.267100,740,170541568,-93,-1320,6218
672,0.267516,741,170541984,1648,-756,6932
673,0.267912,742,170542380,1648,-756,6932
674,0.268315,743,170542783,1648,-756,6932
675,0.268716,744,170543184,3413,-198,6608
676,0.269114,745,170543582,3413,-198,6608
677,0.269515,746,170543983,3239,455,6033
678,0.269911,747,170544379,3239,455,6033
679,0.270301,748,170544769,3239,455,6033
680,0.270690,749,170545158,5855,718,5120
681,0.271065,750,170545533,5855,718,5120
682,0.271461,751,170545929,4505,907,3580
683,0.271856,752,170546324,4505,907,3580
684,0.272244,753,170546712,4505,907,3580
685,0.272634,754,170547102,22,1652,3016
686,0.273015,755,170547483,22,1652,3016
687,0.273398,756,170547866,-6346,2305,3248
688,0.273804,757,170548272,-6346,2305,3248
689,0.274201,758,170548669,-6346,2305,3248
690,0.274604,759,170549072,-13314,2843,2594
691,0.275008,760,170549476,-13314,2843,2594
692,0.275398,761,170549866,-7574,3075,1206
693,0.275804,762,170550272,-7574,3075,1206
694,0.276206,763,170550674,-7574,3075,1206
695,0.276610,764,170551078,-855,3562,1698
696,0.277011,765,170551479,-855,3562,1698
697,0.277401,766,170551869,-2045,4456,4125
698,0.277800,767,170552268,-2045,4456,4125
699,0.278169,768,170552637,-2045,4456,4125
700,0.278577,769,170553045,-2268,4453,5336
701,0.278984,770,170553452,-2268,4453,5336
702,0.279374,771,170553842,-2268,4453,5336
703,0.279777,772,170554245,-5512,3848,5143
704,0.280179,773,170554647,-5512,3848,5143
705,0.280582,774,170555050,-7368,2875,4816
706,0.280985,775,170555453,-7368,2875,4816
707,0.281382,776,170555850,-5590,2158,5605
708,0.281784,777,170556252,-5590,2158,5605
709,0.282186,778,170556654,-5590,2158,5605
710,0.282588,779,170557056,-8650,1594,6375
711,0.282986,780,170557454,-8650,1594,6375
712,0.283383,781,170557851,-7155,-151,4532
713,0.283800,782,170558268,-7155,-151,4532
714,0.284202,783,170558670,-7155,-151,4532
715,0.284612,784,170559080,-4520,-1518,2399
716,0.285024,785,170559492,-4520,-1518,2399
717,0.285427,786,170559895,-1915,-2146,2707
718,0.285836,787,170560304,-1915,-2146,2707
719,0.286246,788,170560714,-1915,-2146,2707
720,0.286664,789,170561132,4381,-2840,3540
721,0.287051,790,170561519,4381,-2840,3540
722,0.287456,791,170561924,5538,-3249,3999
723,0.287860,792,170562328,5538,-3249,3999
724,0.288256,793,170562724,5538,-3249,3999
725,0.288654,794,170563122,5494,-3471,5529
726,0.289044,795,170563512,5494,-3471,5529
727,0.289448,796,170563916,6992,-3282,7157
728,0.289845,797,170564313,6992,-3282,7157
729,0.290255,798,170564723,6992,-3282,7157
730,0.290658,799,170565126,6775,-2694,6492
731,0.291046,800,170565514,6775,-2694,6492
732,0.291457,801,170565925,6699,-2057,4738
733,0.291860,802,170566328,6699,-2057,4738
734,0.292262,803,170566730,6699,-2057,4738
735,0.292665,804,170567133,7236,-1408,3719
736,0.293055,805,170567523,7236,-1408,3719
737,0.293460,806,170567928,7824,-1512,2437
738,0.293863,807,170568331,7824,-1512,2437
739,0.294273,808,170568741,7824,-1512,2437
740,0.294670,809,170569138,4660,-2099,1814
741,0.295057,810,170569525,4660,-2099,1814
742,0.295469,811,170569937,-3292,-1881,3194
743,0.295880,812,170570348,-3292,-1881,3194
744,0.296291,813,170570759,-3292,-1881,3194
745,0.296702,814,170571170,-3953,-1536,4785
746,0.297101,815,170571569,-3953,-1536,4785
747,0.297517,816,170571985,-205,-1464,5909
748,0.297927,817,170572395,-205,-1464,5909
749,0.298338,818,170572806,-205,-1464,5909
750,0.298748,819,170573216,1196,-924,6856
751,0.299144,820,170573612,1196,-924,6856
752,0.299552,821,170574020,3068,-305,6818
753,0.299955,822,170574423,3068,-305,6818
754,0.300357,823,170574825,3068,-305,6818
755,0.300752,824,170575220,3131,273,6182
756,0.301148,825,170575616,3131,273,6182
757,0.301539,826,170576007,5167,576,5278
758,0.301934,827,170576402,5167,576,5278
759,0.302327,828,170576795,5167,576,5278
760,0.302718,829,170577186,5514,781,3812
761,0.303108,830,170577576,5514,781,3812
762,0.303514,831,170577982,685,1524,3100
763,0.303903,832,170578371,685,1524,3100
764,0.304291,833,170578759,685,1524,3100
765,0.304686,834,170579154,-5403,2071,3030
766,0.305075,835,170579543,-5403,2071,3030
767,0.305472,836,170579940,-12283,2731,2651
768,0.305862,837,170580330,-12283,2731,2651
769,0.306267,838,170580735,-12283,2731,2651
770,0.306670,839,170581138,-8179,3060,1799
771,0.307057,840,170581525,-8179,3060,1799
772,0.307470,841,170581938,-1638,3442,1550
773,0.307865,842,170582333,-1638,3442,1550
774,0.308268,843,170582736,-1638,3442,1550
775,0.308678,844,170583146,-2524,4408,3425
776,0.309067,845,170583535,-2524,4408,3425
777,0.309479,846,170583947,-1800,4579,5119
778,0.309882,847,170584350,-1800,4579,5119
779,0.310284,848,170584752,-1800,4579,5119
780,0.310687,849,170585155,-4289,4074,5421
781,0.311069,850,170585537,-4289,4074,5421
782,0.311481,851,170585949,-7809,3288,5033
783,0.311877,852,170586345,-7809,3288,5033
784,0.312277,853,170586745,-7809,3288,5033
785,0.312684,854,170587152,-5743,2361,5156
786,0.313071,855,170587539,-5743,2361,5156
787,0.313475,856,170587943,-7477,1666,6149
788,0.313884,857,170588352,-7477,1666,6149
789,0.314279,858,170588747,-7477,1666,6149
790,0.314690,859,170589158,-8190,363,5009
791,0.315070,860,170589538,-8190,363,5009
792,0.315482,861,170589950,-5630,-1244,2686
793,0.315892,862,170590360,-5630,-1244,2686
794,0.316303,863,170590771,-5630,-1244,2686
795,0.316714,864,170591182,-3015,-2089,2476
796,0.317112,865,170591580,-3015,-2089,2476
797,0.317533,866,170592001,3511,-2808,3405
798,0.317929,867,170592397,3511,-2808,3405
799,0.318332,868,170592800,3511,-2808,3405
800,0.318735,869,170593203,5482,-3315,3926
801,0.319114,870,170593582,5482,-3315,3926
802,0.319500,871,170593968,5450,-3542,5168
803,0.319891,872,170594359,5450,-3542,5168
804,0.320295,873,170594763,5450,-3542,5168
805,0.320697,874,170595165,6993,-3386,7025
806,0.321089,875,170595557,6993,-3386,7025
807,0.321496,876,170595964,6978,-2825,6863
808,0.321891,877,170596359,6978,-2825,6863
809,0.322294,878,170596762,6978,-2825,6863
810,0.322697,879,170597165,6774,-2221,5039
811,0.323096,880,170597564,6774,-2221,5039
812,0.323494,881,170597962,7066,-1462,3861
813,0.323896,882,170598364,7066,-1462,3861
814,0.324299,883,170598767,7066,-1462,3861
815,0.324702,884,170599170,7656,-1316,2735
816,0.325100,885,170599568,7656,-1316,2735
817,0.325508,886,170599976,5798,-1954,1829
818,0.325904,887,170600372,5798,-1954,1829
819,0.326314,888,170600782,5798,-1954,1829
820,0.326709,889,170601177,-1852,-1870,2698
821,0.327115,890,170601583,-1852,-1870,2698
822,0.327536,891,170602004,-4446,-1516,4407
823,0.327926,892,170602394,-4446,-1516,4407
824,0.328313,893,170602781,-4446,-1516,4407
825,0.328725,894,170603193,-813,-1446,5697
826,0.329122,895,170603590,-813,-1446,5697
827,0.329544,896,170604012,592,-959,6703
828,0.329940,897,170604408,592,-959,6703
829,0.330343,898,170604811,592,-959,6703
830,0.330745,899,170605213,2761,-413,6926
831,0.331149,900,170605617,2761,-413,6926
832,0.331554,901,170606022,3293,127,6372
833,0.331942,902,170606410,3293,127,6372
834,0.332337,903,170606805,3293,127,6372
835,0.332732,904,170607200,4266,550,5506
836,0.333121,905,170607589,4266,550,5506
837,0.333520,906,170607988,5981,695,4142
838,0.333915,907,170608383,5981,695,4142
839,0.334310,908,170608778,5981,695,4142
840,0.334704,909,170609172,922,1452,3256
841,0.335089,910,170609557,922,1452,3256
842,0.335476,911,170609944,-3117,1838,3094
843,0.335880,912,170610348,-3117,1838,3094
844,0.336283,913,170610751,-3117,1838,3094
845,0.336686,914,170611154,-9418,2341,2873
846,0.337073,915,170611541,-9418,2341,2873
847,0.337491,916,170611959,-10735,3091,1987
848,0.337886,917,170612354,-10735,3091,1987
849,0.338297,918,170612765,-10735,3091,1987
850,0.338700,919,170613168,-3709,3365,1270
851,0.339092,920,170613560,-3709,3365,1270
852,0.339498,921,170613966,-1996,4171,2841
853,0.339892,922,170614360,-1996,4171,2841
854,0.340294,923,170614762,-1996,4171,2841
855,0.340705,924,170615173,-889,4419,4874
856,0.341096,925,170615564,-889,4419,4874
857,0.341501,926,170615969,-3379,4160,5291
858,0.341896,927,170616364,-3379,4160,5291
859,0.342307,928,170616775,-3379,4160,5291
860,0.342702,929,170617170,-8374,3659,5162
861,0.343100,930,170617568,-8374,3659,5162
862,0.343507,931,170617975,-5955,2587,5327
863,0.343910,932,170618378,-5955,2587,5327
864,0.344305,933,170618773,-5955,2587,5327
865,0.344688,934,170619156,-5921,1793,6146
866,0.345065,935,170619533,-5921,1793,6146
867,0.345476,936,170619944,-8949,717,5482
868,0.345871,937,170620339,-8949,717,5482
869,0.346273,938,170620741,-8949,717,5482
870,0.346676,939,170621144,-6247,-927,3080
871,0.347073,940,170621541,-6247,-927,3080
872,0.347493,941,170621961,-3494,-1903,2404
873,0.347903,942,170622371,-3494,-1903,2404
874,0.348305,943,170622773,-3494,-1903,2404
875,0.348715,944,170623183,1807,-2558,3156
876,0.349114,945,170623582,1807,-2558,3156
877,0.349514,946,170623982,5450,-3205,3712
878,0.349917,947,170624385,5450,-3205,3712
879,0.350315,948,170624783,5450,-3205,3712
880,0.350717,949,170625185,5597,-3486,4801
881,0.351110,950,170625578,5597,-3486,4801
882,0.351519,951,170625987,6626,-3418,6694
883,0.351923,952,170626391,6626,-3418,6694
884,0.352326,953,170626794,6626,-3418,6694
885,0.352721,954,170627189,6803,-2987,7131
886,0.353118,955,170627586,6803,-2987,7131
887,0.353532,956,170628000,6674,-2374,5311
888,0.353927,957,170628395,6674,-2374,5311
889,0.354330,958,170628798,6674,-2374,5311
890,0.354733,959,170629201,7134,-1632,4024
891,0.355138,960,170629606,7134,-1632,4024
892,0.355544,961,170630012,7489,-1335,3103
893,0.355947,962,170630415,7489,-1335,3103
894,0.356344,963,170630812,7489,-1335,3103
895,0.356747,964,170631215,6618,-1860,1848
896,0.357151,965,170631619,6618,-1860,1848
897,0.357557,966,170632025,65,-1992,2417
898,0.357961,967,170632429,65,-1992,2417
899,0.358366,968,170632834,-4478,-1615,4179
900,0.358775,969,170633243,-4478,-1615,4179
901,0.359187,970,170633655,-4478,-1615,4179
902,0.359597,971,170634065,-1583,-1449,5410
903,0.360009,972,170634477,-1583,-1449,5410
904,0.360413,973,170634881,42,-1078,6590
905,0.360818,974,170635286,42,-1078,6590
906,0.361204,975,170635672,42,-1078,6590
907,0.361588,976,170636056,2265,-563,7054
908,0.361986,977,170636454,2265,-563,7054
909,0.362383,978,170636851,3516,10,6445
910,0.362771,979,170637239,3516,10,6445
911,0.363165,980,170637633,3516,10,6445
912,0.363562,981,170638030,3809,575,5788
913,0.363959,982,170638427,3809,575,5788
914,0.364347,983,170638815,3809,575,5788
915,0.364742,984,170639210,6118,718,4609
916,0.365133,985,170639601,6118,718,4609
917,0.365523,986,170639991,1333,1351,3093
918,0.365918,987,170640386,1333,1351,3093
919,0.366313,988,170640781,1333,1351,3093
920,0.366708,989,170641176,-2129,1707,2911
921,0.367101,990,170641569,-2129,1707,2911
922,0.367502,991,170641970,-6565,2061,3212
923,0.367900,992,170642368,-6565,2061,3212
924,0.368301,993,170642769,-6565,2061,3212
925,0.368704,994,170643172,-12481,3102,2026
926,0.369099,995,170643567,-12481,3102,2026
927,0.369504,996,170643972,-6189,3361,1004
928,0.369906,997,170644374,-6189,3361,1004
929,0.370304,998,170644772,-6189,3361,1004
930,0.370707,999,170645175,-815,3963,2573
931,0.371105,1000,170645573,-815,3963,2573
932,0.371506,1001,170645974,-616,4406,4896
933,0.371909,1002,170646377,-616,4406,4896
934,0.372310,1003,170646778,-616,4406,4896
935,0.372714,1004,170647182,-3036,4192,5413
936,0.373106,1005,170647574,-3036,4192,5413
937,0.373516,1006,170647984,-7746,3846,5127
938,0.373911,1007,170648379,-7746,3846,5127
939,0.374313,1008,170648781,-7746,3846,5127
940,0.374716,1009,170649184,-6290,2746,5211
941,0.375114,1010,170649582,-6290,2746,5211
942,0.375515,1011,170649983,-5439,1926,6081
943,0.375918,1012,170650386,-5439,1926,6081
944,0.376321,1013,170650789,-5439,1926,6081
945,0.376723,1014,170651191,-9101,1070,5875
946,0.377116,1015,170651584,-9101,1070,5875
947,0.377526,1016,170651994,-6716,-752,3437
948,0.377920,1017,170652388,-6716,-752,3437
949,0.378319,1018,170652787,-6716,-752,3437
950,0.378721,1019,170653189,-3658,-1813,2179
951,0.379126,1020,170653594,-3658,-1813,2179
952,0.379548,1021,170654016,-20,-2355,3087
953,0.379958,1022,170654426,-20,-2355,3087
954,0.380368,1023,170654836,4595,-3102,3620
955,0.380764,1024,170655232,4595,-3102,3620
956,0.381166,1025,170655634,4595,-3102,3620
957,0.381571,1026,170656039,5500,-3524,4355
958,0.381975,1027,170656443,5500,-3524,4355
959,0.382373,1028,170656841,6222,-3499,6308
960,0.382768,1029,170657236,6222,-3499,6308
961,0.383158,1030,170657626,6222,-3499,6308
962,0.383561,1031,170658029,6998,-3166,7176
963,0.383961,1032,170658429,6998,-3166,7176
964,0.384366,1033,170658834,7169,-2468,5843
965,0.384753,1034,170659221,7169,-2468,5843
966,0.385158,1035,170659626,7169,-2468,5843
967,0.385561,1036,170660029,7218,-1671,4612
968,0.385974,1037,170660442,7218,-1671,4612
969,0.386371,1038,170660839,7609,-1336,3342
970,0.386774,1039,170661242,7609,-1336,3342
971,0.387176,1040,170661644,7609,-1336,3342
972,0.387574,1041,170662042,7320,-1696,1809
973,0.387978,1042,170662446,7320,-1696,1809
974,0.388382,1043,170662850,1763,-1958,2266
975,0.388777,1044,170663245,1763,-1958,2266
976,0.389180,1045,170663648,1763,-1958,2266
977,0.389583,1046,170664051,-4384,-1612,3837
978,0.390002,1047,170664470,-4384,-1612,3837
979,0.390407,1048,170664875,-2729,-1461,5055
980,0.390821,1049,170665289,-2729,-1461,5055
981,0.391232,1050,170665700,-2729,-1461,5055
982,0.391644,1051,170666112,-338,-1168,6216
983,0.392039,1052,170666507,-338,-1168,6216
984,0.392458,1053,170666926,1718,-731,6990
985,0.392861,1054,170667329,1718,-731,6990
986,0.393255,1055,170667723,1718,-731,6990
987,0.393665,1056,170668133,3396,-74,6643
988,0.394055,1057,170668523,3396,-74,6643
989,0.394451,1058,170668919,3409,535,5958
990,0.394826,1059,170669294,3409,535,5958
991,0.395209,1060,170669677,3409,535,5958
992,0.395604,1061,170670072,5704,661,4846
993,0.395999,1062,170670467,5704,661,4846
994,0.396380,1063,170670848,2806,1034,3464
995,0.396757,1064,170671225,2806,1034,3464
996,0.397152,1065,170671620,2806,1034,3464
997,0.397545,1066,170672013,-324,1690,3174
998,0.397956,1067,170672424,-324,1690,3174
999,0.398358,1068,170672826,-5301,2097,3261
1000,0.398754,1069,170673222,-5301,2097,3261
1001,0.399146,1070,170673614,-5301,2097,3261
1002,0.399552,1071,170674020,-13142,2792,2168
1003,0.399957,1072,170674425,-13142,2792,2168
1004,0.400353,1073,170674821,-7620,3247,843
1005,0.400755,1074,170675223,-7620,3247,843
1006,0.401159,1075,170675627,-7620,3247,843
1007,0.401574,1076,170676042,-620,3702,2008
1008,0.401978,1077,170676446,-620,3702,2008
1009,0.402367,1078,170676835,-996,4442,4435
1010,0.402776,1079,170677244,-996,4442,4435
1011,0.403170,1080,170677638,-996,4442,4435
1012,0.403577,1081,170678045,-2227,4382,5324
1013,0.403981,1082,170678449,-2227,4382,5324
1014,0.404379,1083,170678847,-6909,3911,5170
1015,0.404773,1084,170679241,-6909,3911,5170
1016,0.405172,1085,170679640,-6909,3911,5170
1017,0.405573,1086,170680041,-7437,2903,5083
1018,0.405977,1087,170680445,-7437,2903,5083
1019,0.406374,1088,170680842,-5535,2186,5991
1020,0.406777,1089,170681245,-5535,2186,5991
1021,0.407179,1090,170681647,-5535,2186,5991
1022,0.407582,1091,170682050,-8714,1406,6305
1023,0.407988,1092,170682456,-8714,1406,6305
1024,0.408379,1093,170682847,-6680,-453,4079
1025,0.408788,1094,170683256,-6680,-453,4079
1026,0.409198,1095,170683666,-6680,-453,4079
1027,0.409616,1096,170684084,-4352,-1601,2253
1028,0.410019,1097,170684487,-4352,-1601,2253
1029,0.410416,1098,170684884,-1489,-2294,2728
1030,0.410839,1099,170685307,-1489,-2294,2728
1031,0.411234,1100,170685702,-1489,-2294,2728
1032,0.411631,1101,170686099,4441,-3081,3463
1033,0.412035,1102,170686503,4441,-3081,3463
1034,0.412425,1103,170686893,5788,-3373,4017
1035,0.412833,1104,170687301,5788,-3373,4017
1036,0.413217,1105,170687685,5788,-3373,4017
1037,0.413609,1106,170688077,6126,-3585,5716
1038,0.414014,1107,170688482,6126,-3585,5716
1039,0.414405,1108,170688873,7042,-3290,7258
1040,0.414813,1109,170689281,7042,-3290,7258
1041,0.415215,1110,170689683,7042,-3290,7258
1042,0.415626,1111,170690094,7137,-2567,6310
1043,0.416023,1112,170690491,7137,-2567,6310
1044,0.416421,1113,170690889,7416,-1924,4666
1045,0.416821,1114,170691289,7416,-1924,4666
1046,0.417232,1115,170691700,7416,-1924,4666
1047,0.417627,1116,170692095,7285,-1358,3638
1048,0.418031,1117,170692499,7285,-1358,3638
1049,0.418421,1118,170692889,7065,-1489,2130
1050,0.418829,1119,170693297,7065,-1489,2130
1051,0.419239,1120,170693707,7065,-1489,2130
1052,0.419643,1121,170694111,2918,-1982,1907
1053,0.420038,1122,170694506,2918,-1982,1907
1054,0.420429,1123,170694897,-3763,-1756,3487
1055,0.420852,1124,170695320,-3763,-1756,3487
1056,0.421262,1125,170695730,-3763,-1756,3487
1057,0.421672,1126,170696140,-3074,-1466,4792
1058,0.422067,1127,170696535,-3074,-1466,4792
1059,0.422486,1128,170696954,-607,-1311,6068
1060,0.422897,1129,170697365,-607,-1311,6068
1061,0.423300,1130,170697768,-607,-1311,6068
1062,0.423717,1131,170698185,1339,-703,7152
1063,0.424109,1132,170698577,1339,-703,7152
1064,0.424503,1133,170698971,3785,-126,6801
1065,0.424914,1134,170699382,3785,-126,6801
1066,0.425317,1135,170699785,3785,-126,6801
1067,0.425713,1136,170700181,3493,412,6019
1068,0.426103,1137,170700571,3493,412,6019
1069,0.426496,1138,170700964,5395,691,5163
1070,0.426892,1139,170701360,5395,691,5163
1071,0.427280,1140,170701748,5395,691,5163
1072,0.427671,1141,170702139,4262,942,3654
1073,0.428047,1142,170702515,4262,942,3654
1074,0.428424,1143,170702892,426,1574,3060
1075,0.428822,1144,170703290,426,1574,3060
1076,0.429217,1145,170703685,426,1574,3060
1077,0.429612,1146,170704080,-5946,2297,3099
1078,0.430016,1147,170704484,-5946,2297,3099
1079,0.430406,1148,170704874,-13194,2776,2461
1080,0.430814,1149,170705282,-13194,2776,2461
1081,0.431210,1150,170705678,-13194,2776,2461
1082,0.431621,1151,170706089,-7677,2989,1129
1083,0.432018,1152,170706486,-7677,2989,1129
1084,0.432415,1153,170706883,-892,3476,1567
1085,0.432815,1154,170707283,-892,3476,1567
1086,0.433225,1155,170707693,-892,3476,1567
1087,0.433627,1156,170708095,-1989,4386,4015
1088,0.434026,1157,170708494,-1989,4386,4015
1089,0.434417,1158,170708885,-2230,4494,5280
1090,0.434813,1159,170709281,-2230,4494,5280
1091,0.435210,1160,170709678,-2230,4494,5280
1092,0.435620,1161,170710088,-5300,3873,5267
1093,0.436017,1162,170710485,-5300,3873,5267
1094,0.436407,1163,170710875,-7322,2942,5012
1095,0.436813,1164,170711281,-7322,2942,5012
1096,0.437217,1165,170711685,-7322,2942,5012
1097,0.437620,1166,170712088,-5686,2258,5750
1098,0.438025,1167,170712493,-5686,2258,5750
1099,0.438415,1168,170712883,-8504,1613,6397
1100,0.438824,1169,170713292,-8504,1613,6397
1101,0.439234,1170,170713702,-8504,1613,6397
1102,0.439637,1171,170714105,-6958,-127,4523
1103,0.440034,1172,170714502,-6958,-127,4523
1104,0.440451,1173,170714919,-4850,-1472,2387
1105,0.440861,1174,170715329,-4850,-1472,2387
1106,0.441265,1175,170715733,-4850,-1472,2387
1107,0.441675,1176,170716143,-2685,-2160,2592
1108,0.442089,1177,170716557,-2685,-2160,2592
1109,0.442494,1178,170716962,4071,-2916,3380
1110,0.442897,1179,170717365,4071,-2916,3380
1111,0.443294,1180,170717762,4071,-2916,3380
1112,0.443697,1181,170718165,5976,-3347,3791
1113,0.444095,1182,170718563,5976,-3347,3791
1114,0.444482,1183,170718950,5609,-3509,5452
1115,0.444851,1184,170719319,5609,-3509,5452
1116,0.445240,1185,170719708,5609,-3509,5452
1117,0.445642,1186,170720110,6742,-3265,7320
1118,0.446038,1187,170720506,6742,-3265,7320
1119,0.446438,1188,170720906,7135,-2636,6656
1120,0.446852,1189,170721320,7135,-2636,6656
1121,0.447255,1190,170721723,7135,-2636,6656
1122,0.447657,1191,170722125,7472,-2050,4896
1123,0.448045,1192,170722513,7472,-2050,4896
1124,0.448458,1193,170722926,7463,-1422,3819
1125,0.448853,1194,170723321,7463,-1422,3819
1126,0.449264,1195,170723732,7463,-1422,3819
1127,0.449667,1196,170724135,7190,-1477,2321
1128,0.450057,1197,170724525,7190,-1477,2321
1129,0.450463,1198,170724931,4105,-2043,1719
1130,0.450864,1199,170725332,4105,-2043,1719
1131,0.451267,1200,170725735,4105,-2043,1719
1132,0.451677,1201,170726145,-3037,-1847,3194
1133,0.452073,1202,170726541,-3037,-1847,3194
1134,0.452493,1203,170726961,-3714,-1553,4652
1135,0.452904,1204,170727372,-3714,-1553,4652
1136,0.453307,1205,170727775,-3714,-1553,4652
1137,0.453717,1206,170728185,-785,-1456,5845
1138,0.454121,1207,170728589,-785,-1456,5845
1139,0.454543,1208,170729011,753,-804,7097
1140,0.454939,1209,170729407,753,-804,7097
1141,0.455344,1210,170729812,3630,-223,7090
1142,0.455747,1211,170730215,3630,-223,7090
1143,0.456146,1212,170730614,3630,-223,7090
1144,0.456552,1213,170731020,3611,311,6128
1145,0.456940,1214,170731408,3611,311,6128
1146,0.457329,1215,170731797,3611,311,6128
1147,0.457725,1216,170732193,4984,633,5224
1148,0.458109,1217,170732577,4984,633,5224
1149,0.458504,1218,170732972,5241,885,3948
1150,0.458893,1219,170733361,5241,885,3948
1151,0.459288,1220,170733756,5241,885,3948
1152,0.459683,1221,170734151,1305,1546,3254
1153,0.460064,1222,170734532,1305,1546,3254
1154,0.460462,1223,170734930,-5748,2202,3039
1155,0.460859,1224,170735327,-5748,2202,3039
1156,0.461254,1225,170735722,-5748,2202,3039
1157,0.461639,1226,170736107,-13168,2864,2430
1158,0.462023,1227,170736491,-13168,2864,2430
1159,0.462413,1228,170736881,-7905,2986,1367
1160,0.462829,1229,170737297,-7905,2986,1367
1161,0.463232,1230,170737700,-7905,2986,1367
1162,0.463635,1231,170738103,-1253,3418,1372
1163,0.464031,1232,170738499,-1253,3418,1372
1164,0.464421,1233,170738889,-2593,4486,3522
1165,0.464829,1234,170739297,-2593,4486,3522
1166,0.465239,1235,170739707,-2593,4486,3522
1167,0.465634,1236,170740102,-2195,4562,5100
1168,0.466038,1237,170740506,-2195,4562,5100
1169,0.466436,1238,170740904,-4254,3958,5350
1170,0.466843,1239,170741311,-4254,3958,5350
1171,0.467246,1240,170741714,-4254,3958,5350
1172,0.467641,1241,170742109,-7218,3111,5196
1173,0.468038,1242,170742506,-7218,3111,5196
1174,0.468431,1243,170742899,-5524,2259,5730
1175,0.468826,1244,170743294,-5524,2259,5730
1176,0.469230,1245,170743698,-5524,2259,5730
1177,0.469640,1246,170744108,-7936,1652,6522
1178,0.470036,1247,170744504,-7936,1652,6522
1179,0.470426,1248,170744894,-7501,140,4998
1180,0.470834,1249,170745302,-7501,140,4998
1181,0.471236,1250,170745704,-7501,140,4998
1182,0.471638,1251,170746106,-5232,-1392,2674
1183,0.472049,1252,170746517,-5232,-1392,2674
1184,0.472457,1253,170746925,-3244,-2084,2447
1185,0.472857,1254,170747325,-3244,-2084,2447
1186,0.473272,1255,170747740,-3244,-2084,2447
1187,0.473676,1256,170748144,3393,-2900,3076
1188,0.474071,1257,170748539,3393,-2900,3076
1189,0.474483,1258,170748951,5541,-3356,3419
1190,0.474879,1259,170749347,5541,-3356,3419
1191,0.475282,1260,170749750,5541,-3356,3419
1192,0.475692,1261,170750160,5556,-3475,5125
1193,0.476073,1262,170750541,5556,-3475,5125
1194,0.476479,1263,170750947,6891,-3366,7281
1195,0.476890,1264,170751358,6891,-3366,7281
1196,0.477286,1265,170751754,6891,-3366,7281
1197,0.477676,1266,170752144,6883,-2716,6877
1198,0.478055,1267,170752523,6883,-2716,6877
1199,0.478453,1268,170752921,7190,-2140,5160
1200,0.478849,1269,170753317,7190,-2140,5160
1201,0.479252,1270,170753720,7190,-2140,5160
1202,0.479654,1271,170754122,7732,-1421,4116
1203,0.480052,1272,170754520,7732,-1421,4116
1204,0.480456,1273,170754924,7392,-1291,2553
1205,0.480854,1274,170755322,7392,-1291,2553
1206,0.481257,1275,170755725,7392,-1291,2553
1207,0.481659,1276,170756127,5050,-1946,1564
1208,0.482057,1277,170756525,5050,-1946,1564
1209,0.482461,1278,170756929,-2216,-1875,2793
1210,0.482872,1279,170757340,-2216,-1875,2793
1211,0.483290,1280,170757758,-2216,-1875,2793
1212,0.483701,1281,170758169,-4156,-1596,4340
1213,0.484100,1282,170758568,-4156,-1596,4340
1214,0.484516,1283,170758984,-913,-1473,5682
1215,0.484919,1284,170759387,-913,-1473,5682
1216,0.485337,1285,170759805,459,-843,7117
1217,0.485733,1286,170760201,459,-843,7117
1218,0.486123,1287,170760591,459,-843,7117
1219,0.486525,1288,170760993,3145,-283,7138
1220,0.486927,1289,170761395,3145,-283,7138
1221,0.487326,1290,170761794,3145,-283,7138
1222,0.487728,1291,170762196,3577,177,6162
1223,0.488118,1292,170762586,3577,177,6162
1224,0.488510,1293,170762978,4589,605,5362
1225,0.488902,1294,170763370,4589,605,5362
1226,0.489293,1295,170763761,4589,605,5362
1227,0.489683,1296,170764151,5552,835,4106
1228,0.490064,1297,170764532,5552,835,4106
1229,0.490462,1298,170764930,880,1477,3129
1230,0.490857,1299,170765325,880,1477,3129
1231,0.491247,1300,170765715,880,1477,3129
1232,0.491636,1301,170766104,-4267,1853,2877
1233,0.492026,1302,170766494,-4267,1853,2877
1234,0.492408,1303,170766876,-11283,2598,2671
1235,0.492814,1304,170767282,-11283,2598,2671
1236,0.493212,1305,170767680,-11283,2598,2671
1237,0.493615,1306,170768083,-9185,3062,1918
1238,0.494018,1307,170768486,-9185,3062,1918
1239,0.494408,1308,170768876,-2411,3330,1336
1240,0.494811,1309,170769279,-2411,3330,1336
1241,0.495207,1310,170769675,-2411,3330,1336
1242,0.495610,1311,170770078,-2702,4309,2988
1243,0.496010,1312,170770478,-2702,4309,2988
1244,0.496399,1313,170770867,-1319,4567,4928
1245,0.496807,1314,170771275,-1319,4567,4928
1246,0.497209,1315,170771677,-1319,4567,4928
1247,0.497612,1316,170772080,-3396,4143,5467
1248,0.498010,1317,170772478,-3396,4143,5467
1249,0.498408,1318,170772876,-7827,3425,5379
1250,0.498806,1319,170773274,-7827,3425,5379
1251,0.499210,1320,170773678,-7827,3425,5379
1252,0.499611,1321,170774079,-5594,2420,5468
1253,0.500010,1322,170774478,-5594,2420,5468
1254,0.500400,1323,170774868,-6855,1621,6361
1255,0.500808,1324,170775276,-6855,1621,6361
1256,0.501204,1325,170775672,-6855,1621,6361
1257,0.501607,1326,170776075,-8729,563,5371
1258,0.502010,1327,170776478,-8729,563,5371
1259,0.502401,1328,170776869,-5846,-1141,2869
1260,0.502814,1329,170777282,-5846,-1141,2869
1261,0.503225,1330,170777693,-5846,-1141,2869
1262,0.503635,1331,170778103,-3552,-2046,2189
1263,0.504047,1332,170778515,-3552,-2046,2189
1264,0.504464,1333,170778932,2508,-2798,2855
1265,0.504860,1334,170779328,2508,-2798,2855
1266,0.505257,1335,170779725,2508,-2798,2855
1267,0.505655,1336,170780123,5708,-3399,3450
1268,0.506045,1337,170780513,5708,-3399,3450
1269,0.506437,1338,170780905,5655,-3531,4921
1270,0.506841,1339,170781309,5655,-3531,4921
1271,0.507245,1340,170781713,5655,-3531,4921
1272,0.507641,1341,170782109,6758,-3477,7048
1273,0.508038,1342,170782506,6758,-3477,7048
1274,0.508438,1343,170782906,6712,-2918,7136
1275,0.508845,1344,170783313,6712,-2918,7136
1276,0.509243,1345,170783711,6712,-2918,7136
1277,0.509645,1346,170784113,7025,-2283,5390
1278,0.510038,1347,170784506,7025,-2283,5390
1279,0.510438,1348,170784906,7574,-1509,4271
1280,0.510844,1349,170785312,7574,-1509,4271
1281,0.511234,1350,170785702,7574,-1509,4271
1282,0.511624,1351,170786092,7181,-1259,2841
1283,0.512027,1352,170786495,7181,-1259,2841
1284,0.512417,1353,170786885,5708,-1897,1473
1285,0.512826,1354,170787294,5708,-1897,1473
1286,0.513222,1355,170787690,5708,-1897,1473
1287,0.513616,1356,170788084,-932,-1933,2503
1288,0.514006,1357,170788474,-932,-1933,2503
1289,0.514404,1358,170788872,-4333,-1591,4256
1290,0.514813,1359,170789281,-4333,-1591,4256
1291,0.515225,1360,170789693,-4333,-1591,4256
1292,0.515637,1361,170790105,-1277,-1506,5515
1293,0.516039,1362,170790507,-1277,-1506,5515
1294,0.516448,1363,170790916,232,-965,6893
1295,0.516843,1364,170791311,232,-965,6893
1296,0.517240,1365,170791708,232,-965,6893
1297,0.517642,1366,170792110,2856,-418,7244
1298,0.518040,1367,170792508,2856,-418,7244
1299,0.518439,1368,170792907,3682,68,6366
1300,0.518839,1369,170793307,3682,68,6366
1301,0.519228,1370,170793696,3682,68,6366
1302,0.519609,1371,170794077,4103,588,5496
1303,0.520002,1372,170794470,4103,588,5496
1304,0.520385,1373,170794853,5950,714,4337
1305,0.520775,1374,170795243,5950,714,4337
1306,0.521165,1375,170795633,5950,714,4337
1307,0.521563,1376,170796031,932,1444,2994
1308,0.521954,1377,170796422,932,1444,2994
1309,0.522344,1378,170796812,-3002,1712,2956
1310,0.522747,1379,170797215,-3002,1712,2956
1311,0.523142,1380,170797610,-3002,1712,2956
1312,0.523545,1381,170798013,-8685,2312,3158
1313,0.523947,1382,170798415,-8685,2312,3158
1314,0.524354,1383,170798822,-11246,3153,1989
1315,0.524751,1384,170799219,-11246,3153,1989
1316,0.525155,1385,170799623,-11246,3153,1989
1317,0.525556,1386,170800024,-4529,3301,1122
1318,0.525961,1387,170800429,-4529,3301,1122
1319,0.526359,1388,170800827,-1549,4175,2738
1320,0.526761,1389,170801229,-1549,4175,2738
1321,0.527160,1390,170801628,-1549,4175,2738
1322,0.527561,1391,170802029,-540,4409,4940
1323,0.527955,1392,170802423,-540,4409,4940
1324,0.528325,1393,170802793,-3368,4151,5170
1325,0.528730,1394,170803198,-3368,4151,5170
1326,0.529128,1395,170803596,-3368,4151,5170
1327,0.529533,1396,170804001,-8200,3646,4938
1328,0.529937,1397,170804405,-8200,3646,4938
1329,0.530338,1398,170804806,-6010,2558,5347
1330,0.530742,1399,170805210,-6010,2558,5347
1331,0.531146,1400,170805614,-6010,2558,5347
1332,0.531546,1401,170806014,-5783,1771,6362
1333,0.531942,1402,170806410,-5783,1771,6362
1334,0.532345,1403,170806813,-8719,811,5687
1335,0.532747,1404,170807215,-8719,811,5687
1336,0.533150,1405,170807618,-8719,811,5687
1337,0.533556,1406,170808024,-6340,-949,3169
1338,0.533961,1407,170808429,-6340,-949,3169
1339,0.534374,1408,170808842,-3695,-1949,2424
1340,0.534784,1409,170809252,-3695,-1949,2424
1341,0.535195,1410,170809663,-3695,-1949,2424
1342,0.535597,1411,170810065,1234,-2497,3123
1343,0.536002,1412,170810470,1234,-2497,3123
1344,0.536392,1413,170810860,5059,-3281,3601
1345,0.536796,1414,170811264,5059,-3281,3601
1346,0.537200,1415,170811668,5059,-3281,3601
1347,0.537602,1416,170812070,5618,-3553,4448
1348,0.538007,1417,170812475,5618,-3553,4448
1349,0.538399,1418,170812867,6548,-3495,6457
1350,0.538800,1419,170813268,6548,-3495,6457
1351,0.539203,1420,170813671,6548,-3495,6457
1352,0.539606,1421,170814074,6755,-3034,7226
1353,0.540008,1422,170814476,6755,-3034,7226
1354,0.540398,1423,170814866,7211,-2296,5671
1355,0.540804,1424,170815272,7211,-2296,5671
1356,0.541207,1425,170815675,7211,-2296,5671
1357,0.541605,1426,170816073,7415,-1619,4368
1358,0.542009,1427,170816477,7415,-1619,4368
1359,0.542399,1428,170816867,7322,-1306,3044
1360,0.542806,1429,170817274,7322,-1306,3044
1361,0.543207,1430,170817675,7322,-1306,3044
1362,0.543612,1431,170818080,6631,-1743,1779
1363,0.544018,1432,170818486,6631,-1743,1779
1364,0.544409,1433,170818877,432,-1892,2520
1365,0.544790,1434,170819258,432,-1892,2520
1366,0.545168,1435,170819636,432,-1892,2520
1367,0.545570,1436,170820038,-4398,-1603,4181
1368,0.545990,1437,170820458,-4398,-1603,4181
1369,0.546395,1438,170820863,-1972,-1533,5207
1370,0.546811,1439,170821279,-1972,-1533,5207
1371,0.547214,1440,170821682,-1972,-1533,5207
1372,0.547625,1441,170822093,-230,-1122,6486
1373,0.548038,1442,170822506,-230,-1122,6486
1374,0.548435,1443,170822903,2366,-548,7212
1375,0.548841,1444,170823309,2366,-548,7212
1376,0.549243,1445,170823711,2366,-548,7212
1377,0.549645,1446,170824113,3845,11,6478
1378,0.550033,1447,170824501,3845,11,6478
1379,0.550425,1448,170824893,3568,566,5526
1380,0.550823,1449,170825291,3568,566,5526
1381,0.551212,1450,170825680,3568,566,5526
1382,0.551602,1451,170826070,5421,665,4356
1383,0.552000,1452,170826468,5421,665,4356
1384,0.552382,1453,170826850,1374,1234,3222
1385,0.552772,1454,170827240,1374,1234,3222
1386,0.553161,1455,170827629,1374,1234,3222
1387,0.553557,1456,170828025,-1044,1707,3242
1388,0.553961,1457,170828429,-1044,1707,3242
1389,0.554355,1458,170828823,-5707,1996,3353
1390,0.554765,1459,170829233,-5707,1996,3353
1391,0.555162,1460,170829630,-5707,1996,3353
1392,0.555567,1461,170830035,-12986,2994,2074
1393,0.555970,1462,170830438,-12986,2994,2074
1394,0.556367,1463,170830835,-6718,3366,932
1395,0.556777,1464,170831245,-6718,3366,932
1396,0.557180,1465,170831648,-6718,3366,932
1397,0.557585,1466,170832053,-753,3875,2394
1398,0.557990,1467,170832458,-753,3875,2394
1399,0.558380,1468,170832848,-192,4368,4741
1400,0.558782,1469,170833250,-192,4368,4741
1401,0.559193,1470,170833661,-192,4368,4741
1402,0.559595,1471,170834063,-2500,4239,5171
1403,0.559991,1472,170834459,-2500,4239,5171
1404,0.560388,1473,170834856,-8292,3832,4920
1405,0.560795,1474,170835263,-8292,3832,4920
1406,0.561189,1475,170835657,-8292,3832,4920
1407,0.561562,1476,170836030,-7076,2785,5231
1408,0.561961,1477,170836429,-7076,2785,5231
1409,0.562357,1478,170836825,-5391,2073,6320
1410,0.562767,1479,170837235,-5391,2073,6320
1411,0.563163,1480,170837631,-5391,2073,6320
1412,0.563571,1481,170838039,-8810,1162,6079
1413,0.563983,1482,170838451,-8810,1162,6079
1414,0.564380,1483,170838848,-6484,-701,3517
1415,0.564790,1484,170839258,-6484,-701,3517
1416,0.565202,1485,170839670,-6484,-701,3517
1417,0.565612,1486,170840080,-3982,-1717,2300
1418,0.566016,1487,170840484,-3982,-1717,2300
1419,0.566421,1488,170840889,-297,-2296,2951
1420,0.566834,1489,170841302,-297,-2296,2951
1421,0.567244,1490,170841712,-297,-2296,2951
1422,0.567654,1491,170842122,4940,-3169,3451
1423,0.568042,1492,170842510,4940,-3169,3451
1424,0.568447,1493,170842915,5901,-3444,4268
1425,0.568844,1494,170843312,5901,-3444,4268
1426,0.569246,1495,170843714,5901,-3444,4268
1427,0.569649,1496,170844117,6432,-3533,6325
1428,0.570044,1497,170844512,6432,-3533,6325
1429,0.570455,1498,170844923,6615,-3183,7331
1430,0.570850,1499,170845318,6615,-3183,7331
1431,0.571253,1500,170845721,6615,-3183,7331
1432,0.571663,1501,170846131,6930,-2472,5858
1433,0.572052,1502,170846520,6930,-2472,5858
1434,0.572456,1503,170846924,7548,-1782,4423
1435,0.572859,1504,170847327,7548,-1782,4423
1436,0.573262,1505,170847730,7548,-1782,4423
1437,0.573667,1506,170848135,7281,-1296,3379
1438,0.574057,1507,170848525,7281,-1296,3379
1439,0.574462,1508,170848930,6849,-1692,1864
1440,0.574865,1509,170849333,6849,-1692,1864
1441,0.575268,1510,170849736,6849,-1692,1864
1442,0.575670,1511,170850138,1921,-2043,2035
1443,0.576067,1512,170850535,1921,-2043,2035
1444,0.576479,1513,170850947,-4134,-1732,3968
1445,0.576882,1514,170851350,-4134,-1732,3968
1446,0.577294,1515,170851762,-4134,-1732,3968
1447,0.577705,1516,170852173,-2405,-1467,5251
1448,0.578089,1517,170852557,-2405,-1467,5251
1449,0.578491,1518,170852959,-370,-1222,6316
1450,0.578886,1519,170853354,-370,-1222,6316
1451,0.579291,1520,170853759,-370,-1222,6316
1452,0.579688,1521,170854156,1581,-676,7144
1453,0.580078,1522,170854546,1581,-676,7144
1454,0.580491,1523,170854959,3723,-70,6626
1455,0.580886,1524,170855354,3723,-70,6626
1456,0.581296,1525,170855764,3723,-70,6626
1457,0.581690,1526,170856158,3483,481,5742
1458,0.582071,1527,170856539,3483,481,5742
1459,0.582464,1528,170856932,5784,684,4760
1460,0.582859,1529,170857327,5784,684,4760
1461,0.583253,1530,170857721,5784,684,4760
1462,0.583642,1531,170858110,3228,1058,3484
1463,0.584030,1532,170858498,3228,1058,3484
1464,0.584404,1533,170858872,-606,1726,3116
1465,0.584810,1534,170859278,-606,1726,3116
1466,0.585200,1535,170859668,-606,1726,3116
1467,0.585603,1536,170860071,-5868,2157,3286
1468,0.586007,1537,170860475,-5868,2157,3286
1469,0.586405,1538,170860873,-13436,2860,2359
1470,0.586805,1539,170861273,-13436,2860,2359
1471,0.587208,1540,170861676,-13436,2860,2359
1472,0.587613,1541,170862081,-7767,3246,958
1473,0.588011,1542,170862479,-7767,3246,958
1474,0.588400,1543,170862868,-368,3688,2012
1475,0.588798,1544,170863266,-368,3688,2012
1476,0.589186,1545,170863654,-368,3688,2012
1477,0.589584,1546,170864052,-937,4430,4486
1478,0.589982,1547,170864450,-937,4430,4486
1479,0.590381,1548,170864849,-2441,4346,5297
1480,0.590772,1549,170865240,-2441,4346,5297
1481,0.591169,1550,170865637,-2441,4346,5297
1482,0.591571,1551,170866039,-6933,3859,5107
1483,0.591971,1552,170866439,-6933,3859,5107
1484,0.592368,1553,170866836,-7363,2888,5139
1485,0.592758,1554,170867226,-7363,2888,5139
1486,0.593157,1555,170867625,-7363,2888,5139
1487,0.593557,1556,170868025,-5476,2213,6014
1488,0.593961,1557,170868429,-5476,2213,6014
1489,0.594360,1558,170868828,-8603,1418,6279
1490,0.594736,1559,170869204,-8603,1418,6279
1491,0.595124,1560,170869592,-8603,1418,6279
1492,0.595518,1561,170869986,-6559,-455,4132
1493,0.595908,1562,170870376,-6559,-455,4132
1494,0.596300,1563,170870768,-6559,-455,4132
1495,0.596711,1564,170871179,-4228,-1609,2302
1496,0.597100,1565,170871568,-4228,-1609,2302
1497,0.597518,1566,170871986,-1665,-2206,2707
1498,0.597929,1567,170872397,-1665,-2206,2707
1499,0.598334,1568,170872802,4528,-3026,3382
1500,0.598737,1569,170873205,4528,-3026,3382
1501,0.599133,1570,170873601,4528,-3026,3382
1502,0.599535,1571,170874003,5924,-3449,3963
1503,0.599933,1572,170874401,5924,-3449,3963
1504,0.600316,1573,170874784,5520,-3518,5875
1505,0.600707,1574,170875175,5520,-3518,5875
1506,0.601098,1575,170875566,5520,-3518,5875
1507,0.601493,1576,170875961,6650,-3293,7474
1508,0.601897,1577,170876365,6650,-3293,7474
1509,0.602294,1578,170876762,6650,-3293,7474
1510,0.602697,1579,170877165,7056,-2624,6265
1511,0.603080,1580,170877548,7056,-2624,6265
1512,0.603484,1581,170877952,7370,-1956,4585
1513,0.603887,1582,170878355,7370,-1956,4585
1514,0.604290,1583,170878758,7370,-1956,4585
1515,0.604689,1584,170879157,7588,-1411,3683
1516,0.605071,1585,170879539,7588,-1411,3683
1517,0.605456,1586,170879924,7353,-1552,2144
1518,0.605857,1587,170880325,7353,-1552,2144
1519,0.606255,1588,170880723,7353,-1552,2144
1520,0.606652,1589,170881120,3265,-2067,1859
1521,0.607042,1590,170881510,3265,-2067,1859
1522,0.607442,1591,170881910,-3595,-1821,3474
1523,0.607851,1592,170882319,-3595,-1821,3474
1524,0.608256,1593,170882724,-3595,-1821,3474
1525,0.608661,1594,170883129,-3211,-1524,4850
1526,0.609059,1595,170883527,-3211,-1524,4850
1527,0.609472,1596,170883940,-546,-1300,6112
1528,0.609876,1597,170884344,-546,-1300,6112
1529,0.610287,1598,170884755,-546,-1300,6112
1530,0.610698,1599,170885166,1181,-702,7241
1531,0.611080,1600,170885548,1181,-702,7241
1532,0.611474,1601,170885942,3670,-215,6777
1533,0.611865,1602,170886333,3670,-215,6777
1534,0.612268,1603,170886736,3670,-215,6777
1535,0.612657,1604,170887125,3429,324,5721
1536,0.613044,1605,170887512,3429,324,5721
1537,0.613428,1606,170887896,5203,643,5114
1538,0.613808,1607,170888276,5203,643,5114
1539,0.614195,1608,170888663,5203,643,5114
1540,0.614584,1609,170889052,4591,976,3942
1541,0.614979,1610,170889447,4591,976,3942
1542,0.615368,1611,170889836,798,1522,3130
1543,0.615754,1612,170890222,798,1522,3130
1544,0.616148,1613,170890616,798,1522,3130
1545,0.616538,1614,170891006,-6236,2185,2955
1546,0.616950,1615,170891418,-6236,2185,2955
1547,0.617353,1616,170891821,-13347,2904,2523
1548,0.617749,1617,170892217,-13347,2904,2523
1549,0.618154,1618,170892622,-13347,2904,2523
1550,0.618555,1619,170893023,-7455,3067,1383
1551,0.618959,1620,170893427,-7455,3067,1383
1552,0.619363,1621,170893831,-790,3527,1454
1553,0.619765,1622,170894233,-790,3527,1454
1554,0.620168,1623,170894636,-790,3527,1454
1555,0.620581,1624,170895049,-2145,4472,3708
1556,0.620985,1625,170895453,-2145,4472,3708
1557,0.621383,1626,170895851,-2351,4524,5254
1558,0.621778,1627,170896246,-2351,4524,5254
1559,0.622189,1628,170896657,-2351,4524,5254
1560,0.622592,1629,170897060,-5367,3967,5454
1561,0.622991,1630,170897459,-5367,3967,5454
1562,0.623380,1631,170897848,-7511,2995,5172
1563,0.623791,1632,170898259,-7511,2995,5172
1564,0.624193,1633,170898661,-7511,2995,5172
1565,0.624580,1634,170899048,-5502,2195,5685
1566,0.624983,1635,170899451,-5502,2195,5685
1567,0.625380,1636,170899848,-8309,1619,6440
1568,0.625783,1637,170900251,-8309,1619,6440
1569,0.626184,1638,170900652,-8309,1619,6440
1570,0.626588,1639,170901056,-7062,-73,4793
1571,0.627007,1640,170901475,-7062,-73,4793
1572,0.627412,1641,170901880,-4936,-1489,2468
1573,0.627828,1642,170902296,-4936,-1489,2468
1574,0.628206,1643,170902674,-4936,-1489,2468
1575,0.628601,1644,170903069,-2697,-2271,2376
1576,0.629018,1645,170903486,-2697,-2271,2376
1577,0.629423,1646,170903891,4139,-3017,3174
1578,0.629822,1647,170904290,4139,-3017,3174
1579,0.630233,1648,170904701,4139,-3017,3174
1580,0.630620,1649,170905088,5745,-3324,3821
1581,0.631010,1650,170905478,5745,-3324,3821
1582,0.631408,1651,170905876,5367,-3469,5490
1583,0.631807,1652,170906275,5367,-3469,5490
1584,0.632210,1653,170906678,5367,-3469,5490
1585,0.632613,1654,170907081,6637,-3280,7308
1586,0.633018,1655,170907486,6637,-3280,7308
1587,0.633416,1656,170907884,7000,-2690,6623
1588,0.633816,1657,170908284,7000,-2690,6623
1589,0.634218,1658,170908686,7000,-2690,6623
1590,0.634621,1659,170909089,7561,-2101,4900
1591,0.635026,1660,170909494,7561,-2101,4900
1592,0.635417,1661,170909885,7539,-1414,3986
1593,0.635823,1662,170910291,7539,-1414,3986
1594,0.636227,1663,170910695,7539,-1414,3986
1595,0.636631,1664,170911099,7301,-1399,2480
1596,0.637028,1665,170911496,7301,-1399,2480
1597,0.637418,1666,170911886,4560,-2019,1635
1598,0.637826,1667,170912294,4560,-2019,1635
1599,0.638229,1668,170912697,4560,-2019,1635
1600,0.638632,1669,170913100,-2720,-1864,2993
1601,0.639034,1670,170913502,-2720,-1864,2993
1602,0.639440,1671,170913908,-3776,-1530,4655
1603,0.639854,1672,170914322,-3776,-1530,4655
1604,0.640258,1673,170914726,-3776,-1530,4655
1605,0.640668,1674,170915136,-889,-1386,5943
1606,0.641070,1675,170915538,-889,-1386,5943
1607,0.641489,1676,170915957,583,-807,7075
1608,0.641885,1677,170916353,583,-807,7075
1609,0.642288,1678,170916756,583,-807,7075
1610,0.642689,1679,170917157,3385,-334,6848
1611,0.643077,1680,170917545,3385,-334,6848
1612,0.643477,1681,170917945,3345,229,5970
1613,0.643868,1682,170918336,3345,229,5970
1614,0.644257,1683,170918725,3345,229,5970
1615,0.644639,1684,170919107,4566,697,5393
1616,0.645002,1685,170919470,4566,697,5393
1617,0.645385,1686,170919853,5330,878,4110
1618,0.645784,1687,170920252,5330,878,4110
1619,0.646170,1688,170920638,5330,878,4110
1620,0.646564,1689,170921032,1200,1425,3048
1621,0.646954,1690,170921422,1200,1425,3048
1622,0.647344,1691,170921812,-5268,2017,2941
1623,0.647753,1692,170922221,-5268,2017,2941
1624,0.648149,1693,170922617,-5268,2017,2941
1625,0.648555,1694,170923023,-12049,2801,2821
1626,0.648954,1695,170923422,-12049,2801,2821
1627,0.649357,1696,170923825,-7494,2974,1702
1628,0.649760,1697,170924228,-7494,2974,1702
1629,0.650164,1698,170924632,-7494,2974,1702
1630,0.650578,1699,170925046,-1480,3319,1161
1631,0.650983,1700,170925451,-1480,3319,1161
1632,0.651381,1701,170925849,-3136,4438,3157
1633,0.651776,1702,170926244,-3136,4438,3157
1634,0.652186,1703,170926654,-3136,4438,3157
1635,0.652582,1704,170927050,-2336,4634,5035
1636,0.652987,1705,170927455,-2336,4634,5035
1637,0.653377,1706,170927845,-4159,4092,5411
1638,0.653788,1707,170928256,-4159,4092,5411
1639,0.654183,1708,170928651,-4159,4092,5411
1640,0.654593,1709,170929061,-7706,3258,5162
1641,0.654999,1710,170929467,-7706,3258,5162
1642,0.655396,1711,170929864,-5888,2349,5519
1643,0.655804,1712,170930272,-5888,2349,5519
1644,0.656200,1713,170930668,-5888,2349,5519
1645,0.656603,1714,170931071,-7881,1648,6435
1646,0.657015,1715,170931483,-7881,1648,6435
1647,0.657413,1716,170931881,-8248,286,5110
1648,0.657811,1717,170932279,-8248,286,5110
1649,0.658213,1718,170932681,-8248,286,5110
1650,0.658615,1719,170933083,-5303,-1302,2666
1651,0.659026,1720,170933494,-5303,-1302,2666
1652,0.659430,1721,170933898,-3005,-2124,2398
1653,0.659846,1722,170934314,-3005,-2124,2398
1654,0.660257,1723,170934725,-3005,-2124,2398
1655,0.660667,1724,170935135,3399,-2846,3206
1656,0.661057,1725,170935525,3399,-2846,3206
1657,0.661436,1726,170935904,5927,-3346,3637
1658,0.661831,1727,170936299,5927,-3346,3637
1659,0.662229,1728,170936697,5927,-3346,3637
1660,0.662630,1729,170937098,5624,-3496,5152
1661,0.663034,1730,170937502,5624,-3496,5152
1662,0.663423,1731,170937891,6863,-3328,7066
1663,0.663830,1732,170938298,6863,-3328,7066
1664,0.664232,1733,170938700,6863,-3328,7066
1665,0.664635,1734,170939103,7227,-2794,6803
1666,0.665041,1735,170939509,7227,-2794,6803
1667,0.665437,1736,170939905,7142,-2174,5153
1668,0.665846,1737,170940314,7142,-2174,5153
1669,0.666241,1738,170940709,7142,-2174,5153
1670,0.666644,1739,170941112,7262,-1448,4079
1671,0.667040,1740,170941508,7262,-1448,4079
1672,0.667440,1741,170941908,7148,-1314,2725
1673,0.667854,1742,170942322,7148,-1314,2725
1674,0.668249,1743,170942717,7148,-1314,2725
1675,0.668658,1744,170943126,5219,-1943,1732
1676,0.669047,1745,170943515,5219,-1943,1732
1677,0.669460,1746,170943928,-1688,-1934,2810
1678,0.669870,1747,170944338,-1688,-1934,2810
1679,0.670280,1748,170944748,-1688,-1934,2810
1680,0.670691,1749,170945159,-4300,-1593,4342
1681,0.671096,1750,170945564,-4300,-1593,4342
1682,0.671510,1751,170945978,-1263,-1500,5632
1683,0.671922,1752,170946390,-1263,-1500,5632
1684,0.672333,1753,170946801,456,-967,6951
1685,0.672736,1754,170947204,456,-967,6951
1686,0.673111,1755,170947579,456,-967,6951
1687,0.673513,1756,170947981,3253,-450,7001
1688,0.673908,1757,170948376,3253,-450,7001
1689,0.674310,1758,170948778,3526,89,6194
1690,0.674705,1759,170949173,3526,89,6194
1691,0.675095,1760,170949563,3526,89,6194
1692,0.675480,1761,170949948,4304,614,5549
1693,0.675875,1762,170950343,4304,614,5549
1694,0.676265,1763,170950733,4304,614,5549
1695,0.676659,1764,170951127,5890,752,4317
1696,0.677047,1765,170951515,5890,752,4317
1697,0.677430,1766,170951898,1349,1421,3049
1698,0.677829,1767,170952297,1349,1421,3049
1699,0.678197,1768,170952665,1349,1421,3049
1700,0.678585,1769,170953053,-3813,1852,2825
1701,0.678984,1770,170953452,-3813,1852,2825
1702,0.679374,1771,170953842,-10821,2557,2864
1703,0.679779,1772,170954247,-10821,2557,2864
1704,0.680183,1773,170954651,-10821,2557,2864
1705,0.680582,1774,170955050,-9612,3063,1843
1706,0.680978,1775,170955446,-9612,3063,1843
1707,0.681367,1776,170955835,-2867,3248,1071
1708,0.681778,1777,170956246,-2867,3248,1071
1709,0.682173,1778,170956641,-2867,3248,1071
1710,0.682573,1779,170957041,-2452,4264,2893
1711,0.682985,1780,170957453,-2452,4264,2893
1712,0.683377,1781,170957845,-1129,4577,5083
1713,0.683773,1782,170958241,-1129,4577,5083
1714,0.684184,1783,170958652,-1129,4577,5083
1715,0.684582,1784,170959050,-3605,4195,5499
1716,0.684995,1785,170959463,-3605,4195,5499
1717,0.685386,1786,170959854,-8176,3513,5144
1718,0.685793,1787,170960261,-8176,3513,5144
1719,0.686195,1788,170960663,-8176,3513,5144
1720,0.686598,1789,170961066,-5847,2484,5350
1721,0.687010,1790,170961478,-5847,2484,5350
1722,0.687400,1791,170961868,-6572,1734,6397
1723,0.687805,1792,170962273,-6572,1734,6397
1724,0.688205,1793,170962673,-6572,1734,6397
1725,0.688609,1794,170963077,-8618,643,5473
1726,0.689012,1795,170963480,-8618,643,5473
1727,0.689402,1796,170963870,-6008,-1039,2908
1728,0.689812,1797,170964280,-6008,-1039,2908
1729,0.690223,1798,170964691,-6008,-1039,2908
1730,0.690633,1799,170965101,-3557,-1996,2256
1731,0.691036,1800,170965504,-3557,-1996,2256
1732,0.691431,1801,170965899,2447,-2669,3102
1733,0.691835,1802,170966303,2447,-2669,3102
1734,0.692238,1803,170966706,2447,-2669,3102
1735,0.692636,1804,170967104,5751,-3213,3686
1736,0.693032,1805,170967500,5751,-3213,3686
1737,0.693422,1806,170967890,5494,-3466,4873
1738,0.693823,1807,170968291,5494,-3466,4873
1739,0.694220,1808,170968688,5494,-3466,4873
1740,0.694609,1809,170969077,6399,-3460,6749
1741,0.694979,1810,170969447,6399,-3460,6749
1742,0.695381,1811,170969849,6827,-2962,7009
1743,0.695778,1812,170970246,6827,-2962,7009
1744,0.696175,1813,170970643,6827,-2962,7009
1745,0.696578,1814,170971046,7253,-2335,5469
1746,0.696978,1815,170971446,7253,-2335,5469
1747,0.697375,1816,170971843,7369,-1557,4190
1748,0.697785,1817,170972253,7369,-1557,4190
1749,0.698172,1818,170972640,7369,-1557,4190
1750,0.698583,1819,170973051,7014,-1319,2818
1751,0.698978,1820,170973446,7014,-1319,2818
1752,0.699375,1821,170973843,6092,-1937,1611
1753,0.699785,1822,170974253,6092,-1937,1611
1754,0.700188,1823,170974656,6092,-1937,1611
1755,0.700584,1824,170975052,-392,-2008,2518
1756,0.701003,1825,170975471,-392,-2008,2518
1757,0.701408,1826,170975876,-4420,-1608,4226
1758,0.701823,1827,170976291,-4420,-1608,4226
1759,0.702234,1828,170976702,-4420,-1608,4226
1760,0.702638,1829,170977106,-1752,-1473,5511
1761,0.703049,1830,170977517,-1752,-1473,5511
1762,0.703466,1831,170977934,-82,-1037,6838
1763,0.703878,1832,170978346,-82,-1037,6838
1764,0.704287,1833,170978755,2933,-500,7161
1765,0.704683,1834,170979151,2933,-500,7161
1766,0.705077,1835,170979545,2933,-500,7161
1767,0.705488,1836,170979956,3814,66,6430
1768,0.705876,1837,170980344,3814,66,6430
1769,0.706270,1838,170980738,3814,66,6430
1770,0.706660,1839,170981128,3902,646,5601
1771,0.707044,1840,170981512,3902,646,5601
1772,0.707436,1841,170981904,5869,695,4445
1773,0.707836,1842,170982304,5869,695,4445
1774,0.708220,1843,170982688,5869,695,4445
1775,0.708609,1844,170983077,1264,1460,3149
1776,0.709000,1845,170983468,1264,1460,3149
1777,0.709384,1846,170983852,-2468,1757,2874
1778,0.709779,1847,170984247,-2468,1757,2874
1779,0.710182,1848,170984650,-2468,1757,2874
1780,0.710585,1849,170985053,-8450,2224,2984
1781,0.710988,1850,170985456,-8450,2224,2984
1782,0.711378,1851,170985846,-11458,3193,1956
1783,0.711768,1852,170986236,-11458,3193,1956
1784,0.712171,1853,170986639,-11458,3193,1956
1785,0.712577,1854,170987045,-4856,3372,1054
1786,0.712979,1855,170987447,-4856,3372,1054
1787,0.713377,1856,170987845,-1991,4132,2652
1788,0.713779,1857,170988247,-1991,4132,2652
1789,0.714174,1858,170988642,-1991,4132,2652
1790,0.714576,1859,170989044,-237,4492,4890
1791,0.714978,1860,170989446,-237,4492,4890
1792,0.715368,1861,170989836,-2635,4199,5359
1793,0.715770,1862,170990238,-2635,4199,5359
1794,0.716174,1863,170990642,-2635,4199,5359
1795,0.716577,1864,170991045,-8386,3732,5302
1796,0.716980,1865,170991448,-8386,3732,5302
1797,0.717376,1866,170991844,-6334,2585,5372
1798,0.717780,1867,170992248,-6334,2585,5372
1799,0.718183,1868,170992651,-6334,2585,5372
1800,0.718585,1869,170993053,-5790,1670,6227
1801,0.718988,1870,170993456,-5790,1670,6227
1802,0.719377,1871,170993845,-8645,802,5768
1803,0.719780,1872,170994248,-8645,802,5768
1804,0.720183,1873,170994651,-8645,802,5768
1805,0.720582,1874,170995050,-6425,-1004,3291
1806,0.720994,1875,170995462,-6425,-1004,3291
1807,0.721393,1876,170995861,-4429,-1976,2250
1808,0.721814,1877,170996282,-4429,-1976,2250
1809,0.722225,1878,170996693,-4429,-1976,2250
1810,0.722636,1879,170997104,973,-2602,2911
1811,0.723034,1880,170997502,973,-2602,2911
1812,0.723416,1881,170997884,5727,-3273,3430
1813,0.723810,1882,170998278,5727,-3273,3430
1814,0.724215,1883,170998683,5727,-3273,3430
1815,0.724611,1884,170999079,5801,-3486,4432
1816,0.725015,1885,170999483,5801,-3486,4432
1817,0.725405,1886,170999873,6643,-3453,6616
1818,0.725812,1887,171000280,6643,-3453,6616
1819,0.726210,1888,171000678,6643,-3453,6616
1820,0.726619,1889,171001087,6858,-2944,7312
1821,0.727018,1890,171001486,6858,-2944,7312
1822,0.727415,1891,171001883,7309,-2339,5661
1823,0.727820,1892,171002288,7309,-2339,5661
1824,0.728195,1893,171002663,7309,-2339,5661
1825,0.728589,1894,171003057,7571,-1557,4398
1826,0.729001,1895,171003469,7571,-1557,4398
1827,0.729392,1896,171003860,6934,-1134,3314
1828,0.729799,1897,171004267,6934,-1134,3314
1829,0.730209,1898,171004677,6934,-1134,3314
1830,0.730613,1899,171005081,6380,-1676,1766
1831,0.731009,1900,171005477,6380,-1676,1766
1832,0.731399,1901,171005867,569,-1967,2157
1833,0.731813,1902,171006281,569,-1967,2157
1834,0.732208,1903,171006676,569,-1967,2157
1835,0.732618,1904,171007086,-4440,-1686,3853
1836,0.733023,1905,171007491,-4440,-1686,3853
1837,0.733428,1906,171007896,-2138,-1536,5234
1838,0.733844,1907,171008312,-2138,-1536,5234
1839,0.734254,1908,171008722,-2138,-1536,5234
1840,0.734665,1909,171009133,-538,-1081,6686
1841,0.735063,1910,171009531,-538,-1081,6686
1842,0.735482,1911,171009950,2228,-592,7223
1843,0.735886,1912,171010354,2228,-592,7223
1844,0.736281,1913,171010749,3807,-93,6477
1845,0.736684,1914,171011152,3807,-93,6477
1846,0.737078,1915,171011546,3807,-93,6477
1847,0.737494,1916,171011962,3471,515,5754
1848,0.737883,1917,171012351,3471,515,5754
1849,0.738278,1918,171012746,5888,688,4696
1850,0.738674,1919,171013142,5888,688,4696
1851,0.739063,1920,171013531,5888,688,4696
1852,0.739453,1921,171013921,1981,1211,3290
1853,0.739844,1922,171014312,1981,1211,3290
1854,0.740240,1923,171014708,1981,1211,3290
1855,0.740635,1924,171015103,-949,1609,2913
1856,0.741040,1925,171015508,-949,1609,2913
1857,0.741431,1926,171015899,-6084,2007,3145
1858,0.741845,1927,171016313,-6084,2007,3145
1859,0.742247,1928,171016715,-6084,2007,3145
1860,0.742650,1929,171017118,-13013,3075,2096
1861,0.743048,1930,171017516,-13013,3075,2096
1862,0.743458,1931,171017926,-6612,3344,779
1863,0.743861,1932,171018329,-6612,3344,779
1864,0.744263,1933,171018731,-6612,3344,779
1865,0.744651,1934,171019119,-779,3868,2295
1866,0.745023,1935,171019491,-779,3868,2295
1867,0.745420,1936,171019888,-169,4474,4909
1868,0.745828,1937,171020296,-169,4474,4909
1869,0.746229,1938,171020697,-169,4474,4909
1870,0.746625,1939,171021093,-2590,4335,5425
1871,0.747031,1940,171021499,-2590,4335,5425
1872,0.747429,1941,171021897,-8394,3883,5097
1873,0.747828,1942,171022296,-8394,3883,5097
1874,0.748239,1943,171022707,-8394,3883,5097
1875,0.748634,1944,171023102,-6894,2788,5216
1876,0.749037,1945,171023505,-6894,2788,5216
1877,0.749434,1946,171023902,-5482,2037,6227
1878,0.749835,1947,171024303,-5482,2037,6227
1879,0.750246,1948,171024714,-5482,2037,6227
1880,0.750641,1949,171025109,-8814,1073,6136
1881,0.751046,1950,171025514,-8814,1073,6136
1882,0.751454,1951,171025922,-6629,-751,3548
1883,0.751864,1952,171026332,-6629,-751,3548
1884,0.752275,1953,171026743,-4567,-1822,2215
1885,0.752684,1954,171027152,-4567,-1822,2215
1886,0.753081,1955,171027549,-4567,-1822,2215
1887,0.753501,1956,171027969,-248,-2430,2878
1888,0.753912,1957,171028380,-248,-2430,2878
1889,0.754323,1958,171028791,5614,-3181,3367
1890,0.754727,1959,171029195,5614,-3181,3367
1891,0.755118,1960,171029586,5614,-3181,3367
1892,0.755526,1961,171029994,6224,-3561,4115
1893,0.755928,1962,171030396,6224,-3561,4115
1894,0.756334,1963,171030802,6277,-3561,6205
1895,0.756737,1964,171031205,6277,-3561,6205
1896,0.757126,1965,171031594,6277,-3561,6205
1897,0.757540,1966,171032008,6549,-3120,7426
1898,0.757943,1967,171032411,6549,-3120,7426
1899,0.758338,1968,171032806,7366,-2464,6031
1900,0.758749,1969,171033217,7366,-2464,6031
1901,0.759145,1970,171033613,7366,-2464,6031
1902,0.759554,1971,171034022,7669,-1731,4613
1903,0.759949,1972,171034417,7669,-1731,4613
1904,0.760360,1973,171034828,6818,-1217,3425
1905,0.760764,1974,171035232,6818,-1217,3425
1906,0.761160,1975,171035628,6818,-1217,3425
1907,0.761541,1976,171036009,6617,-1614,1772
1908,0.761933,1977,171036401,6617,-1614,1772
1909,0.762341,1978,171036809,1631,-1980,2068
1910,0.762746,1979,171037214,1631,-1980,2068
1911,0.763143,1980,171037611,1631,-1980,2068
1912,0.763550,1981,171038018,-4041,-1719,3764
1913,0.763961,1982,171038429,-4041,-1719,3764
1914,0.764372,1983,171038840,-2547,-1557,4960
1915,0.764784,1984,171039252,-2547,-1557,4960
1916,0.765194,1985,171039662,-2547,-1557,4960
1917,0.765605,1986,171040073,-941,-1146,6455
1918,0.766017,1987,171040485,-941,-1146,6455
1919,0.766422,1988,171040890,1854,-603,7431
1920,0.766829,1989,171041297,1854,-603,7431
1921,0.767232,1990,171041700,1854,-603,7431
1922,0.767635,1991,171042103,4263,-90,6668
1923,0.768030,1992,171042498,4263,-90,6668
1924,0.768428,1993,171042896,3468,504,5788
1925,0.768827,1994,171043295,3468,504,5788
1926,0.769216,1995,171043684,3468,504,5788
1927,0.769610,1996,171044078,5539,717,4854
1928,0.770002,1997,171044470,5539,717,4854
1929,0.770392,1998,171044860,2699,1130,3437
1930,0.770790,1999,171045258,2699,1130,3437
1931,0.771256,2000,171045724,2699,1130,3437
1932,0.771653,2001,171046121,-432,1659,2956
1933,0.772041,2002,171046509,-432,1659,2956
1934,0.772440,2003,171046908,-5435,2040,3129
1935,0.772849,2004,171047317,-5435,2040,3129
1936,0.773246,2005,171047714,-5435,2040,3129
1937,0.773643,2006,171048111,-13558,2906,2240
1938,0.774032,2007,171048500,-13558,2906,2240
1939,0.774415,2008,171048883,-7698,3250,860
1940,0.774819,2009,171049287,-7698,3250,860
1941,0.775216,2010,171049684,-7698,3250,860
1942,0.775614,2011,171050082,-274,3669,2070
1943,0.776011,2012,171050479,-274,3669,2070
1944,0.776401,2013,171050869,-457,4440,4610
1945,0.776804,2014,171051272,-457,4440,4610
1946,0.777201,2015,171051669,-457,4440,4610
1947,0.777603,2016,171052071,-2228,4323,5329
1948,0.777999,2017,171052467,-2228,4323,5329
1949,0.778369,2018,171052837,-7357,3842,5109
1950,0.778767,2019,171053235,-7357,3842,5109
1951,0.779163,2020,171053631,-7357,3842,5109
1952,0.779565,2021,171054033,-7352,2865,5121
1953,0.779963,2022,171054431,-7352,2865,5121
1954,0.780361,2023,171054829,-5382,2132,6070
1955,0.780758,2024,171055226,-5382,2132,6070
1956,0.781161,2025,171055629,-5382,2132,6070
1957,0.781575,2026,171056043,-8679,1363,6353
1958,0.781978,2027,171056446,-8679,1363,6353
1959,0.782376,2028,171056844,-6770,-467,4065
1960,0.782787,2029,171057255,-6770,-467,4065
1961,0.783197,2030,171057665,-6770,-467,4065
1962,0.783608,2031,171058076,-4590,-1665,2279
1963,0.784018,2032,171058486,-4590,-1665,2279
1964,0.784416,2033,171058884,-1357,-2218,2667
1965,0.784831,2034,171059299,-1357,-2218,2667
1966,0.785242,2035,171059710,-1357,-2218,2667
1967,0.785652,2036,171060120,5106,-3032,3327
1968,0.786048,2037,171060516,5106,-3032,3327
1969,0.786437,2038,171060905,6337,-3437,4105
1970,0.786832,2039,171061300,6337,-3437,4105
1971,0.787234,2040,171061702,6337,-3437,4105
1972,0.787644,2041,171062112,5803,-3478,6019
1973,0.788041,2042,171062509,5803,-3478,6019
1974,0.788438,2043,171062906,6415,-3266,7337
1975,0.788838,2044,171063306,6415,-3266,7337
1976,0.789240,2045,171063708,6415,-3266,7337
1977,0.789651,2046,171064119,7219,-2602,6195
1978,0.790047,2047,171064515,7219,-2602,6195
1979,0.790456,2048,171064924,7743,-1881,4721
1980,0.790852,2049,171065320,7743,-1881,4721
1981,0.791263,2050,171065731,7109,-1403,3493
1982,0.791666,2051,171066134,7109,-1403,3493
1983,0.792055,2052,171066523,7109,-1403,3493
1984,0.792467,2053,171066935,6687,-1640,1798
1985,0.792862,2054,171067330,6687,-1640,1798
1986,0.793264,2055,171067732,2595,-2086,1908
1987,0.793667,2056,171068135,2595,-2086,1908
1988,0.794062,2057,171068530,2595,-2086,1908
1989,0.794475,2058,171068943,-3662,-1857,3662
1990,0.794858,2059,171069326,-3662,-1857,3662
1991,0.795274,2060,171069742,-2967,-1583,4944
1992,0.795678,2061,171070146,-2967,-1583,4944
1993,0.796080,2062,171070548,-2967,-1583,4944
1994,0.796499,2063,171070967,-956,-1287,6324
1995,0.796908,2064,171071376,-956,-1287,6324
1996,0.797319,2065,171071787,1444,-696,7320
1997,0.797723,2066,171072191,1444,-696,7320
1998,0.798113,2067,171072581,1444,-696,7320
1999,0.798522,2068,171072990,4347,-172,6733
2000,0.798918,2069,171073386,4347,-172,6733
2001,0.799328,2070,171073796,3635,454,5849
2002,0.799715,2071,171074183,3635,454,5849
2003,0.800106,2072,171074574,3635,454,5849
2004,0.800491,2073,171074959,5424,707,4945
2005,0.800893,2074,171075361,5424,707,4945
2006,0.801275,2075,171075743,3758,979,3375
2007,0.801669,2076,171076137,3758,979,3375
2008,0.802058,2077,171076526,3758,979,3375
2009,0.802455,2078,171076923,-462,1712,2883
2010,0.802856,2079,171077324,-462,1712,2883
2011,0.803259,2080,171077727,-6025,2298,3388
2012,0.803661,2081,171078129,-6025,2298,3388
2013,0.804052,2082,171078520,-6025,2298,3388
2014,0.804462,2083,171078930,-13007,2999,2525
2015,0.804858,2084,171079326,-13007,2999,2525
2016,0.805261,2085,171079729,-7679,3158,974
2017,0.805665,2086,171080133,-7679,3158,974
2018,0.806059,2087,171080527,-7679,3158,974
2019,0.806464,2088,171080932,-402,3635,1840
2020,0.806865,2089,171081333,-402,3635,1840
2021,0.807262,2090,171081730,-402,3635,1840
2022,0.807648,2091,171082116,-1633,4647,4275
2023,0.808030,2092,171082498,-1633,4647,4275
2024,0.808419,2093,171082887,-2725,4378,5181
2025,0.808826,2094,171083294,-2725,4378,5181
2026,0.809228,2095,171083696,-2725,4378,5181
2027,0.809633,2096,171084101,-5887,3805,4944
2028,0.810035,2097,171084503,-5887,3805,4944
2029,0.810425,2098,171084893,-7191,2907,5051
2030,0.810826,2099,171085294,-7191,2907,5051
2031,0.811229,2100,171085697,-7191,2907,5051
2032,0.811620,2101,171086088,-5560,2115,6047
2033,0.812019,2102,171086487,-5560,2115,6047
2034,0.812409,2103,171086877,-8617,1429,6432
2035,0.812817,2104,171087285,-8617,1429,6432
2036,0.813215,2105,171087683,-8617,1429,6432
2037,0.813619,2106,171088087,-6928,-390,4356
2038,0.814023,2107,171088491,-6928,-390,4356
2039,0.814426,2108,171088894,-4521,-1702,2324
2040,0.814842,2109,171089310,-4521,-1702,2324
2041,0.815245,2110,171089713,-4521,-1702,2324
2042,0.815657,2111,171090125,-2021,-2239,2652
2043,0.816053,2112,171090521,-2021,-2239,2652
2044,0.816475,2113,171090943,4568,-3016,3271
2045,0.816869,2114,171091337,4568,-3016,3271
2046,0.817273,2115,171091741,6151,-3464,3717
2047,0.817672,2116,171092140,6151,-3464,3717
2048,0.818060,2117,171092528,6151,-3464,3717
2049,0.818473,2118,171092941,5503,-3478,5708
2050,0.818869,2119,171093337,5503,-3478,5708
2051,0.819272,2120,171093740,6526,-3199,7472
2052,0.819674,2121,171094142,6526,-3199,7472
2053,0.820071,2122,171094539,6526,-3199,7472
2054,0.820474,2123,171094942,7114,-2520,6529
2055,0.820884,2124,171095352,7114,-2520,6529
2056,0.821288,2125,171095756,7562,-1885,4903
2057,0.821691,2126,171096159,7562,-1885,4903
2058,0.822078,2127,171096546,7562,-1885,4903
2059,0.822486,2128,171096954,7376,-1327,3747
2060,0.822897,2129,171097365,7376,-1327,3747
2061,0.823301,2130,171097769,6864,-1473,1998
2062,0.823695,2131,171098163,6864,-1473,1998
2063,0.824084,2132,171098552,6864,-1473,1998
2064,0.824496,2133,171098964,3536,-2026,1649
2065,0.824893,2134,171099361,3536,-2026,1649
2066,0.825280,2135,171099748,-3114,-1773,3444
2067,0.825677,2136,171100145,-3114,-1773,3444
2068,0.826079,2137,171100547,-3114,-1773,3444
2069,0.826502,2138,171100970,-3315,-1574,4905
2070,0.826914,2139,171101382,-3315,-1574,4905
2071,0.827325,2140,171101793,-833,-1445,5964
2072,0.827736,2141,171102204,-833,-1445,5964
2073,0.828133,2142,171102601,-833,-1445,5964
2074,0.828527,2143,171102995,970,-759,7163
2075,0.828922,2144,171103390,970,-759,7163
2076,0.829324,2145,171103792,3960,-208,6989
2077,0.829734,2146,171104202,3960,-208,6989
2078,0.830125,2147,171104593,3960,-208,6989
2079,0.830534,2148,171105002,3438,325,5907
2080,0.830922,2149,171105390,3438,325,5907
2081,0.831317,2150,171105785,4749,607,4997
2082,0.831711,2151,171106179,4749,607,4997
2083,0.832102,2152,171106570,4749,607,4997
2084,0.832494,2153,171106962,4801,788,3732
2085,0.832889,2154,171107357,4801,788,3732
2086,0.833285,2155,171107753,1116,1495,3172
2087,0.833680,2156,171108148,1116,1495,3172
2088,0.834063,2157,171108531,1116,1495,3172
2089,0.834462,2158,171108930,-6005,2270,3312
2090,0.834864,2159,171109332,-6005,2270,3312
2091,0.835266,2160,171109734,-13102,2803,2686
2092,0.835663,2161,171110131,-13102,2803,2686
2093,0.836055,2162,171110523,-13102,2803,2686
2094,0.836462,2163,171110930,-7577,2920,1208
2095,0.836864,2164,171111332,-7577,2920,1208
2096,0.837266,2165,171111734,-709,3388,1488
2097,0.837663,2166,171112131,-709,3388,1488
2098,0.838058,2167,171112526,-709,3388,1488
2099,0.838463,2168,171112931,-1952,4477,3925
2100,0.838866,2169,171113334,-1952,4477,3925
2101,0.839268,2170,171113736,-2376,4591,5114
2102,0.839671,2171,171114139,-2376,4591,5114
2103,0.840060,2172,171114528,-2376,4591,5114
2104,0.840473,2173,171114941,-5235,3950,5046
2105,0.840868,2174,171115336,-5235,3950,5046
2106,0.841271,2175,171115739,-7582,3094,5088
2107,0.841674,2176,171116142,-7582,3094,5088
2108,0.842066,2177,171116534,-7582,3094,5088
2109,0.842472,2178,171116940,-5660,2384,5950
2110,0.842875,2179,171117343,-5660,2384,5950
2111,0.843277,2180,171117745,-8312,1691,6574
2112,0.843680,2181,171118148,-8312,1691,6574
2113,0.844074,2182,171118542,-8312,1691,6574
2114,0.844478,2183,171118946,-7302,-23,4731
2115,0.844868,2184,171119336,-7302,-23,4731
2116,0.845271,2185,171119739,-5068,-1366,2520
2117,0.845683,2186,171120151,-5068,-1366,2520
2118,0.846079,2187,171120547,-5068,-1366,2520
2119,0.846494,2188,171120962,-3124,-2080,2578
2120,0.846905,2189,171121373,-3124,-2080,2578
2121,0.847310,2190,171121778,3775,-2900,3178
2122,0.847708,2191,171122176,3775,-2900,3178
2123,0.848106,2192,171122574,3775,-2900,3178
2124,0.848507,2193,171122975,6001,-3352,3493
2125,0.848910,2194,171123378,6001,-3352,3493
2126,0.849308,2195,171123776,5717,-3590,5302
2127,0.849718,2196,171124186,5717,-3590,5302
2128,0.850109,2197,171124577,5717,-3590,5302
2129,0.850518,2198,171124986,6737,-3337,7284
2130,0.850914,2199,171125382,6737,-3337,7284
2131,0.851324,2200,171125792,7219,-2671,6785
2132,0.851727,2201,171126195,7219,-2671,6785
2133,0.852118,2202,171126586,7219,-2671,6785
2134,0.852533,2203,171127001,7825,-2140,5117
2135,0.852937,2204,171127405,7825,-2140,5117
2136,0.853340,2205,171127808,7460,-1477,3904
2137,0.853742,2206,171128210,7460,-1477,3904
2138,0.854132,2207,171128600,7460,-1477,3904
2139,0.854545,2208,171129013,6813,-1462,2265
2140,0.854940,2209,171129408,6813,-1462,2265
2141,0.855352,2210,171129820,4412,-2026,1764
2142,0.855755,2211,171130223,4412,-2026,1764
2143,0.856151,2212,171130619,4412,-2026,1764
2144,0.856558,2213,171131026,-2459,-1831,3369
2145,0.856969,2214,171131437,-2459,-1831,3369
2146,0.857380,2215,171131848,-3871,-1604,4543
2147,0.857783,2216,171132251,-3871,-1604,4543
2148,0.858201,2217,171132669,-3871,-1604,4543
2149,0.858612,2218,171133080,-1146,-1518,5655
2150,0.859018,2219,171133486,-1146,-1518,5655
2151,0.859422,2220,171133890,509,-797,7149
2152,0.859829,2221,171134297,509,-797,7149
2153,0.860223,2222,171134691,509,-797,7149
2154,0.860632,2223,171135100,3643,-251,7000
2155,0.861031,2224,171135499,3643,-251,7000
2156,0.861412,2225,171135880,3553,214,5854
2157,0.861793,2226,171136261,3553,214,5854
2158,0.862182,2227,171136650,3553,214,5854
2159,0.862576,2228,171137044,4675,576,5078
2160,0.862972,2229,171137440,4675,576,5078
2161,0.863361,2230,171137829,5409,836,3997
2162,0.863756,2231,171138224,5409,836,3997
2163,0.864152,2232,171138620,5409,836,3997
2164,0.864543,2233,171139011,1456,1524,3241
2165,0.864939,2234,171139407,1456,1524,3241
2166,0.865328,2235,171139796,-5222,2055,3124
2167,0.865738,2236,171140206,-5222,2055,3124
2168,0.866128,2237,171140596,-5222,2055,3124
2169,0.866542,2238,171141010,-12668,2800,2733
2170,0.866937,2239,171141405,-12668,2800,2733
2171,0.867350,2240,171141818,-8003,3006,1684
2172,0.867745,2241,171142213,-8003,3006,1684
2173,0.868149,2242,171142617,-8003,3006,1684
2174,0.868553,2243,171143021,-1378,3337,1391
2175,0.868961,2244,171143429,-1378,3337,1391
2176,0.869357,2245,171143825,-2585,4462,3320
2177,0.869768,2246,171144236,-2585,4462,3320
2178,0.870164,2247,171144632,-2585,4462,3320
2179,0.870570,2248,171145038,-2040,4623,5001
2180,0.870983,2249,171145451,-2040,4623,5001
2181,0.871381,2250,171145849,-4344,4080,5314
2182,0.871784,2251,171146252,-4344,4080,5314
2183,0.872187,2252,171146655,-4344,4080,5314
2184,0.872582,2253,171147050,-7701,3262,5193
2185,0.872986,2254,171147454,-7701,3262,5193
2186,0.873392,2255,171147860,-5635,2394,5619
2187,0.873799,2256,171148267,-5635,2394,5619
2188,0.874202,2257,171148670,-5635,2394,5619
2189,0.874605,2258,171149073,-7498,1695,6456
2190,0.875009,2259,171149477,-7498,1695,6456
2191,0.875407,2260,171149875,-7942,286,5040
2192,0.875812,2261,171150280,-7942,286,5040
2193,0.876215,2262,171150683,-7942,286,5040
2194,0.876618,2263,171151086,-5564,-1246,2701
2195,0.877031,2264,171151499,-5564,-1246,2701
2196,0.877436,2265,171151904,-3279,-2062,2465
2197,0.877851,2266,171152319,-3279,-2062,2465
2198,0.878235,2267,171152703,-3279,-2062,2465
2199,0.878611,2268,171153079,3300,-2798,2997
2200,0.878983,2269,171153451,3300,-2798,2997
2201,0.879373,2270,171153841,5556,-3392,3554
2202,0.879782,2271,171154250,5556,-3392,3554
2203,0.880185,2272,171154653,5556,-3392,3554
2204,0.880583,2273,171155051,5413,-3534,5281
2205,0.880994,2274,171155462,5413,-3534,5281
2206,0.881384,2275,171155852,6413,-3366,7187
2207,0.881799,2276,171156267,6413,-3366,7187
2208,0.882202,2277,171156670,6413,-3366,7187
2209,0.882605,2278,171157073,6774,-2911,6861
2210,0.883008,2279,171157476,6774,-2911,6861
2211,0.883406,2280,171157874,7788,-2227,5136
2212,0.883805,2281,171158273,7788,-2227,5136
2213,0.884215,2282,171158683,7788,-2227,5136
2214,0.884618,2283,171159086,7583,-1461,4023
2215,0.885014,2284,171159482,7583,-1461,4023
2216,0.885404,2285,171159872,6848,-1363,2546
2217,0.885810,2286,171160278,6848,-1363,2546
2218,0.886221,2287,171160689,6848,-1363,2546
2219,0.886616,2288,171161084,5555,-1976,1596
2220,0.887020,2289,171161488,5555,-1976,1596
2221,0.887409,2290,171161877,-1489,-1854,2880
2222,0.887832,2291,171162300,-1489,-1854,2880
2223,0.888243,2292,171162711,-4187,-1553,4502
2224,0.888654,2293,171163122,-4187,-1553,4502
2225,0.889058,2294,171163526,-4187,-1553,4502
2226,0.889476,2295,171163944,-1118,-1457,5663
2227,0.889887,2296,171164355,-1118,-1457,5663
2228,0.890298,2297,171164766,138,-884,7000
2229,0.890701,2298,171165169,138,-884,7000
2230,0.891082,2299,171165550,138,-884,7000
2231,0.891499,2300,171165967,3052,-375,7034
2232,0.891902,2301,171166370,3052,-375,7034
2233,0.892298,2302,171166766,3526,155,6063
2234,0.892693,2303,171167161,3526,155,6063
2235,0.893074,2304,171167542,3526,155,6063
2236,0.893472,2305,171167940,4292,613,5364
2237,0.893866,2306,171168334,4292,613,5364
2238,0.894261,2307,171168729,5905,745,4281
2239,0.894648,2308,171169116,5905,745,4281
2240,0.895032,2309,171169500,5905,745,4281
2241,0.895415,2310,171169883,1137,1473,3175
2242,0.895815,2311,171170283,1137,1473,3175
2243,0.896209,2312,171170677,1137,1473,3175
2244,0.896606,2313,171171074,-3834,1829,2939
2245,0.897003,2314,171171471,-3834,1829,2939
2246,0.897400,2315,171171868,-10732,2532,2913
2247,0.897807,2316,171172275,-10732,2532,2913
2248,0.898204,2317,171172672,-10732,2532,2913
2249,0.898608,2318,171173076,-9501,3073,1925
2250,0.899008,2319,171173476,-9501,3073,1925
2251,0.899404,2320,171173872,-2517,3218,1174
2252,0.899812,2321,171174280,-2517,3218,1174
2253,0.900215,2322,171174683,-2517,3218,1174
2254,0.900610,2323,171175078,-2553,4263,2880
2255,0.901011,2324,171175479,-2553,4263,2880
2256,0.901401,2325,171175869,-1419,4502,4903
2257,0.901808,2326,171176276,-1419,4502,4903
2258,0.902211,2327,171176679,-1419,4502,4903
2259,0.902613,2328,171177081,-3466,4128,5349
2260,0.903018,2329,171177486,-3466,4128,5349
2261,0.903408,2330,171177876,-8034,3560,5282
2262,0.903816,2331,171178284,-8034,3560,5282
2263,0.904219,2332,171178687,-8034,3560,5282
2264,0.904623,2333,171179091,-5983,2541,5503
2265,0.905026,2334,171179494,-5983,2541,5503
2266,0.905416,2335,171179884,-6584,1719,6350
2267,0.905823,2336,171180291,-6584,1719,6350
2268,0.906225,2337,171180693,-6584,1719,6350
2269,0.906628,2338,171181096,-8455,668,5393
2270,0.907031,2339,171181499,-8455,668,5393
2271,0.907429,2340,171181897,-5858,-1038,3019
2272,0.907837,2341,171182305,-5858,-1038,3019
2273,0.908243,2342,171182711,-3712,-1939,2382
2274,0.908632,2343,171183100,-3712,-1939,2382
2275,0.909030,2344,171183498,-3712,-1939,2382
2276,0.909435,2345,171183903,2039,-2696,3086
2277,0.909844,2346,171184312,2039,-2696,3086
2278,0.910247,2347,171184715,5574,-3377,3405
2279,0.910650,2348,171185118,5574,-3377,3405
2280,0.911048,2349,171185516,5574,-3377,3405
2281,0.911429,2350,171185897,5530,-3538,4726
2282,0.911816,2351,171186284,5530,-3538,4726
2283,0.912224,2352,171186692,5530,-3538,4726
2284,0.912620,2353,171187088,6603,-3433,6922
2285,0.913025,2354,171187493,6603,-3433,6922
2286,0.913415,2355,171187883,6660,-2955,7067
2287,0.913818,2356,171188286,6660,-2955,7067
2288,0.914208,2357,171188676,6660,-2955,7067
2289,0.914606,2358,171189074,6984,-2365,5427
2290,0.915010,2359,171189478,6984,-2365,5427
2291,0.915400,2360,171189868,7797,-1567,4249
2292,0.915805,2361,171190273,7797,-1567,4249
2293,0.916209,2362,171190677,7797,-1567,4249
2294,0.916612,2363,171191080,7305,-1281,3122
2295,0.917018,2364,171191486,7305,-1281,3122
2296,0.917408,2365,171191876,5963,-1825,1753
2297,0.917816,2366,171192284,5963,-1825,1753
2298,0.918218,2367,171192686,5963,-1825,1753
2299,0.918620,2368,171193088,-269,-1957,2438
2300,0.919033,2369,171193501,-269,-1957,2438
2301,0.919437,2370,171193905,-4407,-1578,4112
2302,0.919846,2371,171194314,-4407,-1578,4112
2303,0.920258,2372,171194726,-1574,-1510,5346
2304,0.920668,2373,171195136,-1574,-1510,5346
2305,0.921065,2374,171195533,-1574,-1510,5346
2306,0.921485,2375,171195953,-13,-1023,6745
2307,0.921894,2376,171196362,-13,-1023,6745
2308,0.922299,2377,171196767,2436,-482,7132
2309,0.922694,2378,171197162,2436,-482,7132
2310,0.923082,2379,171197550,2436,-482,7132
2311,0.923486,2380,171197954,3392,-29,6295
2312,0.923888,2381,171198356,3392,-29,6295
2313,0.924290,2382,171198758,3721,597,5598
2314,0.924685,2383,171199153,3721,597,5598
2315,0.925066,2384,171199534,3721,597,5598
2316,0.925463,2385,171199931,6321,718,4613
2317,0.925857,2386,171200325,6321,718,4613
2318,0.926252,2387,171200720,1434,1357,3207
2319,0.926645,2388,171201113,1434,1357,3207
2320,0.927038,2389,171201506,1434,1357,3207
2321,0.927420,2390,171201888,-2257,1705,2886
2322,0.927829,2391,171202297,-2257,1705,2886
2323,0.928205,2392,171202673,-2257,1705,2886
2324,0.928584,2393,171203052,-7835,2167,3090
2325,0.928990,2394,171203458,-7835,2167,3090
2326,0.929388,2395,171203856,-11850,3079,1978
2327,0.929790,2396,171204258,-11850,3079,1978
2328,0.930193,2397,171204661,-11850,3079,1978
2329,0.930597,2398,171205065,-4885,3300,949
2330,0.930983,2399,171205451,-4885,3300,949
2331,0.931380,2400,171205848,-1364,3980,2560
2332,0.931790,2401,171206258,-1364,3980,2560
2333,0.932193,2402,171206661,-1364,3980,2560
2334,0.932596,2403,171207064,-543,4381,4889
2335,0.933000,2404,171207468,-543,4381,4889
2336,0.933397,2405,171207865,-3008,4195,5391
2337,0.933798,2406,171208266,-3008,4195,5391
2338,0.934201,2407,171208669,-3008,4195,5391
2339,0.934604,2408,171209072,-8268,3761,5208
2340,0.935007,2409,171209475,-8268,3761,5208
2341,0.935404,2410,171209872,-6487,2764,5393
2342,0.935818,2411,171210286,-6487,2764,5393
2343,0.936220,2412,171210688,-6487,2764,5393
2344,0.936622,2413,171211090,-5784,1916,6307
2345,0.937018,2414,171211486,-5784,1916,6307
2346,0.937407,2415,171211875,-8976,958,5794
2347,0.937821,2416,171212289,-8976,958,5794
2348,0.938224,2417,171212692,-8976,958,5794
2349,0.938618,2418,171213086,-6452,-793,3296
2350,0.939031,2419,171213499,-6452,-793,3296
2351,0.939435,2420,171213903,-3897,-1824,2331
2352,0.939845,2421,171214313,-3897,-1824,2331
2353,0.940256,2422,171214724,620,-2446,3055
2354,0.940660,2423,171215128,620,-2446,3055
2355,0.941056,2424,171215524,620,-2446,3055
2356,0.941466,2425,171215934,5098,-3179,3440
2357,0.941861,2426,171216329,5098,-3179,3440
2358,0.942271,2427,171216739,5580,-3515,4429
2359,0.942672,2428,171217140,5580,-3515,4429
2360,0.943062,2429,171217530,5580,-3515,4429
2361,0.943474,2430,171217942,6363,-3529,6488
2362,0.943870,2431,171218338,6363,-3529,6488
2363,0.944268,2432,171218736,6724,-3138,7163
2364,0.944661,2433,171219129,6724,-3138,7163
2365,0.945034,2434,171219502,6724,-3138,7163
2366,0.945425,2435,171219893,7254,-2493,5703
2367,0.945826,2436,171220294,7254,-2493,5703
2368,0.946228,2437,171220696,7719,-1687,4404
2369,0.946631,2438,171221099,7719,-1687,4404
2370,0.947031,2439,171221499,7719,-1687,4404
2371,0.947421,2440,171221889,7208,-1347,3316
2372,0.947829,2441,171222297,7208,-1347,3316
2373,0.948226,2442,171222694,6610,-1760,1836
2374,0.948624,2443,171223092,6610,-1760,1836
2375,0.949023,2444,171223491,6610,-1760,1836
2376,0.949413,2445,171223881,1124,-2028,2249
2377,0.949822,2446,171224290,1124,-2028,2249
2378,0.950218,2447,171224686,1124,-2028,2249
2379,0.950615,2448,171225083,-4197,-1699,3967
2380,0.951023,2449,171225491,-4197,-1699,3967
2381,0.951421,2450,171225889,-2056,-1501,5179
2382,0.951837,2451,171226305,-2056,-1501,5179
2383,0.952255,2452,171226723,-486,-1120,6468
2384,0.952666,2453,171227134,-486,-1120,6468
2385,0.953063,2454,171227531,-486,-1120,6468
2386,0.953483,2455,171227951,1887,-593,7133
2387,0.953879,2456,171228347,1887,-593,7133
2388,0.954281,2457,171228749,3707,-85,6492
2389,0.954678,2458,171229146,3707,-85,6492
2390,0.955067,2459,171229535,3707,-85,6492
2391,0.955471,2460,171229939,3531,585,5788
2392,0.955867,2461,171230335,3531,585,5788
2393,0.956256,2462,171230724,5879,751,4830
2394,0.956646,2463,171231114,5879,751,4830
2395,0.957037,2464,171231505,5879,751,4830
2396,0.957420,2465,171231888,2189,1190,3325
2397,0.957813,2466,171232281,2189,1190,3325
2398,0.958204,2467,171232672,2189,1190,3325
2399,0.958593,2468,171233061,-1125,1698,2854
2400,0.958989,2469,171233457,-1125,1698,2854
2401,0.959389,2470,171233857,-5851,1993,3271
2402,0.959797,2471,171234265,-5851,1993,3271
2403,0.960194,2472,171234662,-5851,1993,3271
2404,0.960597,2473,171235065,-13202,3053,2206
2405,0.961003,2474,171235471,-13202,3053,2206
2406,0.961391,2475,171235859,-7111,3356,693
2407,0.961761,2476,171236229,-7111,3356,693
2408,0.962153,2477,171236621,-7111,3356,693
2409,0.962553,2478,171237021,-671,3746,2135
2410,0.962966,2479,171237434,-671,3746,2135
2411,0.963369,2480,171237837,-491,4484,4837
2412,0.963772,2481,171238240,-491,4484,4837
2413,0.964168,2482,171238636,-491,4484,4837
2414,0.964572,2483,171239040,-2494,4278,5465
2415,0.964985,2484,171239453,-2494,4278,5465
2416,0.965383,2485,171239851,-7509,3828,5005
2417,0.965786,2486,171240254,-7509,3828,5005
2418,0.966182,2487,171240650,-7509,3828,5005
2419,0.966593,2488,171241061,-6467,2803,5131
2420,0.966999,2489,171241467,-6467,2803,5131
2421,0.967389,2490,171241857,-5435,2079,6276
2422,0.967805,2491,171242273,-5435,2079,6276
2423,0.968208,2492,171242676,-5435,2079,6276
2424,0.968612,2493,171243080,-9116,1291,6270
2425,0.969010,2494,171243478,-9116,1291,6270
2426,0.969416,2495,171243884,-6540,-618,3675
2427,0.969829,2496,171244297,-6540,-618,3675
2428,0.970239,2497,171244707,-4231,-1735,2178
2429,0.970650,2498,171245118,-4231,-1735,2178
2430,0.971054,2499,171245522,-4231,-1735,2178
2431,0.971472,2500,171245940,-981,-2216,2828
2432,0.971883,2501,171246351,-981,-2216,2828
2433,0.972294,2502,171246762,4629,-3033,3323
2434,0.972698,2503,171247166,4629,-3033,3323
2435,0.973079,2504,171247547,4629,-3033,3323
2436,0.973491,2505,171247959,5594,-3477,3960
2437,0.973895,2506,171248363,5594,-3477,3960
2438,0.974298,2507,171248766,6204,-3534,6048
2439,0.974701,2508,171249169,6204,-3534,6048
2440,0.975082,2509,171249550,6204,-3534,6048
2441,0.975483,2510,171249951,6778,-3232,7453
2442,0.975885,2511,171250353,6778,-3232,7453
2443,0.976288,2512,171250756,6760,-2537,6159
2444,0.976685,2513,171251153,6760,-2537,6159
2445,0.977075,2514,171251543,6760,-2537,6159
2446,0.977479,2515,171251947,7539,-1786,4657
2447,0.977882,2516,171252350,7539,-1786,4657
2448,0.978270,2517,171252738,7588,-1320,3499
2449,0.978658,2518,171253126,7588,-1320,3499
2450,0.979040,2519,171253508,7588,-1320,3499
2451,0.979438,2520,171253906,7202,-1590,1861
2452,0.979837,2521,171254305,7202,-1590,1861
2453,0.980248,2522,171254716,2558,-2013,1914
2454,0.980643,2523,171255111,2558,-2013,1914
2455,0.981040,2524,171255508,2558,-2013,1914
2456,0.981437,2525,171255905,-3952,-1755,3599
2457,0.981845,2526,171256313,-3952,-1755,3599
2458,0.982262,2527,171256730,-2860,-1520,4895
2459,0.982665,2528,171257133,-2860,-1520,4895
2460,0.983063,2529,171257531,-2860,-1520,4895
2461,0.983482,2530,171257950,-449,-1291,6227
2462,0.983893,2531,171258361,-449,-1291,6227
2463,0.984296,2532,171258764,1465,-716,7226
2464,0.984699,2533,171259167,1465,-716,7226
2465,0.985087,2534,171259555,1465,-716,7226
2466,0.985490,2535,171259958,3639,-168,6740
2467,0.985893,2536,171260361,3639,-168,6740
2468,0.986290,2537,171260758,3247,441,5980
2469,0.986685,2538,171261153,3247,441,5980
2470,0.987067,2539,171261535,3247,441,5980
2471,0.987464,2540,171261932,5447,722,5105
2472,0.987852,2541,171262320,5447,722,5105
2473,0.988249,2542,171262717,3965,992,3692
2474,0.988639,2543,171263107,3965,992,3692
2475,0.989028,2544,171263496,3965,992,3692
2476,0.989411,2545,171263879,100,1642,3062
2477,0.989810,2546,171264278,100,1642,3062
2478,0.990200,2547,171264668,100,1642,3062
2479,0.990590,2548,171265058,-5941,2161,3125
2480,0.990995,2549,171265463,-5941,2161,3125
2481,0.991394,2550,171265862,-13414,2782,2317
2482,0.991784,2551,171266252,-13414,2782,2317
2483,0.992188,2552,171266656,-13414,2782,2317
2484,0.992586,2553,171267054,-7776,3136,820
2485,0.992989,2554,171267457,-7776,3136,820
2486,0.993386,2555,171267854,-616,3593,1686
2487,0.993792,2556,171268260,-616,3593,1686
2488,0.994195,2557,171268663,-616,3593,1686
2489,0.994593,2558,171269061,-1308,4498,4259
2490,0.994970,2559,171269438,-1308,4498,4259
2491,0.995354,2560,171269822,-2340,4475,5294
2492,0.995752,2561,171270220,-2340,4475,5294
2493,0.996156,2562,171270624,-2340,4475,5294
2494,0.996556,2563,171271024,-6173,3870,5191
2495,0.996962,2564,171271430,-6173,3870,5191
2496,0.997359,2565,171271827,-6902,2959,5141
2497,0.997757,2566,171272225,-6902,2959,5141
2498,0.998161,2567,171272629,-6902,2959,5141
2499,0.998561,2568,171273029,-5493,2270,6069
2500,0.998963,2569,171273431,-5493,2270,6069
2501,0.999361,2570,171273829,-9001,1560,6478
2502,0.999763,2571,171274231,-9001,1560,6478
2503,1.000168,2572,171274636,-9001,1560,6478
2504,1.000569,2573,171275037,-6846,-307,4277
2505,1.000975,2574,171275443,-6846,-307,4277
2506,1.001380,2575,171275848,-4659,-1590,2276
2507,1.001790,2576,171276258,-4659,-1590,2276
2508,1.002200,2577,171276668,-4659,-1590,2276
2509,1.002610,2578,171277078,-2349,-2142,2642
2510,1.003023,2579,171277491,-2349,-2142,2642
2511,1.003428,2580,171277896,4234,-2972,3244
2512,1.003829,2581,171278297,4234,-2972,3244
2513,1.004232,2582,171278700,5808,-3437,3614
2514,1.004635,2583,171279103,5808,-3437,3614
2515,1.005041,2584,171279509,5808,-3437,3614
2516,1.005430,2585,171279898,5859,-3548,5605
2517,1.005837,2586,171280305,5859,-3548,5605
2518,1.006238,2587,171280706,7080,-3318,7588
2519,1.006637,2588,171281105,7080,-3318,7588
2520,1.007035,2589,171281503,7080,-3318,7588
2521,1.007426,2590,171281894,6873,-2609,6617
2522,1.007840,2591,171282308,6873,-2609,6617
2523,1.008235,2592,171282703,7408,-2001,4882
2524,1.008646,2593,171283114,7408,-2001,4882
2525,1.009042,2594,171283510,7408,-2001,4882
2526,1.009432,2595,171283900,7630,-1387,3857
2527,1.009846,2596,171284314,7630,-1387,3857
2528,1.010249,2597,171284717,7168,-1457,2197
2529,1.010652,2598,171285120,7168,-1457,2197
2530,1.011048,2599,171285516,7168,-1457,2197
2531,1.011430,2600,171285898,3779,-2036,1703
2532,1.011825,2601,171286293,3779,-2036,1703
2533,1.012235,2602,171286703,-3431,-1810,3225
2534,1.012645,2603,171287113,-3431,-1810,3225
2535,1.013048,2604,171287516,-3431,-1810,3225
2536,1.013458,2605,171287926,-3612,-1585,4602
2537,1.013863,2606,171288331,-3612,-1585,4602
2538,1.014275,2607,171288743,-496,-1427,5924
2539,1.014686,2608,171289154,-496,-1427,5924
2540,1.015082,2609,171289550,-496,-1427,5924
2541,1.015501,2610,171289969,914,-707,7354
2542,1.015905,2611,171290373,914,-707,7354
2543,1.016308,2612,171290776,3383,-212,7085
2544,1.016711,2613,171291179,3383,-212,7085
2545,1.017103,2614,171291571,3383,-212,7085
2546,1.017510,2615,171291978,3447,243,5904
2547,1.017896,2616,171292364,3447,243,5904
2548,1.018291,2617,171292759,5208,608,5138
2549,1.018685,2618,171293153,5208,608,5138
2550,1.019072,2619,171293540,5208,608,5138
2551,1.019477,2620,171293945,5355,895,4007
2552,1.019864,2621,171294332,5355,895,4007
2553,1.020257,2622,171294725,1281,1535,3113
2554,1.020654,2623,171295122,1281,1535,3113
2555,1.021044,2624,171295512,1281,1535,3113
2556,1.021436,2625,171295904,-6440,2152,2794
2557,1.021850,2626,171296318,-6440,2152,2794
2558,1.022245,2627,171296713,-13498,2747,2477
2559,1.022656,2628,171297124,-13498,2747,2477
2560,1.023043,2629,171297511,-13498,2747,2477
2561,1.023455,2630,171297923,-7354,3005,1617
2562,1.023851,2631,171298319,-7354,3005,1617
2563,1.024254,2632,171298722,-790,3439,1596
2564,1.024656,2633,171299124,-790,3439,1596
2565,1.025045,2634,171299513,-790,3439,1596
2566,1.025435,2635,171299903,-2538,4438,3580
2567,1.025829,2636,171300297,-2538,4438,3580
2568,1.026232,2637,171300700,-2525,4641,5148
2569,1.026627,2638,171301095,-2525,4641,5148
2570,1.027018,2639,171301486,-2525,4641,5148
2571,1.027408,2640,171301876,-4616,4041,5432
2572,1.027815,2641,171302283,-4616,4041,5432
2573,1.028210,2642,171302678,-7055,3147,5103
2574,1.028579,2643,171303047,-7055,3147,5103
2575,1.028986,2644,171303454,-7055,3147,5103
2576,1.029382,2645,171303850,-5449,2347,5505
2577,1.029792,2646,171304260,-5449,2347,5505
2578,1.030188,2647,171304656,-5449,2347,5505
2579,1.030591,2648,171305059,-8319,1688,6320
2580,1.030996,2649,171305464,-8319,1688,6320
2581,1.031365,2650,171305833,-7857,161,4825
2582,1.031747,2651,171306215,-7857,161,4825
2583,1.032131,2652,171306599,-7857,161,4825
2584,1.032539,2653,171307007,-5186,-1334,2608
2585,1.032950,2654,171307418,-5186,-1334,2608
2586,1.033352,2655,171307820,-2800,-2130,2466
2587,1.033770,2656,171308238,-2800,-2130,2466
2588,1.034175,2657,171308643,-2800,-2130,2466
2589,1.034592,2658,171309060,3833,-2933,3088
2590,1.034998,2659,171309466,3833,-2933,3088
2591,1.035388,2660,171309856,5692,-3403,3537
2592,1.035804,2661,171310272,5692,-3403,3537
2593,1.036207,2662,171310675,5416,-3562,5305
2594,1.036610,2663,171311078,5416,-3562,5305
2595,1.037015,2664,171311483,5416,-3562,5305
2596,1.037404,2665,171311872,6801,-3460,7264
2597,1.037812,2666,171312280,6801,-3460,7264
2598,1.038214,2667,171312682,6701,-2847,6735
2599,1.038617,2668,171313085,6701,-2847,6735
2600,1.039024,2669,171313492,6701,-2847,6735
2601,1.039422,2670,171313890,7234,-2209,5134
2602,1.039821,2671,171314289,7234,-2209,5134
2603,1.040232,2672,171314700,7680,-1440,4108
2604,1.040635,2673,171315103,7680,-1440,4108
2605,1.041031,2674,171315499,7680,-1440,4108
2606,1.041420,2675,171315888,7112,-1336,2527
2607,1.041823,2676,171316291,7112,-1336,2527
2608,1.042233,2677,171316701,4972,-1945,1545
2609,1.042627,2678,171317095,4972,-1945,1545
2610,1.043032,2679,171317500,4972,-1945,1545
2611,1.043430,2680,171317898,-2232,-1838,2881
2612,1.043837,2681,171318305,-2232,-1838,2881
2613,1.044254,2682,171318722,-4133,-1559,4477
2614,1.044665,2683,171319133,-4133,-1559,4477
2615,1.045043,2684,171319511,-4133,-1559,4477
2616,1.045436,2685,171319904,-775,-1430,5668
2617,1.045836,2686,171320304,-775,-1430,5668
2618,1.046240,2687,171320708,522,-789,7103
2619,1.046636,2688,171321104,522,-789,7103
2620,1.047040,2689,171321508,522,-789,7103
2621,1.047430,2690,171321898,3060,-257,7184
2622,1.047835,2691,171322303,3060,-257,7184
2623,1.048237,2692,171322705,3504,189,6154
2624,1.048633,2693,171323101,3504,189,6154
2625,1.049023,2694,171323491,3504,189,6154
2626,1.049406,2695,171323874,4838,629,5347
2627,1.049806,2696,171324274,4838,629,5347
2628,1.050195,2697,171324663,4838,629,5347
2629,1.050585,2698,171325053,5929,815,4209
2630,1.050976,2699,171325444,5929,815,4209
2631,1.051365,2700,171325833,1262,1458,3081
2632,1.051755,2701,171326223,1262,1458,3081
2633,1.052139,2702,171326607,1262,1458,3081
2634,1.052538,2703,171327006,-4668,1787,2828
2635,1.052941,2704,171327409,-4668,1787,2828
2636,1.053345,2705,171327813,-11941,2625,2750
2637,1.053747,2706,171328215,-11941,2625,2750
2638,1.054144,2707,171328612,-11941,2625,2750
2639,1.054558,2708,171329026,-8808,3021,1839
2640,1.054962,2709,171329430,-8808,3021,1839
2641,1.055365,2710,171329833,-1874,3210,1338
2642,1.055767,2711,171330235,-1874,3210,1338
2643,1.056164,2712,171330632,-1874,3210,1338
2644,1.056577,2713,171331045,-2600,4353,3098
2645,1.056983,2714,171331451,-2600,4353,3098
2646,1.057385,2715,171331853,-1594,4513,4952
2647,1.057788,2716,171332256,-1594,4513,4952
2648,1.058191,2717,171332659,-1594,4513,4952
2649,1.058593,2718,171333061,-3846,4140,5275
2650,1.058999,2719,171333467,-3846,4140,5275
2651,1.059397,2720,171333865,-7879,3430,5030
2652,1.059805,2721,171334273,-7879,3430,5030
2653,1.060209,2722,171334677,-5669,2425,5325
2654,1.060604,2723,171335072,-5669,2425,5325
2655,1.061017,2724,171335485,-5669,2425,5325
2656,1.061399,2725,171335867,-7160,1755,6304
2657,1.061773,2726,171336241,-7160,1755,6304
2658,1.062164,2727,171336632,-7160,1755,6304
2659,1.062579,2728,171337047,-8615,542,5294
2660,1.062985,2729,171337453,-8615,542,5294
2661,1.063388,2730,171337856,-5841,-1102,2947
2662,1.063799,2731,171338267,-5841,-1102,2947
2663,1.064210,2732,171338678,-3442,-1916,2461
2664,1.064621,2733,171339089,-3442,-1916,2461
2665,1.065025,2734,171339493,-3442,-1916,2461
2666,1.065431,2735,171339899,2871,-2723,3158
