row,seconds,esp32_index,micros,ax,ay,az
1,0.000000,44649,46263981,-28,31,4404
2,0.001000,44650,46264981,-54,42,4407
3,0.002000,44651,46265981,-33,35,4415
4,0.003000,44652,46266981,-18,23,4406
5,0.003999,44653,46267980,-39,33,4398
6,0.005000,44654,46268981,-44,19,4413
7,0.006000,44655,46269981,-39,-8,4426
8,0.007000,44656,46270981,-51,12,4421
9,0.008000,44657,46271981,-50,41,4407
10,0.009000,44658,46272981,-40,51,4390
11,0.010000,44659,46273981,-35,36,4380
12,0.011000,44660,46274981,-36,24,4383
13,0.012000,44661,46275981,-32,46,4421
14,0.013000,44662,46276981,-31,52,4436
15,0.014000,44663,46277981,-50,47,4395
16,0.015000,44664,46278981,-48,48,4387
17,0.016000,44665,46279981,-50,25,4417
18,0.017000,44666,46280981,-64,8,4432
19,0.018000,44667,46281981,-51,15,4421
20,0.018999,44668,46282980,-47,25,4380
21,0.020000,44669,46283981,-46,27,4373
22,0.021000,44670,46284981,-36,28,4392
23,0.022000,44671,46285981,-26,33,4358
24,0.022999,44672,46286980,-33,28,4345
25,0.024000,44673,46287981,-57,16,4395
26,0.025000,44674,46288981,-35,21,4417
27,0.025999,44675,46289980,-32,40,4400
28,0.027000,44676,46290981,-50,43,4395
29,0.028000,44677,46291981,-50,36,4402
30,0.028999,44678,46292980,-47,22,4400
31,0.030000,44679,46293981,-33,12,4387
32,0.030999,44680,46294980,-24,12,4375
33,0.032000,44681,46295981,-26,22,4372
34,0.032999,44682,46296980,-36,36,4398
35,0.034000,44683,46297981,-45,11,4409
36,0.035000,44684,46298981,-40,10,4398
37,0.036000,44685,46299981,-17,30,4407
38,0.037000,44686,46300981,-32,18,4399
39,0.038000,44687,46301981,-62,23,4382
40,0.039000,44688,46302981,-64,18,4381
41,0.039999,44689,46303980,-53,15,4386
42,0.041000,44690,46304981,-51,25,4371
43,0.042000,44691,46305981,-53,30,4384
44,0.043000,44692,46306981,-40,39,4373
45,0.044000,44693,46307981,-28,27,4367
46,0.045000,44694,46308981,-23,21,4392
47,0.046000,44695,46309981,-31,23,4382
48,0.047000,44696,46310981,-36,14,4401
49,0.047999,44697,46311980,-35,25,4403
50,0.049000,44698,46312981,-31,41,4400
51,0.050000,44699,46313981,-40,37,4410
52,0.050999,44700,46314980,-40,23,4411
53,0.052000,44701,46315981,-36,12,4406
54,0.053000,44702,46316981,-39,20,4391
55,0.054000,44703,46317981,-22,22,4409
56,0.055000,44704,46318981,-39,26,4409
57,0.055999,44705,46319980,-54,54,4386
58,0.057000,44706,46320981,-33,54,4400
59,0.057999,44707,46321980,-32,26,4385
60,0.059000,44708,46322981,-54,12,4375
61,0.060000,44709,46323981,-46,11,4406
62,0.061000,44710,46324981,-30,28,4385
63,0.062000,44711,46325981,-25,44,4364
64,0.063000,44712,46326981,-26,43,4371
65,0.064000,44713,46327981,-49,46,4395
66,0.065000,44714,46328981,-60,51,4432
67,0.066000,44715,46329981,-50,42,4429
68,0.067000,44716,46330981,-34,27,4400
69,0.068000,44717,46331981,-16,18,4379
70,0.069000,44718,46332981,-1,23,4397
71,0.070000,44719,46333981,-12,27,4391
72,0.071000,44720,46334981,-52,26,4377
73,0.072000,44721,46335981,-43,20,4387
74,0.073000,44722,46336981,-14,23,4380
75,0.074000,44723,46337981,-19,42,4381
76,0.075000,44724,46338981,-26,36,4402
77,0.076000,44725,46339981,-28,8,4394
78,0.076999,44726,46340980,-27,7,4386
79,0.077999,44727,46341980,-21,25,4385
80,0.078999,44728,46342980,-26,33,4379
81,0.080000,44729,46343981,-48,36,4382
82,0.081000,44730,46344981,-49,32,4375
83,0.082000,44731,46345981,-28,31,4388
84,0.083000,44732,46346981,-40,31,4399
85,0.084000,44733,46347981,-58,41,4383
86,0.085000,44734,46348981,-65,42,4391
87,0.086000,44735,46349981,-58,30,4429
88,0.087000,44736,46350981,-30,24,4422
89,0.088000,44737,46351981,-43,7,4418
90,0.089000,44738,46352981,-60,11,4423
91,0.090000,44739,46353981,-35,38,4406
92,0.091000,44740,46354981,-25,60,4408
93,0.092000,44741,46355981,-43,49,4388
94,0.092999,44742,46356980,-44,28,4354
95,0.094000,44743,46357981,-60,40,4356
96,0.095000,44744,46358981,-67,30,4411
97,0.096000,44745,46359981,-53,20,4411
98,0.097000,44746,46360981,-56,30,4375
99,0.098000,44747,46361981,-51,33,4378
100,0.099000,44748,46362981,-45,19,4380
101,0.100000,44749,46363981,-53,7,4408
102,0.101000,44750,46364981,-46,24,4410
103,0.102000,44751,46365981,-34,25,4399
104,0.103000,44752,46366981,-26,33,4387
105,0.103999,44753,46367980,-31,38,4384
106,0.105000,44754,46368981,-46,17,4373
107,0.106000,44755,46369981,-47,7,4365
108,0.107000,44756,46370981,-44,29,4389
109,0.108000,44757,46371981,-43,45,4386
110,0.109000,44758,46372981,-50,35,4398
111,0.110000,44759,46373981,-58,28,4408
112,0.111000,44760,46374981,-64,24,4397
113,0.112000,44761,46375981,-44,18,4374
114,0.113000,44762,46376981,-33,14,4367
115,0.114000,44763,46377981,-40,17,4392
116,0.115000,44764,46378981,-20,25,4387
117,0.116000,44765,46379981,-18,26,4357
118,0.117000,44766,46380981,-35,26,4352
119,0.117999,44767,46381980,-30,33,4345
120,0.118999,44768,46382980,-28,39,4359
121,0.120000,44769,46383981,-46,30,4379
122,0.121000,44770,46384981,-69,18,4387
123,0.122000,44771,46385981,-46,34,4412
124,0.123000,44772,46386981,-21,28,4407
125,0.124000,44773,46387981,-36,7,4397
126,0.125000,44774,46388981,-55,17,4403
127,0.126000,44775,46389981,-47,27,4393
128,0.127000,44776,46390981,-40,31,4391
129,0.128000,44777,46391981,-58,27,4389
130,0.129000,44778,46392981,-53,35,4385
131,0.130000,44779,46393981,-39,42,4399
132,0.131000,44780,46394981,-30,26,4399
133,0.132000,44781,46395981,-35,22,4389
134,0.133000,44782,46396981,-57,25,4385
135,0.134000,44783,46397981,-63,30,4412
136,0.135000,44784,46398981,-40,33,4404
137,0.136000,44785,46399981,-33,36,4390
138,0.137000,44786,46400981,-36,44,4396
139,0.138000,44787,46401981,-34,49,4379
140,0.139000,44788,46402981,-36,43,4396
141,0.140000,44789,46403981,-34,19,4401
142,0.141000,44790,46404981,-35,25,4391
143,0.142000,44791,46405981,-33,28,4395
144,0.143000,44792,46406981,-29,17,4375
145,0.144000,44793,46407981,-34,21,4382
146,0.144999,44794,46408980,-43,10,4390
147,0.146000,44795,46409981,-48,13,4396
148,0.147000,44796,46410981,-54,27,4395
149,0.148000,44797,46411981,-42,29,4376
150,0.148999,44798,46412980,-23,40,4385
151,0.150000,44799,46413981,-33,54,4390
152,0.150999,44800,46414980,-50,48,4384
153,0.151999,44801,46415980,-54,31,4398
154,0.153000,44802,46416981,-41,29,4380
155,0.154000,44803,46417981,-31,5,4363
156,0.154999,44804,46418980,-44,-12,4386
157,0.156000,44805,46419981,-53,20,4385
158,0.157000,44806,46420981,-41,39,4413
159,0.158000,44807,46421981,-45,35,4405
160,0.159000,44808,46422981,-38,26,4359
161,0.160000,44809,46423981,-17,6,4371
162,0.161000,44810,46424981,-32,-2,4393
163,0.162000,44811,46425981,-49,15,4399
164,0.162999,44812,46426980,-56,18,4415
165,0.164000,44813,46427981,-55,28,4421
166,0.165000,44814,46428981,-60,34,4379
167,0.166000,44815,46429981,-42,24,4378
168,0.167000,44816,46430981,-10,21,4413
169,0.168000,44817,46431981,-18,30,4387
170,0.169000,44818,46432981,-34,34,4361
171,0.170000,44819,46433981,-36,29,4386
172,0.171000,44820,46434981,-34,26,4422
173,0.172000,44821,46435981,-22,34,4408
174,0.173000,44822,46436981,-7,20,4380
175,0.174000,44823,46437981,-25,12,4388
176,0.175000,44824,46438981,-43,40,4409
177,0.175999,44825,46439980,-36,38,4412
178,0.177000,44826,46440981,-37,41,4406
179,0.178000,44827,46441981,-29,39,4391
180,0.179000,44828,46442981,-28,24,4392
181,0.179999,44829,46443980,-23,20,4410
182,0.180999,44830,46444980,-12,15,4410
183,0.182000,44831,46445981,-17,23,4381
184,0.183000,44832,46446981,-35,37,4375
185,0.184000,44833,46447981,-49,35,4402
186,0.185000,44834,46448981,-39,23,4387
187,0.186000,44835,46449981,-35,30,4349
188,0.187000,44836,46450981,-36,32,4353
189,0.188000,44837,46451981,-47,25,4381
190,0.189000,44838,46452981,-50,37,4395
191,0.189999,44839,46453980,-54,39,4396
192,0.191000,44840,46454981,-50,36,4377
193,0.192000,44841,46455981,-27,35,4381
194,0.193000,44842,46456981,-35,18,4395
195,0.194000,44843,46457981,-47,9,4392
196,0.195000,44844,46458981,-44,18,4389
197,0.196000,44845,46459981,-44,29,4406
198,0.197000,44846,46460981,-46,28,4410
199,0.198000,44847,46461981,-44,30,4396
200,0.198999,44848,46462980,-56,23,4391
201,0.200000,44849,46463981,-48,25,4383
202,0.201000,44850,46464981,-12,46,4383
203,0.201999,44851,46465980,-18,39,4399
204,0.203000,44852,46466981,-36,25,4409
205,0.204000,44853,46467981,-43,31,4389
206,0.205000,44854,46468981,-41,30,4365
207,0.205999,44855,46469980,-35,22,4359
208,0.207000,44856,46470981,-50,8,4373
209,0.207999,44857,46471980,-45,6,4365
210,0.209000,44858,46472981,-31,13,4360
211,0.210000,44859,46473981,-32,3,4374
212,0.211000,44860,46474981,-15,20,4380
213,0.212000,44861,46475981,-24,48,4373
214,0.212999,44862,46476980,-47,51,4381
215,0.213999,44863,46477980,-56,42,4404
216,0.215000,44864,46478981,-57,33,4397
217,0.216000,44865,46479981,-48,28,4392
218,0.217000,44866,46480981,-61,25,4386
219,0.218000,44867,46481981,-62,22,4377
220,0.219000,44868,46482981,-39,24,4397
221,0.220000,44869,46483981,-40,17,4416
222,0.221000,44870,46484981,-45,23,4393
223,0.222000,44871,46485981,-28,36,4386
224,0.223000,44872,46486981,-25,29,4402
225,0.223999,44873,46487980,-34,26,4416
226,0.224999,44874,46488980,-37,19,4404
227,0.225999,44875,46489980,-46,32,4399
228,0.226999,44876,46490980,-55,42,4422
229,0.228000,44877,46491981,-37,31,4407
230,0.229000,44878,46492981,-36,24,4394
231,0.230000,44879,46493981,-52,18,4380
232,0.231000,44880,46494981,-56,24,4359
233,0.232000,44881,46495981,-58,19,4362
234,0.233000,44882,46496981,-44,13,4363
235,0.234000,44883,46497981,-35,24,4372
236,0.235000,44884,46498981,-37,28,4381
237,0.236000,44885,46499981,-40,40,4394
238,0.237000,44886,46500981,-44,28,4405
239,0.237999,44887,46501980,-46,14,4378
240,0.239000,44888,46502981,-42,23,4394
241,0.240000,44889,46503981,-38,16,4421
242,0.240999,44890,46504980,-35,13,4398
243,0.242000,44891,46505981,-54,14,4380
244,0.242999,44892,46506980,-59,28,4363
245,0.244000,44893,46507981,-42,42,4356
246,0.245000,44894,46508981,-37,43,4401
247,0.245999,44895,46509980,-27,23,4435
248,0.247000,44896,46510981,-27,2,4403
249,0.248000,44897,46511981,-30,13,4393
250,0.249000,44898,46512981,-25,39,4393
251,0.250000,44899,46513981,-30,36,4387
252,0.251000,44900,46514981,-44,33,4380
253,0.252000,44901,46515981,-53,31,4368
254,0.253000,44902,46516981,-52,10,4388
255,0.254003,44903,46517984,-40,14,4394
256,0.255000,44904,46518981,-44,10,4380
257,0.255999,44905,46519980,-38,13,4370
258,0.257000,44906,46520981,-40,29,4378
259,0.258000,44907,46521981,-47,25,4390
260,0.259000,44908,46522981,-27,18,4362
261,0.260000,44909,46523981,-32,5,4350
262,0.261000,44910,46524981,-38,2,4381
263,0.262000,44911,46525981,-36,12,4389
264,0.263000,44912,46526981,-26,27,4355
265,0.264000,44913,46527981,-23,37,4376
266,0.265000,44914,46528981,-39,29,4427
267,0.266000,44915,46529981,-47,31,4415
268,0.267000,44916,46530981,-40,41,4389
269,0.268000,44917,46531981,-50,44,4374
270,0.269000,44918,46532981,-57,42,4385
271,0.270000,44919,46533981,-37,31,4379
272,0.270999,44920,46534980,-39,34,4349
273,0.272000,44921,46535981,-53,38,4340
274,0.273000,44922,46536981,-58,23,4341
275,0.273999,44923,46537980,-46,18,4358
276,0.274999,44924,46538980,-36,17,4392
277,0.276000,44925,46539981,-40,21,4413
278,0.276999,44926,46540980,-44,29,4403
279,0.278000,44927,46541981,-50,20,4411
280,0.278999,44928,46542980,-52,24,4414
281,0.280000,44929,46543981,-59,32,4382
282,0.280999,44930,46544980,-70,20,4382
283,0.282000,44931,46545981,-43,20,4402
284,0.283000,44932,46546981,-15,25,4407
285,0.284000,44933,46547981,-14,23,4396
286,0.285000,44934,46548981,-27,33,4374
287,0.286000,44935,46549981,-41,32,4377
288,0.286999,44936,46550980,-41,3,4360
289,0.288000,44937,46551981,-54,12,4349
290,0.288999,44938,46552980,-55,24,4355
291,0.290000,44939,46553981,-51,20,4349
292,0.291000,44940,46554981,-61,30,4379
293,0.291999,44941,46555980,-70,15,4403
294,0.293000,44942,46556981,-53,31,4417
295,0.294000,44943,46557981,-71,57,4419
296,0.295000,44944,46558981,-102,51,4396
297,0.296000,44945,46559981,-55,43,4357
298,0.297000,44946,46560981,-39,42,4352
299,0.298000,44947,46561981,-33,26,4385
300,0.298999,44948,46562980,-21,12,4409
301,0.300000,44949,46563981,-44,28,4420
302,0.300999,44950,46564980,-41,27,4398
303,0.302000,44951,46565981,-19,19,4397
304,0.303000,44952,46566981,-34,23,4399
305,0.304005,44953,46567986,-33,41,4372
306,0.305000,44954,46568981,-19,27,4382
307,0.306000,44955,46569981,-34,16,4392
308,0.306999,44956,46570980,-47,42,4387
309,0.307999,44957,46571980,-45,30,4395
310,0.309000,44958,46572981,-42,12,4390
311,0.310000,44959,46573981,-41,22,4384
312,0.311000,44960,46574981,-31,25,4374
313,0.312000,44961,46575981,-35,24,4374
314,0.313000,44962,46576981,-45,32,4391
315,0.314000,44963,46577981,-50,30,4396
316,0.315000,44964,46578981,-38,29,4384
317,0.316000,44965,46579981,-33,38,4400
318,0.317000,44966,46580981,-32,37,4406
319,0.318000,44967,46581981,-35,21,4386
320,0.319000,44968,46582981,-34,18,4379
321,0.320000,44969,46583981,-34,20,4377
322,0.321000,44970,46584981,-36,6,4404
323,0.322000,44971,46585981,-49,2,4423
324,0.323000,44972,46586981,-49,25,4396
325,0.324000,44973,46587981,-35,41,4382
326,0.325000,44974,46588981,-35,40,4378
327,0.326000,44975,46589981,-38,29,4357
328,0.327000,44976,46590981,-49,31,4387
329,0.328000,44977,46591981,-33,31,4427
330,0.329000,44978,46592981,-29,16,4405
331,0.330000,44979,46593981,-42,17,4375
332,0.330999,44980,46594980,-36,18,4397
333,0.332000,44981,46595981,-39,28,4415
334,0.333000,44982,46596981,-49,36,4391
335,0.334000,44983,46597981,-44,26,4373
336,0.334999,44984,46598980,-50,18,4366
337,0.336000,44985,46599981,-56,17,4386
338,0.337000,44986,46600981,-35,30,4388
339,0.338000,44987,46601981,-23,39,4368
340,0.339000,44988,46602981,-28,32,4384
341,0.340000,44989,46603981,-37,25,4401
342,0.341000,44990,46604981,-43,20,4395
343,0.342000,44991,46605981,-41,40,4398
344,0.343000,44992,46606981,-40,41,4394
345,0.344000,44993,46607981,-45,14,4378
346,0.345000,44994,46608981,-58,25,4376
347,0.346000,44995,46609981,-56,44,4381
348,0.347000,44996,46610981,-35,52,4394
349,0.348000,44997,46611981,-38,58,4405
350,0.348999,44998,46612980,-29,54,4432
351,0.350000,44999,46613981,-16,43,4407
352,0.350999,45000,46614980,-23,23,4366
353,0.352000,45001,46615981,-27,28,4363
354,0.353000,45002,46616981,-34,33,4378
355,0.353999,45003,46617980,-24,26,4395
356,0.354999,45004,46618980,-35,18,4400
357,0.356000,45005,46619981,-48,20,4389
358,0.357000,45006,46620981,-62,46,4361
359,0.358000,45007,46621981,-52,50,4400
360,0.359000,45008,46622981,-40,35,4427
361,0.360000,45009,46623981,-52,13,4416
362,0.360999,45010,46624980,-43,-1,4402
363,0.362000,45011,46625981,-40,12,4388
364,0.363000,45012,46626981,-54,28,4393
365,0.364000,45013,46627981,-65,33,4382
366,0.365000,45014,46628981,-46,28,4369
367,0.366000,45015,46629981,-44,22,4383
368,0.367000,45016,46630981,-45,29,4383
369,0.368000,45017,46631981,-61,34,4368
370,0.368999,45018,46632980,-69,22,4385
371,0.370000,45019,46633981,-43,19,4373
372,0.371000,45020,46634981,-32,27,4377
373,0.371999,45021,46635980,-46,17,4422
374,0.373000,45022,46636981,-49,28,4436
375,0.373999,45023,46637980,-25,25,4419
376,0.374999,45024,46638980,-17,7,4403
377,0.376000,45025,46639981,-24,14,4396
378,0.377000,45026,46640981,-40,12,4392
379,0.378000,45027,46641981,-47,6,4379
380,0.379000,45028,46642981,-40,-1,4393
381,0.380000,45029,46643981,-28,10,4385
382,0.381000,45030,46644981,-33,26,4379
383,0.382000,45031,46645981,-41,24,4407
384,0.382999,45032,46646980,-41,15,4407
385,0.384000,45033,46647981,-37,43,4397
386,0.384999,45034,46648980,-22,59,4372
387,0.386000,45035,46649981,-17,44,4376
388,0.386999,45036,46650980,-38,35,4389
389,0.388000,45037,46651981,-35,21,4395
390,0.389000,45038,46652981,-22,35,4408
391,0.389999,45039,46653980,-25,58,4415
392,0.391000,45040,46654981,-38,41,4415
393,0.392000,45041,46655981,-53,11,4397
394,0.392999,45042,46656980,-44,-2,4369
395,0.393999,45043,46657980,-50,16,4369
396,0.395000,45044,46658981,-69,26,4392
397,0.395999,45045,46659980,-49,22,4392
398,0.397000,45046,46660981,-23,15,4388
399,0.398000,45047,46661981,-26,17,4360
400,0.399000,45048,46662981,-25,34,4351
401,0.400000,45049,46663981,-33,28,4393
402,0.401000,45050,46664981,-54,31,4390
403,0.402000,45051,46665981,-54,32,4384
404,0.403000,45052,46666981,-21,12,4419
405,0.404000,45053,46667981,-26,-1,4407
406,0.405000,45054,46668981,-46,12,4372
407,0.405999,45055,46669980,-46,26,4388
408,0.407000,45056,46670981,-37,25,4393
409,0.408000,45057,46671981,-28,17,4359
410,0.408999,45058,46672980,-37,16,4357
411,0.410000,45059,46673981,-42,32,4403
412,0.411000,45060,46674981,-41,37,4401
413,0.412000,45061,46675981,-44,19,4392
414,0.413000,45062,46676981,-49,19,4412
415,0.414000,45063,46677981,-39,32,4407
416,0.415000,45064,46678981,-35,28,4407
417,0.416000,45065,46679981,-45,34,4401
418,0.417000,45066,46680981,-53,40,4398
419,0.418000,45067,46681981,-48,31,4401
420,0.419000,45068,46682981,-26,26,4385
421,0.420000,45069,46683981,-2,23,4379
422,0.421000,45070,46684981,-10,16,4398
423,0.422000,45071,46685981,-33,14,4406
424,0.422999,45072,46686980,-40,18,4380
425,0.424000,45073,46687981,-47,10,4369
426,0.425000,45074,46688981,-38,5,4406
427,0.426000,45075,46689981,-40,17,4398
428,0.427000,45076,46690981,-36,35,4362
429,0.428000,45077,46691981,-39,39,4358
430,0.428999,45078,46692980,-49,37,4353
431,0.430000,45079,46693981,-24,48,4401
432,0.431000,45080,46694981,-20,49,4421
433,0.432000,45081,46695981,-17,24,4414
434,0.433000,45082,46696981,-10,19,4418
435,0.434000,45083,46697981,-36,30,4386
436,0.435000,45084,46698981,-43,24,4381
437,0.436000,45085,46699981,-29,38,4387
438,0.437000,45086,46700981,-35,40,4383
439,0.437999,45087,46701980,-43,27,4374
440,0.439000,45088,46702981,-41,29,4361
441,0.440000,45089,46703981,-23,29,4387
442,0.441000,45090,46704981,-17,23,4386
443,0.442000,45091,46705981,-34,14,4372
444,0.443000,45092,46706981,-42,13,4398
445,0.444000,45093,46707981,-49,26,4407
446,0.445000,45094,46708981,-36,15,4403
447,0.446000,45095,46709981,-30,3,4389
448,0.447000,45096,46710981,-46,20,4391
449,0.448000,45097,46711981,-38,27,4411
450,0.449000,45098,46712981,-38,43,4416
451,0.449999,45099,46713980,-58,46,4385
452,0.451000,45100,46714981,-51,30,4392
453,0.451999,45101,46715980,-31,19,4402
454,0.453000,45102,46716981,-29,9,4382
455,0.453999,45103,46717980,-39,8,4375
456,0.454999,45104,46718980,-62,25,4387
457,0.456000,45105,46719981,-43,28,4407
458,0.457000,45106,46720981,-27,25,4406
459,0.457999,45107,46721980,-41,47,4398
460,0.459000,45108,46722981,-37,61,4393
461,0.460000,45109,46723981,-30,45,4391
462,0.461000,45110,46724981,-18,33,4395
463,0.462000,45111,46725981,-17,34,4417
464,0.463000,45112,46726981,-34,31,4395
465,0.464000,45113,46727981,-42,30,4365
466,0.464999,45114,46728980,-55,38,4400
467,0.466000,45115,46729981,-35,46,4415
468,0.467000,45116,46730981,-7,35,4389
469,0.468000,45117,46731981,-31,36,4376
470,0.469000,45118,46732981,-43,32,4391
471,0.469999,45119,46733980,-51,16,4409
472,0.471000,45120,46734981,-55,25,4366
473,0.472000,45121,46735981,-45,36,4336
474,0.473000,45122,46736981,-57,32,4368
475,0.474000,45123,46737981,-56,18,4383
476,0.475000,45124,46738981,-33,16,4379
477,0.476000,45125,46739981,-13,15,4386
478,0.477000,45126,46740981,-13,16,4406
479,0.478000,45127,46741981,-38,17,4401
480,0.479000,45128,46742981,-46,16,4375
481,0.479999,45129,46743980,-51,18,4390
482,0.481000,45130,46744981,-62,27,4411
483,0.481999,45131,46745980,-51,35,4387
484,0.483000,45132,46746981,-50,31,4383
485,0.484000,45133,46747981,-51,37,4388
486,0.484999,45134,46748980,-53,35,4397
487,0.486000,45135,46749981,-49,34,4393
488,0.486999,45136,46750980,-34,34,4389
489,0.488000,45137,46751981,-27,30,4392
490,0.489000,45138,46752981,-18,37,4367
491,0.490000,45139,46753981,-46,13,4345
492,0.491000,45140,46754981,-54,11,4380
493,0.492000,45141,46755981,-35,36,4417
494,0.493000,45142,46756981,-43,31,4408
495,0.494000,45143,46757981,-50,33,4425
496,0.495000,45144,46758981,-40,35,4404
497,0.496000,45145,46759981,-47,11,4374
498,0.497000,45146,46760981,-55,9,4406
499,0.498000,45147,46761981,-31,37,4431
500,0.499000,45148,46762981,-20,37,4430
501,0.500000,45149,46763981,-20,19,4428
502,0.501000,45150,46764981,-32,25,4395
503,0.502000,45151,46765981,-44,38,4395
504,0.503000,45152,46766981,-23,35,4405
505,0.503999,45153,46767980,-29,31,4379
506,0.505000,45154,46768981,-50,11,4387
507,0.506000,45155,46769981,-34,25,4414
508,0.507000,45156,46770981,-22,28,4414
509,0.508000,45157,46771981,-23,15,4409
510,0.509000,45158,46772981,-41,25,4425
511,0.510000,45159,46773981,-45,15,4403
512,0.511000,45160,46774981,-46,31,4388
513,0.512000,45161,46775981,-57,43,4424
514,0.513000,45162,46776981,-39,30,4406
515,0.514000,45163,46777981,-38,11,4361
516,0.515000,45164,46778981,-40,8,4377
517,0.516000,45165,46779981,-39,24,4409
518,0.516999,45166,46780980,-55,31,4394
519,0.518000,45167,46781981,-33,34,4365
520,0.519000,45168,46782981,-29,29,4373
521,0.520000,45169,46783981,-35,18,4377
522,0.521000,45170,46784981,-25,27,4385
523,0.522000,45171,46785981,-39,51,4401
524,0.523000,45172,46786981,-44,50,4417
525,0.524000,45173,46787981,-40,37,4438
526,0.525000,45174,46788981,-34,19,4429
527,0.526000,45175,46789981,-36,9,4405
528,0.527000,45176,46790981,-38,19,4394
529,0.528000,45177,46791981,-46,19,4403
530,0.529000,45178,46792981,-41,20,4412
531,0.530000,45179,46793981,-37,27,4395
532,0.531000,45180,46794981,-64,19,4391
533,0.532000,45181,46795981,-66,25,4413
534,0.533000,45182,46796981,-73,29,4424
535,0.533999,45183,46797980,-64,25,4412
536,0.535000,45184,46798981,-46,26,4397
537,0.536000,45185,46799981,-43,21,4401
538,0.537000,45186,46800981,-34,15,4421
539,0.538000,45187,46801981,-38,14,4416
540,0.539000,45188,46802981,-43,18,4393
541,0.539999,45189,46803980,-43,18,4405
542,0.540999,45190,46804980,-27,28,4421
543,0.542000,45191,46805981,-47,25,4426
544,0.543000,45192,46806981,-78,10,4437
545,0.544000,45193,46807981,-63,17,4424
546,0.544999,45194,46808980,-34,25,4399
547,0.546000,45195,46809981,-35,28,4390
548,0.547000,45196,46810981,-34,35,4388
549,0.548000,45197,46811981,-37,36,4389
550,0.549000,45198,46812981,-53,38,4390
551,0.550000,45199,46813981,-37,31,4380
552,0.551000,45200,46814981,-28,23,4394
553,0.551999,45201,46815980,-59,46,4408
554,0.553000,45202,46816981,-65,46,4386
555,0.554000,45203,46817981,-43,22,4377
556,0.555000,45204,46818981,-44,26,4392
557,0.556000,45205,46819981,-46,28,4402
558,0.557000,45206,46820981,-39,19,4380
559,0.558000,45207,46821981,-34,24,4384
560,0.559000,45208,46822981,-52,25,4387
561,0.560000,45209,46823981,-55,34,4365
562,0.561000,45210,46824981,-61,55,4381
563,0.562000,45211,46825981,-63,34,4373
564,0.563000,45212,46826981,-33,24,4347
565,0.563999,45213,46827980,-19,25,4363
566,0.565000,45214,46828981,-39,16,4396
567,0.566000,45215,46829981,-53,13,4399
568,0.566999,45216,46830980,-40,26,4408
569,0.568000,45217,46831981,-25,39,4432
570,0.569000,45218,46832981,-25,21,4422
571,0.570000,45219,46833981,-42,16,4386
572,0.571000,45220,46834981,-43,5,4370
573,0.572000,45221,46835981,-44,15,4367
574,0.573000,45222,46836981,-34,42,4375
575,0.573999,45223,46837980,-41,38,4382
576,0.575000,45224,46838981,-64,42,4388
577,0.576000,45225,46839981,-55,35,4394
578,0.577000,45226,46840981,-33,34,4361
579,0.578000,45227,46841981,-21,43,4356
580,0.579000,45228,46842981,-42,22,4382
581,0.580000,45229,46843981,-73,17,4385
582,0.581000,45230,46844981,-57,23,4379
583,0.582000,45231,46845981,-49,11,4376
584,0.583000,45232,46846981,-40,10,4386
585,0.584000,45233,46847981,-14,30,4394
586,0.585000,45234,46848981,-22,48,4397
587,0.586000,45235,46849981,-33,43,4405
588,0.587000,45236,46850981,-29,31,4397
589,0.588000,45237,46851981,-35,25,4402
590,0.589000,45238,46852981,-47,22,4395
591,0.590000,45239,46853981,-41,14,4382
592,0.591000,45240,46854981,-41,9,4389
593,0.592000,45241,46855981,-47,25,4379
594,0.593000,45242,46856981,-45,49,4382
595,0.594000,45243,46857981,-29,40,4390
596,0.595000,45244,46858981,-30,15,4371
597,0.596000,45245,46859981,-45,20,4372
598,0.597000,45246,46860981,-45,29,4389
599,0.598000,45247,46861981,-39,35,4388
600,0.599000,45248,46862981,-28,29,4388
601,0.600000,45249,46863981,-10,15,4379
602,0.601000,45250,46864981,-24,9,4367
603,0.601999,45251,46865980,-62,18,4384
604,0.603000,45252,46866981,-57,20,4387
605,0.603999,45253,46867980,-26,19,4373
606,0.605000,45254,46868981,-26,16,4362
607,0.606000,45255,46869981,-35,19,4378
608,0.607000,45256,46870981,-32,35,4409
609,0.608000,45257,46871981,-30,25,4396
610,0.609000,45258,46872981,-49,7,4366
611,0.610000,45259,46873981,-62,21,4372
612,0.611000,45260,46874981,-33,26,4383
613,0.612000,45261,46875981,-27,11,4380
614,0.612999,45262,46876980,-40,30,4388
615,0.614000,45263,46877981,-46,36,4393
616,0.615000,45264,46878981,-32,13,4370
617,0.616000,45265,46879981,-37,20,4379
618,0.617000,45266,46880981,-55,57,4400
619,0.618000,45267,46881981,-42,47,4382
620,0.619000,45268,46882981,-58,12,4375
621,0.620000,45269,46883981,-67,25,4411
622,0.621000,45270,46884981,-52,49,4421
623,0.622000,45271,46885981,-42,40,4387
624,0.623000,45272,46886981,-49,29,4383
625,0.624000,45273,46887981,-63,21,4385
626,0.625000,45274,46888981,-48,35,4383
627,0.625999,45275,46889980,-20,53,4383
628,0.627000,45276,46890981,-36,40,4383
629,0.628000,45277,46891981,-45,26,4395
630,0.629000,45278,46892981,-40,35,4381
631,0.630000,45279,46893981,-42,49,4388
632,0.631000,45280,46894981,-31,47,4410
633,0.632000,45281,46895981,-38,46,4422
634,0.632999,45282,46896980,-38,25,4437
635,0.633999,45283,46897980,-25,10,4397
636,0.635000,45284,46898981,-36,15,4378
637,0.636000,45285,46899981,-57,23,4386
638,0.637000,45286,46900981,-52,34,4380
639,0.637999,45287,46901980,-40,46,4367
640,0.638999,45288,46902980,-45,56,4399
641,0.640000,45289,46903981,-45,39,4429
642,0.641000,45290,46904981,-27,25,4389
643,0.642000,45291,46905981,-13,37,4371
644,0.643000,45292,46906981,-26,23,4370
645,0.644000,45293,46907981,-22,10,4383
646,0.644999,45294,46908980,-31,18,4412
647,0.646000,45295,46909981,-50,22,4409
648,0.646999,45296,46910980,-31,31,4394
649,0.648000,45297,46911981,-33,44,4395
650,0.649000,45298,46912981,-52,41,4361
651,0.650000,45299,46913981,-45,23,4344
652,0.651000,45300,46914981,-35,30,4371
653,0.652000,45301,46915981,-31,29,4379
654,0.653000,45302,46916981,-26,21,4389
655,0.654000,45303,46917981,-29,19,4386
656,0.655000,45304,46918981,-49,6,4387
657,0.655999,45305,46919980,-48,4,4407
658,0.656999,45306,46920980,-42,7,4423
659,0.658000,45307,46921981,-30,16,4416
660,0.659000,45308,46922981,-25,25,4408
661,0.659999,45309,46923980,-55,20,4390
662,0.661000,45310,46924981,-67,20,4379
663,0.662000,45311,46925981,-71,31,4409
664,0.663000,45312,46926981,-63,48,4410
665,0.664000,45313,46927981,-47,49,4398
666,0.665000,45314,46928981,-29,35,4376
667,0.666000,45315,46929981,-27,42,4370
668,0.667000,45316,46930981,-29,42,4408
669,0.668000,45317,46931981,-39,19,4421
670,0.669000,45318,46932981,-35,16,4407
671,0.670000,45319,46933981,-18,32,4379
672,0.670999,45320,46934980,-34,34,4365
673,0.672000,45321,46935981,-43,24,4366
674,0.672999,45322,46936980,-37,35,4379
675,0.673999,45323,46937980,-46,33,4386
676,0.675000,45324,46938981,-54,19,4371
677,0.676000,45325,46939981,-50,29,4371
678,0.677000,45326,46940981,-38,30,4374
679,0.677999,45327,46941980,-57,21,4369
680,0.679000,45328,46942981,-53,33,4376
681,0.680000,45329,46943981,-22,49,4370
682,0.681000,45330,46944981,-30,34,4370
683,0.682000,45331,46945981,-29,9,4366
684,0.683000,45332,46946981,-42,19,4360
685,0.684000,45333,46947981,-51,39,4391
686,0.685000,45334,46948981,-44,48,4395
687,0.686000,45335,46949981,-59,46,4394
688,0.687000,45336,46950981,-60,22,4392
689,0.688000,45337,46951981,-56,17,4378
690,0.689000,45338,46952981,-50,26,4388
691,0.689999,45339,46953980,-46,32,4386
692,0.691000,45340,46954981,-41,33,4377
693,0.692000,45341,46955981,-28,33,4370
694,0.693000,45342,46956981,-11,45,4381
695,0.694000,45343,46957981,-22,42,4381
696,0.695000,45344,46958981,-55,33,4360
697,0.696000,45345,46959981,-37,23,4377
698,0.697000,45346,46960981,-27,20,4389
699,0.698000,45347,46961981,-35,31,4385
700,0.699000,45348,46962981,-23,20,4392
701,0.700000,45349,46963981,-17,31,4405
702,0.701000,45350,46964981,-15,48,4395
703,0.701999,45351,46965980,-16,35,4392
704,0.703000,45352,46966981,-35,26,4403
705,0.704000,45353,46967981,-51,28,4376
706,0.705000,45354,46968981,-53,25,4374
707,0.705999,45355,46969980,-45,32,4386
708,0.706999,45356,46970980,-33,42,4360
709,0.708000,45357,46971981,-33,9,4347
710,0.709000,45358,46972981,-46,17,4363
711,0.710000,45359,46973981,-51,34,4386
712,0.711000,45360,46974981,-44,16,4393
713,0.712000,45361,46975981,-52,33,4410
714,0.713000,45362,46976981,-42,33,4422
715,0.714000,45363,46977981,-45,20,4412
716,0.715000,45364,46978981,-54,27,4421
717,0.716000,45365,46979981,-31,49,4420
718,0.717000,45366,46980981,-26,65,4386
719,0.717999,45367,46981980,-23,46,4377
720,0.719000,45368,46982981,-26,20,4381
721,0.720000,45369,46983981,-31,27,4386
722,0.721000,45370,46984981,-35,18,4390
723,0.722000,45371,46985981,-36,9,4399
724,0.723000,45372,46986981,-40,34,4413
725,0.723999,45373,46987980,-38,26,4388
726,0.725000,45374,46988981,-21,30,4370
727,0.726000,45375,46989981,-38,42,4393
728,0.726999,45376,46990980,-42,32,4407
729,0.728000,45377,46991981,-25,25,4392
730,0.729000,45378,46992981,-33,26,4396
731,0.730000,45379,46993981,-36,32,4409
732,0.730999,45380,46994980,-35,37,4395
733,0.731999,45381,46995980,-34,31,4382
734,0.733000,45382,46996981,-24,25,4387
735,0.733999,45383,46997980,-29,30,4387
736,0.735000,45384,46998981,-41,19,4402
737,0.736000,45385,46999981,-51,15,4406
738,0.737000,45386,47000981,-54,19,4398
739,0.737999,45387,47001980,-53,22,4376
740,0.738999,45388,47002980,-56,23,4374
741,0.740000,45389,47003981,-55,31,4398
742,0.740999,45390,47004980,-43,36,4390
743,0.742000,45391,47005981,-33,15,4384
744,0.743000,45392,47006981,-34,5,4397
745,0.743999,45393,47007980,-37,20,4384
746,0.745000,45394,47008981,-27,5,4364
747,0.746000,45395,47009981,-25,-2,4386
748,0.747000,45396,47010981,-37,19,4409
749,0.748000,45397,47011981,-32,15,4415
750,0.749000,45398,47012981,-32,14,4406
751,0.750000,45399,47013981,-38,34,4391
752,0.751000,45400,47014981,-38,44,4386
753,0.751999,45401,47015980,-34,28,4383
754,0.752999,45402,47016980,-28,29,4393
755,0.754000,45403,47017981,-29,46,4406
756,0.754999,45404,47018980,-46,28,4398
757,0.756000,45405,47019981,-55,16,4380
758,0.757000,45406,47020981,-49,25,4386
759,0.758000,45407,47021981,-49,18,4400
760,0.759000,45408,47022981,-48,27,4414
761,0.760000,45409,47023981,-45,42,4402
762,0.761000,45410,47024981,-58,27,4375
763,0.762000,45411,47025981,-48,15,4381
764,0.763000,45412,47026981,-22,17,4394
765,0.763999,45413,47027980,-24,17,4387
766,0.765000,45414,47028981,-23,19,4392
767,0.766000,45415,47029981,-35,25,4412
768,0.767000,45416,47030981,-46,11,4411
769,0.768000,45417,47031981,-35,-4,4411
770,0.769000,45418,47032981,-26,15,4412
771,0.770000,45419,47033981,-37,30,4406
772,0.771000,45420,47034981,-37,33,4409
773,0.772000,45421,47035981,-36,38,4403
774,0.773000,45422,47036981,-64,33,4403
775,0.774000,45423,47037981,-50,26,4407
776,0.775000,45424,47038981,-24,26,4393
777,0.776000,45425,47039981,-32,41,4401
778,0.777000,45426,47040981,-36,35,4387
779,0.777999,45427,47041980,-57,1,4376
780,0.779000,45428,47042981,-66,-9,4379
781,0.780000,45429,47043981,-51,1,4371
782,0.781000,45430,47044981,-46,8,4387
783,0.782000,45431,47045981,-37,22,4392
784,0.783000,45432,47046981,-28,23,4406
785,0.784000,45433,47047981,-39,20,4414
786,0.785000,45434,47048981,-32,23,4381
787,0.786000,45435,47049981,-22,19,4375
788,0.786999,45436,47050980,-34,26,4413
789,0.787999,45437,47051980,-26,30,4415
790,0.788999,45438,47052980,-18,23,4393
791,0.789999,45439,47053980,-36,22,4387
792,0.791000,45440,47054981,-46,23,4362
793,0.792000,45441,47055981,-37,29,4387
794,0.793000,45442,47056981,-38,48,4395
795,0.794000,45443,47057981,-43,30,4382
796,0.795000,45444,47058981,-22,16,4402
797,0.796000,45445,47059981,-30,33,4400
798,0.797000,45446,47060981,-53,34,4399
799,0.798000,45447,47061981,-63,37,4397
800,0.799000,45448,47062981,-62,24,4371
801,0.800000,45449,47063981,-39,26,4355
802,0.801000,45450,47064981,-21,33,4371
803,0.801999,45451,47065980,-22,22,4383
804,0.803000,45452,47066981,-39,11,4395
805,0.804000,45453,47067981,-40,-2,4413
806,0.805000,45454,47068981,-26,20,4397
807,0.806000,45455,47069981,-39,30,4367
808,0.807000,45456,47070981,-56,18,4384
809,0.808000,45457,47071981,-46,14,4389
810,0.808999,45458,47072980,-51,29,4389
811,0.810000,45459,47073981,-56,47,4382
812,0.810999,45460,47074980,-43,38,4376
813,0.812000,45461,47075981,-24,38,4397
814,0.813000,45462,47076981,-29,49,4400
815,0.814000,45463,47077981,-41,28,4424
816,0.815000,45464,47078981,-46,9,4405
817,0.815999,45465,47079980,-44,5,4374
818,0.817000,45466,47080981,-29,14,4385
819,0.817999,45467,47081980,-36,27,4395
820,0.819000,45468,47082981,-52,19,4384
821,0.819999,45469,47083980,-53,20,4393
822,0.821000,45470,47084981,-26,20,4419
823,0.821999,45471,47085980,-28,16,4410
824,0.823000,45472,47086981,-61,35,4430
825,0.824000,45473,47087981,-43,58,4411
826,0.825000,45474,47088981,-36,48,4386
827,0.826000,45475,47089981,-35,35,4405
828,0.827000,45476,47090981,-29,38,4388
829,0.828000,45477,47091981,-48,15,4362
830,0.829000,45478,47092981,-47,12,4375
831,0.830000,45479,47093981,-48,29,4384
832,0.831000,45480,47094981,-45,41,4376
833,0.831999,45481,47095980,-46,38,4396
834,0.833000,45482,47096981,-45,38,4419
835,0.834000,45483,47097981,-27,46,4399
836,0.835000,45484,47098981,-28,22,4397
837,0.836000,45485,47099981,-23,6,4406
838,0.837000,45486,47100981,-39,19,4390
839,0.838000,45487,47101981,-53,27,4391
840,0.839000,45488,47102981,-42,20,4392
841,0.839999,45489,47103980,-38,29,4386
842,0.841000,45490,47104981,-57,38,4390
843,0.841999,45491,47105980,-63,33,4396
844,0.843000,45492,47106981,-34,33,4387
845,0.844000,45493,47107981,-22,36,4382
846,0.845000,45494,47108981,-38,31,4383
847,0.846000,45495,47109981,-49,30,4376
848,0.847000,45496,47110981,-39,27,4385
849,0.848000,45497,47111981,-47,29,4390
850,0.849000,45498,47112981,-52,25,4378
851,0.850000,45499,47113981,-40,22,4384
852,0.851000,45500,47114981,-57,32,4365
853,0.852000,45501,47115981,-58,27,4388
854,0.853000,45502,47116981,-40,19,4400
855,0.854000,45503,47117981,-30,25,4380
856,0.854999,45504,47118980,-26,31,4388
857,0.856000,45505,47119981,-30,29,4386
858,0.857000,45506,47120981,-32,29,4378
859,0.857999,45507,47121980,-39,23,4386
860,0.859000,45508,47122981,-41,23,4406
861,0.860000,45509,47123981,-32,41,4397
862,0.860999,45510,47124980,-39,36,4399
863,0.862000,45511,47125981,-42,36,4389
864,0.863000,45512,47126981,-36,44,4367
865,0.863999,45513,47127980,-46,25,4378
866,0.864999,45514,47128980,-59,10,4396
867,0.866000,45515,47129981,-48,11,4384
868,0.867000,45516,47130981,-23,22,4369
869,0.868000,45517,47131981,-35,33,4382
870,0.868999,45518,47132980,-43,29,4379
871,0.870000,45519,47133981,-40,22,4371
872,0.871000,45520,47134981,-35,34,4385
873,0.871999,45521,47135980,-43,27,4409
874,0.873000,45522,47136981,-50,16,4402
875,0.874000,45523,47137981,-30,24,4382
876,0.875000,45524,47138981,-31,18,4381
877,0.876000,45525,47139981,-58,20,4398
878,0.876999,45526,47140980,-41,29,4394
879,0.878000,45527,47141981,-5,29,4378
880,0.879000,45528,47142981,-11,19,4387
881,0.880000,45529,47143981,-32,17,4359
882,0.881000,45530,47144981,-42,25,4351
883,0.882000,45531,47145981,-44,25,4402
884,0.883000,45532,47146981,-46,25,4433
885,0.884000,45533,47147981,-39,22,4396
886,0.885000,45534,47148981,-48,23,4351
887,0.885999,45535,47149980,-46,30,4360
888,0.887000,45536,47150981,-34,27,4396
889,0.888000,45537,47151981,-47,32,4419
890,0.889000,45538,47152981,-61,35,4405
891,0.890000,45539,47153981,-53,30,4393
892,0.891000,45540,47154981,-46,22,4387
893,0.892000,45541,47155981,-37,14,4398
894,0.893000,45542,47156981,-42,30,4417
895,0.894000,45543,47157981,-49,41,4393
896,0.895000,45544,47158981,-39,30,4382
897,0.896000,45545,47159981,-46,16,4382
898,0.896999,45546,47160980,-48,32,4388
899,0.898000,45547,47161981,-35,47,4397
900,0.899000,45548,47162981,-30,40,4406
901,0.900000,45549,47163981,-50,44,4411
902,0.901000,45550,47164981,-57,49,4390
903,0.902000,45551,47165981,-56,23,4388
904,0.903000,45552,47166981,-46,8,4416
905,0.904000,45553,47167981,-36,19,4413
906,0.905000,45554,47168981,-46,17,4411
907,0.905999,45555,47169980,-48,14,4413
908,0.907000,45556,47170981,-47,28,4396
909,0.908000,45557,47171981,-40,37,4395
910,0.908999,45558,47172980,-34,39,4355
911,0.910000,45559,47173981,-44,28,4346
912,0.910999,45560,47174980,-43,4,4387
913,0.912000,45561,47175981,-39,15,4403
914,0.912999,45562,47176980,-40,32,4407
915,0.914000,45563,47177981,-38,37,4402
916,0.915000,45564,47178981,-48,41,4375
917,0.916000,45565,47179981,-48,44,4369
918,0.916999,45566,47180980,-42,22,4395
919,0.918000,45567,47181981,-30,5,4393
920,0.919000,45568,47182981,-25,32,4377
921,0.920000,45569,47183981,-31,36,4378
922,0.920999,45570,47184980,-35,19,4367
923,0.921999,45571,47185980,-37,15,4358
924,0.923000,45572,47186981,-45,17,4381
925,0.924000,45573,47187981,-48,26,4384
926,0.925000,45574,47188981,-45,27,4382
927,0.926000,45575,47189981,-41,35,4396
928,0.926999,45576,47190980,-39,43,4401
929,0.928000,45577,47191981,-50,35,4384
930,0.929000,45578,47192981,-51,33,4394
931,0.929999,45579,47193980,-42,26,4424
932,0.931000,45580,47194981,-34,18,4401
933,0.932000,45581,47195981,-39,17,4386
934,0.932999,45582,47196980,-47,20,4414
935,0.934000,45583,47197981,-41,21,4425
936,0.934999,45584,47198980,-31,21,4401
937,0.936000,45585,47199981,-27,21,4376
938,0.937000,45586,47200981,-40,21,4365
939,0.938000,45587,47201981,-48,22,4388
940,0.939000,45588,47202981,-32,18,4404
941,0.940000,45589,47203981,-33,36,4396
942,0.941000,45590,47204981,-32,42,4378
943,0.942000,45591,47205981,-8,31,4391
944,0.943000,45592,47206981,-21,37,4386
945,0.943999,45593,47207980,-55,34,4374
946,0.945000,45594,47208981,-68,20,4391
947,0.946000,45595,47209981,-52,22,4388
948,0.947000,45596,47210981,-33,34,4388
949,0.948000,45597,47211981,-51,35,4353
950,0.949000,45598,47212981,-59,31,4342
951,0.950000,45599,47213981,-34,22,4359
952,0.951000,45600,47214981,-35,22,4353
953,0.952000,45601,47215981,-51,25,4369
954,0.953000,45602,47216981,-40,15,4371
955,0.954000,45603,47217981,-17,5,4359
956,0.955000,45604,47218981,-18,8,4381
957,0.956000,45605,47219981,-31,6,4396
958,0.956999,45606,47220980,-25,11,4404
959,0.958000,45607,47221981,-27,34,4420
960,0.959000,45608,47222981,-36,38,4408
961,0.960000,45609,47223981,-40,35,4366
962,0.961000,45610,47224981,-35,35,4385
963,0.962000,45611,47225981,-37,12,4403
964,0.963000,45612,47226981,-47,5,4399
965,0.964000,45613,47227981,-48,28,4425
966,0.965000,45614,47228981,-40,36,4396
967,0.966000,45615,47229981,-33,36,4364
968,0.967000,45616,47230981,-31,28,4388
969,0.968000,45617,47231981,-22,18,4408
970,0.969000,45618,47232981,-16,21,4413
971,0.970000,45619,47233981,-19,23,4398
972,0.971000,45620,47234981,-22,9,4377
973,0.972000,45621,47235981,-21,22,4378
974,0.973000,45622,47236981,-35,40,4403
975,0.974000,45623,47237981,-37,26,4427
976,0.975000,45624,47238981,-32,23,4425
977,0.976000,45625,47239981,-39,33,4426
978,0.977000,45626,47240981,-40,40,4411
979,0.978000,45627,47241981,-23,35,4390
980,0.979000,45628,47242981,-22,28,4396
981,0.980000,45629,47243981,-47,29,4388
982,0.981000,45630,47244981,-44,20,4382
983,0.982000,45631,47245981,-37,14,4377
984,0.983000,45632,47246981,-38,12,4403
985,0.984000,45633,47247981,-32,9,4419
986,0.984999,45634,47248980,-42,19,4400
987,0.986000,45635,47249981,-45,12,4423
988,0.987000,45636,47250981,-35,-10,4402
989,0.987999,45637,47251980,-28,3,4375
990,0.989000,45638,47252981,-24,50,4392
991,0.990000,45639,47253981,-25,53,4381
992,0.991000,45640,47254981,-14,29,4371
993,0.992000,45641,47255981,-19,22,4350
994,0.993000,45642,47256981,-41,23,4368
995,0.994000,45643,47257981,-59,18,4392
996,0.995000,45644,47258981,-59,16,4374
997,0.996000,45645,47259981,-49,24,4387
998,0.996999,45646,47260980,-38,16,4386
999,0.998000,45647,47261981,-27,20,4378
1000,0.999000,45648,47262981,-32,31,4382
1001,1.000000,45649,47263981,-31,46,4377
1002,1.001000,45650,47264981,-36,45,4380
1003,1.002000,45651,47265981,-29,6,4384
1004,1.003000,45652,47266981,-22,9,4376
1005,1.004000,45653,47267981,-53,38,4397
1006,1.005000,45654,47268981,-62,37,4405
1007,1.006000,45655,47269981,-43,38,4389
1008,1.007000,45656,47270981,-44,38,4391
1009,1.008000,45657,47271981,-41,49,4373
1010,1.009000,45658,47272981,-39,46,4385
1011,1.009999,45659,47273980,-44,16,4395
1012,1.011000,45660,47274981,-42,2,4392
1013,1.011999,45661,47275980,-44,12,4416
1014,1.013000,45662,47276981,-38,31,4408
1015,1.014000,45663,47277981,-39,19,4399
1016,1.015000,45664,47278981,-37,19,4384
1017,1.016000,45665,47279981,-27,17,4376
1018,1.017000,45666,47280981,-24,18,4388
1019,1.018000,45667,47281981,-43,30,4362
1020,1.019000,45668,47282981,-49,27,4351
1021,1.019999,45669,47283980,-37,29,4376
1022,1.021000,45670,47284981,-38,25,4386
1023,1.022000,45671,47285981,-41,26,4379
1024,1.022999,45672,47286980,-39,36,4368
1025,1.024000,45673,47287981,-45,29,4390
1026,1.025000,45674,47288981,-57,2,4395
1027,1.026000,45675,47289981,-41,1,4372
1028,1.026999,45676,47290980,-39,15,4363
1029,1.028000,45677,47291981,-57,27,4399
1030,1.029000,45678,47292981,-56,31,4411
1031,1.029999,45679,47293980,-37,30,4400
1032,1.030999,45680,47294980,-34,38,4416
1033,1.032000,45681,47295981,-49,24,4394
1034,1.033000,45682,47296981,-40,13,4386
1035,1.034000,45683,47297981,-22,18,4412
1036,1.035000,45684,47298981,-25,2,4428
1037,1.036000,45685,47299981,-45,-2,4395
1038,1.036999,45686,47300980,-48,21,4378
1039,1.038000,45687,47301981,-35,35,4383
1040,1.038999,45688,47302980,-30,35,4375
1041,1.040000,45689,47303981,-40,38,4395
1042,1.041000,45690,47304981,-46,33,4394
1043,1.042000,45691,47305981,-28,34,4375
1044,1.043000,45692,47306981,-31,45,4372
1045,1.044000,45693,47307981,-38,30,4378
1046,1.045000,45694,47308981,-42,21,4374
1047,1.046000,45695,47309981,-40,30,4354
1048,1.046999,45696,47310980,-31,38,4360
1049,1.048000,45697,47311981,-43,39,4381
1050,1.049000,45698,47312981,-39,31,4399
1051,1.050000,45699,47313981,-32,40,4407
1052,1.051000,45700,47314981,-45,43,4397
1053,1.052000,45701,47315981,-54,23,4396
1054,1.053000,45702,47316981,-48,22,4382
1055,1.054000,45703,47317981,-25,19,4383
1056,1.055000,45704,47318981,-17,17,4384
1057,1.056000,45705,47319981,-35,23,4359
1058,1.057000,45706,47320981,-35,23,4369
1059,1.058000,45707,47321981,-53,17,4378
1060,1.058999,45708,47322980,-74,16,4391
1061,1.060000,45709,47323981,-55,19,4378
1062,1.061000,45710,47324981,-25,26,4377
1063,1.062000,45711,47325981,-26,25,4398
1064,1.063000,45712,47326981,-34,22,4389
1065,1.064000,45713,47327981,-36,38,4380
1066,1.065000,45714,47328981,-44,38,4378
1067,1.065999,45715,47329980,-36,31,4375
1068,1.067000,45716,47330981,-36,22,4385
1069,1.067999,45717,47331980,-40,29,4395
1070,1.069000,45718,47332981,-33,47,4389
1071,1.070000,45719,47333981,-33,37,4405
1072,1.071000,45720,47334981,-27,22,4432
1073,1.072000,45721,47335981,-31,25,4423
1074,1.072999,45722,47336980,-61,31,4368
1075,1.074000,45723,47337981,-62,26,4385
1076,1.075000,45724,47338981,-48,13,4398
1077,1.075999,45725,47339980,-41,9,4364
1078,1.077000,45726,47340981,-41,14,4377
1079,1.078000,45727,47341981,-50,17,4380
1080,1.079000,45728,47342981,-48,25,4357
1081,1.080000,45729,47343981,-34,21,4351
1082,1.081000,45730,47344981,-29,31,4365
1083,1.082000,45731,47345981,-40,42,4374
1084,1.082999,45732,47346980,-39,25,4381
1085,1.084000,45733,47347981,-35,25,4394
1086,1.085000,45734,47348981,-33,27,4401
1087,1.086000,45735,47349981,-27,25,4385
1088,1.087000,45736,47350981,-24,29,4357
1089,1.088000,45737,47351981,-30,29,4396
1090,1.089000,45738,47352981,-37,21,4437
1091,1.090000,45739,47353981,-25,18,4386
1092,1.091000,45740,47354981,-17,26,4383
1093,1.092000,45741,47355981,-19,34,4409
1094,1.093000,45742,47356981,-21,27,4392
1095,1.094000,45743,47357981,-28,28,4388
1096,1.095000,45744,47358981,-34,35,4396
1097,1.095999,45745,47359980,-42,42,4394
1098,1.096999,45746,47360980,-48,39,4375
1099,1.098000,45747,47361981,-40,26,4376
1100,1.099000,45748,47362981,-26,24,4389
1101,1.100000,45749,47363981,-35,32,4381
1102,1.101000,45750,47364981,-61,21,4370
1103,1.102000,45751,47365981,-69,-5,4387
1104,1.102999,45752,47366980,-46,8,4364
1105,1.104000,45753,47367981,-36,39,4345
1106,1.104999,45754,47368980,-50,39,4364
1107,1.106000,45755,47369981,-52,34,4386
1108,1.107000,45756,47370981,-46,32,4414
1109,1.108000,45757,47371981,-51,34,4408
1110,1.109000,45758,47372981,-61,39,4410
1111,1.110000,45759,47373981,-52,27,4410
1112,1.111000,45760,47374981,-39,15,4402
1113,1.111999,45761,47375980,-42,10,4401
1114,1.113000,45762,47376981,-46,19,4386
1115,1.113999,45763,47377980,-45,25,4399
1116,1.115000,45764,47378981,-52,34,4432
1117,1.116000,45765,47379981,-34,41,4419
1118,1.117000,45766,47380981,-31,37,4395
1119,1.118000,45767,47381981,-53,41,4373
1120,1.119000,45768,47382981,-36,42,4360
1121,1.120000,45769,47383981,-22,51,4374
1122,1.121000,45770,47384981,-29,47,4388
1123,1.122000,45771,47385981,-44,22,4387
1124,1.122999,45772,47386980,-33,3,4370
1125,1.124000,45773,47387981,-5,22,4371
1126,1.125000,45774,47388981,-8,45,4390
1127,1.125999,45775,47389980,-22,25,4409
1128,1.127000,45776,47390981,-18,16,4407
1129,1.128000,45777,47391981,-22,23,4402
1130,1.129000,45778,47392981,-41,26,4384
1131,1.130000,45779,47393981,-57,26,4383
1132,1.130999,45780,47394980,-51,36,4409
1133,1.132000,45781,47395981,-54,26,4417
1134,1.133000,45782,47396981,-46,16,4401
1135,1.134000,45783,47397981,-30,21,4381
1136,1.134999,45784,47398980,-45,15,4371
1137,1.136000,45785,47399981,-64,4,4375
1138,1.137000,45786,47400981,-53,10,4393
1139,1.138000,45787,47401981,-25,29,4389
1140,1.139000,45788,47402981,-42,25,4385
1141,1.140000,45789,47403981,-45,23,4386
1142,1.141000,45790,47404981,-45,29,4369
1143,1.142000,45791,47405981,-63,17,4340
1144,1.143000,45792,47406981,-46,15,4368
1145,1.144000,45793,47407981,-8,17,4393
1146,1.144999,45794,47408980,-8,20,4390
1147,1.146000,45795,47409981,-40,16,4408
1148,1.147000,45796,47410981,-38,17,4392
1149,1.148000,45797,47411981,-25,28,4377
1150,1.149000,45798,47412981,-19,17,4383
1151,1.150000,45799,47413981,-7,26,4377
1152,1.151000,45800,47414981,-21,34,4380
1153,1.152000,45801,47415981,-27,19,4398
1154,1.152999,45802,47416980,-33,15,4394
1155,1.154000,45803,47417981,-36,24,4378
1156,1.155000,45804,47418981,-32,22,4374
1157,1.155999,45805,47419980,-38,15,4377
1158,1.157000,45806,47420981,-49,20,4380
1159,1.158000,45807,47421981,-66,24,4379
1160,1.159000,45808,47422981,-45,27,4384
1161,1.160000,45809,47423981,-37,23,4400
1162,1.161000,45810,47424981,-38,15,4395
1163,1.162000,45811,47425981,-36,9,4405
1164,1.163000,45812,47426981,-53,3,4397
1165,1.164000,45813,47427981,-56,10,4376
1166,1.165000,45814,47428981,-42,26,4377
1167,1.166000,45815,47429981,-24,36,4374
1168,1.167000,45816,47430981,-33,27,4370
1169,1.168000,45817,47431981,-51,21,4381
1170,1.169000,45818,47432981,-52,34,4383
1171,1.170000,45819,47433981,-40,41,4350
1172,1.171000,45820,47434981,-23,37,4390
1173,1.172000,45821,47435981,-28,23,4429
1174,1.173000,45822,47436981,-26,27,4423
1175,1.174000,45823,47437981,-22,39,4407
1176,1.175000,45824,47438981,-44,27,4403
1177,1.176000,45825,47439981,-46,27,4421
1178,1.177000,45826,47440981,-26,47,4401
1179,1.177999,45827,47441980,-12,37,4376
1180,1.179000,45828,47442981,-36,28,4372
1181,1.180000,45829,47443981,-40,22,4380
1182,1.181000,45830,47444981,-18,25,4379
1183,1.182000,45831,47445981,-34,25,4388
1184,1.183000,45832,47446981,-15,10,4394
1185,1.183999,45833,47447980,-10,24,4396
1186,1.185000,45834,47448981,-51,27,4402
1187,1.186000,45835,47449981,-53,25,4401
1188,1.187000,45836,47450981,-46,34,4415
1189,1.187999,45837,47451980,-43,30,4425
1190,1.189000,45838,47452981,-48,28,4394
1191,1.190000,45839,47453981,-45,31,4368
1192,1.191000,45840,47454981,-29,29,4372
1193,1.192000,45841,47455981,-22,27,4376
1194,1.193000,45842,47456981,-24,25,4380
1195,1.194000,45843,47457981,-35,24,4401
1196,1.194999,45844,47458980,-53,20,4422
1197,1.196000,45845,47459981,-47,17,4414
1198,1.197000,45846,47460981,-32,13,4414
1199,1.197999,45847,47461980,-31,12,4408
1200,1.199000,45848,47462981,-17,19,4416
1201,1.200000,45849,47463981,-19,23,4438
1202,1.200999,45850,47464980,-45,11,4429
1203,1.202000,45851,47465981,-60,9,4408
1204,1.203000,45852,47466981,-41,28,4388
1205,1.204000,45853,47467981,-25,27,4395
1206,1.205000,45854,47468981,-31,29,4411
1207,1.206000,45855,47469981,-36,44,4428
1208,1.207000,45856,47470981,-27,32,4434
1209,1.207999,45857,47471980,-31,33,4378
1210,1.209000,45858,47472981,-42,18,4332
1211,1.210000,45859,47473981,-37,11,4338
1212,1.211000,45860,47474981,-30,35,4342
1213,1.212000,45861,47475981,-11,37,4358
1214,1.213000,45862,47476981,-21,27,4396
1215,1.214000,45863,47477981,-36,27,4403
1216,1.215000,45864,47478981,-32,39,4403
1217,1.216000,45865,47479981,-41,37,4404
1218,1.217000,45866,47480981,-46,34,4383
1219,1.218000,45867,47481981,-35,31,4374
1220,1.219000,45868,47482981,-20,26,4384
1221,1.220000,45869,47483981,-38,24,4403
1222,1.220999,45870,47484980,-30,29,4402
1223,1.222000,45871,47485981,-5,51,4399
1224,1.222999,45872,47486980,-16,38,4403
1225,1.224000,45873,47487981,-21,7,4403
1226,1.224999,45874,47488980,-25,13,4424
1227,1.226000,45875,47489981,-46,34,4418
1228,1.227000,45876,47490981,-57,35,4395
1229,1.228000,45877,47491981,-49,17,4406
1230,1.228999,45878,47492980,-32,26,4398
1231,1.230000,45879,47493981,-28,29,4386
1232,1.231000,45880,47494981,-37,20,4388
1233,1.232000,45881,47495981,-39,19,4385
1234,1.233000,45882,47496981,-37,20,4374
1235,1.234000,45883,47497981,-33,21,4357
1236,1.235000,45884,47498981,-38,12,4369
1237,1.236000,45885,47499981,-50,14,4384
1238,1.237000,45886,47500981,-41,26,4405
1239,1.237999,45887,47501980,-32,47,4403
1240,1.239000,45888,47502981,-38,56,4366
1241,1.239999,45889,47503980,-36,30,4369
1242,1.241000,45890,47504981,-42,15,4388
1243,1.242000,45891,47505981,-48,14,4380
1244,1.243000,45892,47506981,-47,14,4389
1245,1.244000,45893,47507981,-50,16,4390
1246,1.245000,45894,47508981,-43,16,4372
1247,1.245999,45895,47509980,-28,16,4381
1248,1.247000,45896,47510981,-24,18,4394
1249,1.248000,45897,47511981,-33,18,4404
1250,1.249000,45898,47512981,-32,11,4395
1251,1.250000,45899,47513981,-35,10,4356
1252,1.251000,45900,47514981,-44,16,4362
1253,1.252000,45901,47515981,-35,22,4422
1254,1.252999,45902,47516980,-30,20,4420
1255,1.253999,45903,47517980,-38,21,4389
1256,1.254999,45904,47518980,-30,12,4397
1257,1.256000,45905,47519981,-37,15,4410
1258,1.256999,45906,47520980,-69,35,4416
1259,1.258000,45907,47521981,-74,31,4430
1260,1.259000,45908,47522981,-61,20,4415
1261,1.260000,45909,47523981,-46,16,4380
1262,1.261000,45910,47524981,-38,30,4394
1263,1.261999,45911,47525980,-40,55,4412
1264,1.263000,45912,47526981,-42,38,4408
1265,1.264000,45913,47527981,-35,39,4407
1266,1.265000,45914,47528981,-33,57,4401
1267,1.266000,45915,47529981,-42,49,4379
1268,1.267000,45916,47530981,-28,45,4386
1269,1.268000,45917,47531981,-5,31,4407
1270,1.269000,45918,47532981,-47,18,4389
1271,1.270000,45919,47533981,-49,16,4371
1272,1.271000,45920,47534981,-20,15,4379
1273,1.272000,45921,47535981,-35,18,4397
1274,1.272999,45922,47536980,-19,25,4401
1275,1.274000,45923,47537981,-28,20,4391
1276,1.274999,45924,47538980,-33,10,4379
1277,1.276000,45925,47539981,-39,6,4382
1278,1.276999,45926,47540980,-57,11,4377
1279,1.277999,45927,47541980,-46,13,4379
1280,1.279000,45928,47542981,-26,19,4387
1281,1.280000,45929,47543981,-36,24,4386
1282,1.281000,45930,47544981,-71,3,4373
1283,1.281999,45931,47545980,-53,0,4363
1284,1.283000,45932,47546981,-27,18,4383
1285,1.284000,45933,47547981,-26,36,4397
1286,1.285000,45934,47548981,-33,39,4389
1287,1.286000,45935,47549981,-39,39,4376
1288,1.287000,45936,47550981,-42,51,4387
1289,1.288000,45937,47551981,-35,47,4390
1290,1.288999,45938,47552980,-31,38,4398
1291,1.289999,45939,47553980,-56,25,4414
1292,1.291000,45940,47554981,-53,23,4393
1293,1.292000,45941,47555981,-38,24,4401
1294,1.293000,45942,47556981,-29,23,4423
1295,1.294000,45943,47557981,-44,25,4398
1296,1.295000,45944,47558981,-63,20,4396
1297,1.295999,45945,47559980,-51,23,4396
1298,1.297000,45946,47560981,-39,31,4366
1299,1.298000,45947,47561981,-25,29,4372
1300,1.299000,45948,47562981,-14,31,4376
1301,1.300000,45949,47563981,-15,47,4374
1302,1.301000,45950,47564981,-31,59,4378
1303,1.302000,45951,47565981,-33,45,4376
1304,1.302999,45952,47566980,-35,20,4397
1305,1.304000,45953,47567981,-55,27,4426
1306,1.305000,45954,47568981,-45,26,4427
1307,1.306000,45955,47569981,-13,6,4403
1308,1.307000,45956,47570981,-32,7,4387
1309,1.308000,45957,47571981,-32,20,4379
1310,1.309000,45958,47572981,-23,31,4392
1311,1.309999,45959,47573980,-40,36,4400
1312,1.311000,45960,47574981,-32,35,4392
1313,1.312000,45961,47575981,-31,20,4399
1314,1.313000,45962,47576981,-40,10,4405
1315,1.314000,45963,47577981,-58,19,4397
1316,1.315000,45964,47578981,-47,21,4396
1317,1.316000,45965,47579981,-34,34,4377
1318,1.317000,45966,47580981,-42,29,4363
1319,1.318000,45967,47581981,-39,19,4389
1320,1.319000,45968,47582981,-37,34,4386
1321,1.320000,45969,47583981,-44,45,4378
1322,1.321000,45970,47584981,-58,39,4385
1323,1.322000,45971,47585981,-39,28,4395
1324,1.323000,45972,47586981,-55,25,4399
1325,1.324000,45973,47587981,-80,24,4394
1326,1.325000,45974,47588981,-56,21,4379
1327,1.326000,45975,47589981,-36,28,4359
1328,1.327000,45976,47590981,-49,40,4376
1329,1.328000,45977,47591981,-49,37,4372
1330,1.329000,45978,47592981,-19,32,4382
1331,1.330000,45979,47593981,-15,17,4397
1332,1.331000,45980,47594981,-27,22,4397
1333,1.332000,45981,47595981,-32,49,4395
1334,1.333000,45982,47596981,-31,56,4390
1335,1.334000,45983,47597981,-35,46,4380
1336,1.335000,45984,47598981,-23,30,4374
1337,1.336000,45985,47599981,-20,20,4382
1338,1.337000,45986,47600981,-28,25,4385
1339,1.337999,45987,47601980,-33,30,4364
1340,1.339000,45988,47602981,-35,22,4363
1341,1.340000,45989,47603981,-25,21,4393
1342,1.341000,45990,47604981,-36,10,4385
1343,1.341999,45991,47605980,-45,5,4382
1344,1.343000,45992,47606981,-37,11,4392
1345,1.344000,45993,47607981,-43,11,4382
1346,1.345000,45994,47608981,-43,25,4374
1347,1.346000,45995,47609981,-29,29,4381
1348,1.347000,45996,47610981,-25,21,4374
1349,1.347999,45997,47611980,-27,25,4391
1350,1.349000,45998,47612981,-35,33,4412
1351,1.350000,45999,47613981,-39,47,4401
1352,1.350999,46000,47614980,-23,39,4388
1353,1.352000,46001,47615981,-35,12,4417
1354,1.352999,46002,47616980,-46,21,4418
1355,1.354000,46003,47617981,-57,32,4388
1356,1.355000,46004,47618981,-55,35,4397
1357,1.356000,46005,47619981,-33,31,4394
1358,1.357000,46006,47620981,-16,31,4367
1359,1.358000,46007,47621981,-26,33,4367
1360,1.359000,46008,47622981,-47,12,4371
1361,1.360000,46009,47623981,-31,5,4377
1362,1.361000,46010,47624981,-32,25,4402
1363,1.362000,46011,47625981,-38,23,4398
1364,1.363000,46012,47626981,-43,13,4387
1365,1.364000,46013,47627981,-38,15,4389
1366,1.365000,46014,47628981,-46,28,4393
1367,1.366000,46015,47629981,-42,41,4395
1368,1.367000,46016,47630981,-49,34,4394
1369,1.368000,46017,47631981,-56,41,4396
1370,1.368999,46018,47632980,-22,44,4403
1371,1.370000,46019,47633981,-24,26,4395
1372,1.370999,46020,47634980,-39,17,4395
1373,1.371999,46021,47635980,-46,23,4395
1374,1.372999,46022,47636980,-36,34,4407
1375,1.374000,46023,47637981,-45,26,4414
1376,1.375000,46024,47638981,-39,21,4382
1377,1.376000,46025,47639981,-33,32,4360
1378,1.376999,46026,47640980,-44,18,4366
1379,1.377999,46027,47641980,-47,4,4406
1380,1.379000,46028,47642981,-38,11,4415
1381,1.380000,46029,47643981,-9,20,4406
1382,1.381000,46030,47644981,-20,23,4401
1383,1.381999,46031,47645980,-34,22,4382
1384,1.383000,46032,47646981,-42,24,4375
1385,1.384000,46033,47647981,-46,26,4363
1386,1.385000,46034,47648981,-49,16,4360
1387,1.386000,46035,47649981,-58,18,4396
1388,1.387000,46036,47650981,-50,28,4399
1389,1.388000,46037,47651981,-44,26,4389
1390,1.389000,46038,47652981,-29,15,4407
1391,1.389999,46039,47653980,-30,12,4388
1392,1.390999,46040,47654980,-55,32,4353
1393,1.392000,46041,47655981,-49,43,4349
1394,1.393000,46042,47656981,-34,26,4390
1395,1.393999,46043,47657980,-29,22,4399
1396,1.395000,46044,47658981,-29,36,4370
1397,1.396000,46045,47659981,-27,34,4370
1398,1.397000,46046,47660981,-20,16,4370
1399,1.398000,46047,47661981,-26,16,4382
1400,1.399000,46048,47662981,-35,27,4406
1401,1.400000,46049,47663981,-24,21,4413
1402,1.400999,46050,47664980,-37,22,4400
1403,1.401999,46051,47665980,-35,41,4404
1404,1.403000,46052,47666981,-23,63,4437
1405,1.404000,46053,47667981,-30,50,4401
1406,1.405000,46054,47668981,-37,26,4371
1407,1.406000,46055,47669981,-49,18,4398
1408,1.407000,46056,47670981,-37,20,4416
1409,1.407999,46057,47671980,-17,28,4412
1410,1.408999,46058,47672980,-28,28,4404
1411,1.410000,46059,47673981,-53,15,4405
1412,1.411000,46060,47674981,-45,4,4394
1413,1.412000,46061,47675981,-49,18,4393
1414,1.413000,46062,47676981,-49,29,4389
1415,1.414000,46063,47677981,-37,33,4400
1416,1.415000,46064,47678981,-48,28,4405
1417,1.416000,46065,47679981,-49,9,4380
1418,1.417000,46066,47680981,-51,5,4394
1419,1.418000,46067,47681981,-58,25,4399
1420,1.419000,46068,47682981,-55,32,4392
1421,1.420000,46069,47683981,-54,23,4399
1422,1.421000,46070,47684981,-50,20,4401
1423,1.421999,46071,47685980,-51,28,4403
1424,1.423000,46072,47686981,-35,31,4409
1425,1.423999,46073,47687980,-25,13,4407
1426,1.425000,46074,47688981,-38,32,4387
1427,1.426000,46075,47689981,-37,40,4363
1428,1.427000,46076,47690981,-38,32,4365
1429,1.428000,46077,47691981,-36,20,4387
1430,1.429000,46078,47692981,-38,3,4405
1431,1.430000,46079,47693981,-41,23,4411
1432,1.430999,46080,47694980,-34,33,4406
1433,1.432000,46081,47695981,-32,22,4425
1434,1.433000,46082,47696981,-22,21,4418
1435,1.434000,46083,47697981,-32,25,4388
1436,1.435000,46084,47698981,-35,27,4408
1437,1.435999,46085,47699980,-28,30,4402
1438,1.437000,46086,47700981,-43,24,4385
1439,1.438000,46087,47701981,-39,15,4407
1440,1.439000,46088,47702981,-21,20,4412
1441,1.440000,46089,47703981,-25,38,4389
1442,1.441000,46090,47704981,-35,56,4353
1443,1.442000,46091,47705981,-34,40,4353
1444,1.443000,46092,47706981,-42,10,4362
1445,1.444000,46093,47707981,-40,11,4367
1446,1.444999,46094,47708980,-43,29,4392
1447,1.446000,46095,47709981,-54,47,4381
1448,1.446999,46096,47710980,-48,54,4377
1449,1.448000,46097,47711981,-47,43,4394
1450,1.449000,46098,47712981,-39,29,4386
1451,1.449999,46099,47713980,-25,28,4374
1452,1.451000,46100,47714981,-28,18,4374
1453,1.452000,46101,47715981,-25,3,4384
1454,1.453000,46102,47716981,-26,8,4378
1455,1.454000,46103,47717981,-38,18,4379
1456,1.455000,46104,47718981,-24,30,4367
1457,1.456000,46105,47719981,-21,27,4360
1458,1.457000,46106,47720981,-24,2,4397
1459,1.457999,46107,47721980,-25,0,4406
1460,1.459000,46108,47722981,-48,8,4390
1461,1.460000,46109,47723981,-50,14,4375
1462,1.461000,46110,47724981,-31,28,4373
1463,1.462000,46111,47725981,-25,42,4369
1464,1.463000,46112,47726981,-28,38,4366
1465,1.464000,46113,47727981,-33,32,4382
1466,1.465000,46114,47728981,-60,54,4387
1467,1.466000,46115,47729981,-69,70,4394
1468,1.467000,46116,47730981,-43,57,4418
1469,1.468000,46117,47731981,-33,48,4405
1470,1.469000,46118,47732981,-18,43,4391
1471,1.470000,46119,47733981,-12,31,4415
1472,1.470999,46120,47734980,-25,16,4415
1473,1.472000,46121,47735981,-6,18,4401
1474,1.473000,46122,47736981,-3,16,4409
1475,1.474000,46123,47737981,-22,-7,4420
1476,1.474999,46124,47738980,-16,-6,4413
1477,1.476000,46125,47739981,-38,-2,4411
1478,1.477000,46126,47740981,-66,7,4406
1479,1.477999,46127,47741980,-60,39,4403
1480,1.479000,46128,47742981,-78,33,4414
1481,1.480000,46129,47743981,-88,28,4404
1482,1.481000,46130,47744981,-64,34,4372
1483,1.482000,46131,47745981,-68,31,4381
1484,1.483000,46132,47746981,-60,42,4385
1485,1.484000,46133,47747981,-47,35,4375
1486,1.485000,46134,47748981,-61,27,4392
1487,1.486000,46135,47749981,-32,34,4378
1488,1.487000,46136,47750981,-8,17,4362
1489,1.488000,46137,47751981,-17,-7,4359
1490,1.489000,46138,47752981,7,-5,4345
1491,1.490000,46139,47753981,-2,-1,4354
1492,1.491000,46140,47754981,-31,25,4365
1493,1.492000,46141,47755981,-18,41,4358
1494,1.493000,46142,47756981,-16,22,4359
1495,1.493999,46143,47757980,-21,34,4382
1496,1.495000,46144,47758981,13,52,4383
1497,1.496000,46145,47759981,6,23,4388
1498,1.497000,46146,47760981,-20,5,4395
1499,1.498000,46147,47761981,-6,14,4394
1500,1.499000,46148,47762981,-40,14,4408
1501,1.500000,46149,47763981,-48,25,4406
1502,1.501000,46150,47764981,-21,33,4410
1503,1.502000,46151,47765981,-66,9,4418
1504,1.503000,46152,47766981,-82,17,4388
1505,1.504000,46153,47767981,-80,37,4375
1506,1.505000,46154,47768981,-114,25,4393
1507,1.506000,46155,47769981,-78,53,4384
1508,1.507000,46156,47770981,-63,65,4402
1509,1.508000,46157,47771981,-109,54,4402
1510,1.509000,46158,47772981,-92,60,4364
1511,1.510000,46159,47773981,-90,33,4370
1512,1.511000,46160,47774981,-101,18,4360
1513,1.511999,46161,47775980,-54,37,4348
1514,1.513000,46162,47776981,-52,33,4377
1515,1.514000,46163,47777981,-27,24,4391
1516,1.515000,46164,47778981,8,23,4384
1517,1.515999,46165,47779980,-11,12,4394
1518,1.516999,46166,47780980,9,18,4410
1519,1.518000,46167,47781981,15,14,4430
1520,1.519000,46168,47782981,-10,-8,4409
1521,1.520000,46169,47783981,-5,14,4397
1522,1.521000,46170,47784981,6,20,4439
1523,1.522000,46171,47785981,-8,2,4422
1524,1.523000,46172,47786981,-13,36,4389
1525,1.524000,46173,47787981,-16,34,4406
1526,1.524999,46174,47788980,-41,22,4423
1527,1.526000,46175,47789981,-53,43,4395
1528,1.527000,46176,47790981,-63,41,4370
1529,1.528000,46177,47791981,-53,54,4363
1530,1.529000,46178,47792981,-34,51,4349
1531,1.530000,46179,47793981,-63,21,4367
1532,1.530999,46180,47794980,-56,20,4367
1533,1.531999,46181,47795980,-25,26,4359
1534,1.533000,46182,47796981,-74,30,4353
1535,1.534000,46183,47797981,-75,46,4344
1536,1.535000,46184,47798981,-37,38,4370
1537,1.536000,46185,47799981,-47,12,4390
1538,1.537000,46186,47800981,-48,24,4390
1539,1.538000,46187,47801981,-46,43,4369
1540,1.539000,46188,47802981,-44,31,4399
1541,1.540000,46189,47803981,-50,16,4401
1542,1.540999,46190,47804980,-44,27,4381
1543,1.542000,46191,47805981,-22,48,4400
1544,1.542999,46192,47806980,-1,43,4392
1545,1.544000,46193,47807981,1,16,4408
1546,1.544999,46194,47808980,-13,8,4408
1547,1.546000,46195,47809981,-38,27,4401
1548,1.546999,46196,47810980,-23,25,4398
1549,1.548000,46197,47811981,-10,28,4363
1550,1.549000,46198,47812981,-31,35,4375
1551,1.550000,46199,47813981,-39,22,4398
1552,1.551000,46200,47814981,-60,8,4392
1553,1.552000,46201,47815981,-57,2,4401
1554,1.553000,46202,47816981,-76,11,4384
1555,1.554000,46203,47817981,-98,17,4361
1556,1.554999,46204,47818980,-58,15,4373
1557,1.556000,46205,47819981,-44,16,4367
1558,1.556999,46206,47820980,-55,20,4373
1559,1.557999,46207,47821980,-42,19,4376
1560,1.559000,46208,47822981,-40,15,4364
1561,1.560000,46209,47823981,-33,13,4371
1562,1.561000,46210,47824981,-32,15,4386
1563,1.562000,46211,47825981,-41,34,4406
1564,1.562999,46212,47826980,-37,36,4394
1565,1.564000,46213,47827981,-48,15,4391
1566,1.565000,46214,47828981,-46,15,4389
1567,1.566000,46215,47829981,-53,30,4395
1568,1.566999,46216,47830980,-72,37,4413
1569,1.568000,46217,47831981,-56,38,4432
1570,1.569000,46218,47832981,-44,28,4426
1571,1.570000,46219,47833981,-30,8,4406
1572,1.571000,46220,47834981,-3,7,4424
1573,1.572000,46221,47835981,-21,17,4463
1574,1.573000,46222,47836981,-40,25,4463
1575,1.574000,46223,47837981,-28,30,4447
1576,1.575000,46224,47838981,-43,30,4425
1577,1.575999,46225,47839980,-50,19,4376
1578,1.577000,46226,47840981,-49,16,4367
1579,1.577999,46227,47841980,-45,19,4366
1580,1.579000,46228,47842981,-38,25,4369
1581,1.580000,46229,47843981,-44,24,4379
1582,1.581000,46230,47844981,-37,19,4382
1583,1.582000,46231,47845981,-24,31,4392
1584,1.583000,46232,47846981,-11,20,4393
1585,1.584000,46233,47847981,-20,15,4390
1586,1.585000,46234,47848981,-43,23,4416
1587,1.586000,46235,47849981,-26,35,4415
1588,1.587000,46236,47850981,-25,26,4405
1589,1.588000,46237,47851981,-41,9,4381
1590,1.589000,46238,47852981,-39,16,4351
1591,1.590000,46239,47853981,-43,21,4383
1592,1.591000,46240,47854981,-34,25,4395
1593,1.592000,46241,47855981,-39,27,4395
1594,1.593000,46242,47856981,-41,19,4405
1595,1.594000,46243,47857981,-23,12,4399
1596,1.595000,46244,47858981,-41,22,4394
1597,1.596000,46245,47859981,-46,25,4398
1598,1.597000,46246,47860981,-26,20,4390
1599,1.598000,46247,47861981,-27,11,4383
1600,1.599000,46248,47862981,-33,9,4390
1601,1.600000,46249,47863981,-55,22,4398
1602,1.601000,46250,47864981,-51,44,4408
1603,1.601999,46251,47865980,-42,50,4393
1604,1.603000,46252,47866981,-60,46,4383
1605,1.604000,46253,47867981,-73,45,4372
1606,1.605000,46254,47868981,-85,30,4368
1607,1.606000,46255,47869981,-77,28,4384
1608,1.606999,46256,47870980,-69,34,4388
1609,1.608000,46257,47871981,-48,33,4401
1610,1.609000,46258,47872981,-31,32,4392
1611,1.610000,46259,47873981,-48,35,4373
1612,1.611000,46260,47874981,-50,21,4390
1613,1.612000,46261,47875981,-24,13,4421
1614,1.613000,46262,47876981,-8,18,4418
1615,1.614000,46263,47877981,-23,12,4403
1616,1.615000,46264,47878981,-17,16,4396
1617,1.616000,46265,47879981,5,16,4370
1618,1.617000,46266,47880981,-5,19,4384
1619,1.617999,46267,47881980,-29,28,4387
1620,1.619000,46268,47882981,-52,28,4382
1621,1.620000,46269,47883981,-39,26,4381
1622,1.621000,46270,47884981,-23,33,4378
1623,1.622000,46271,47885981,-31,31,4392
1624,1.623000,46272,47886981,-29,25,4384
1625,1.624000,46273,47887981,-23,27,4378
1626,1.624999,46274,47888980,-35,24,4383
1627,1.626000,46275,47889981,-39,27,4381
1628,1.627000,46276,47890981,-46,30,4367
1629,1.628000,46277,47891981,-51,31,4373
1630,1.629000,46278,47892981,-31,23,4393
1631,1.630000,46279,47893981,-53,11,4393
1632,1.631000,46280,47894981,-58,13,4397
1633,1.632000,46281,47895981,-26,25,4402
1634,1.633000,46282,47896981,-33,25,4397
1635,1.634000,46283,47897981,-34,21,4418
1636,1.634999,46284,47898980,-29,29,4419
1637,1.635999,46285,47899980,-43,32,4409
1638,1.637000,46286,47900981,-50,31,4420
1639,1.638000,46287,47901981,-50,24,4410
1640,1.639000,46288,47902981,-43,21,4405
1641,1.640000,46289,47903981,-33,21,4394
1642,1.640999,46290,47904980,-20,18,4380
1643,1.642000,46291,47905981,-15,29,4388
1644,1.643000,46292,47906981,-23,43,4383
1645,1.643999,46293,47907980,-30,56,4385
1646,1.645000,46294,47908981,-30,48,4380
1647,1.646000,46295,47909981,-33,35,4369
1648,1.647000,46296,47910981,-28,30,4383
1649,1.648000,46297,47911981,-39,25,4380
1650,1.648999,46298,47912980,-48,35,4363
1651,1.650000,46299,47913981,-28,51,4382
1652,1.651000,46300,47914981,-27,54,4387
1653,1.652000,46301,47915981,-43,33,4364
1654,1.653000,46302,47916981,-61,18,4393
1655,1.654000,46303,47917981,-53,20,4415
1656,1.655000,46304,47918981,-39,22,4398
1657,1.656000,46305,47919981,-49,23,4365
1658,1.657000,46306,47920981,-46,39,4377
1659,1.658000,46307,47921981,-43,30,4414
1660,1.659000,46308,47922981,-50,17,4401
1661,1.659999,46309,47923980,-44,32,4380
1662,1.661000,46310,47924981,-30,42,4381
1663,1.662000,46311,47925981,-11,43,4413
1664,1.663000,46312,47926981,-30,31,4426
1665,1.664000,46313,47927981,-50,23,4386
1666,1.664999,46314,47928980,-20,17,4379
1667,1.666000,46315,47929981,-24,-1,4408
1668,1.667000,46316,47930981,-43,-3,4361
1669,1.668000,46317,47931981,-42,22,4344
1670,1.669000,46318,47932981,-41,31,4388
1671,1.670000,46319,47933981,-48,19,4385
1672,1.671000,46320,47934981,-44,22,4383
1673,1.672000,46321,47935981,-35,19,4395
1674,1.673000,46322,47936981,-27,22,4415
1675,1.674000,46323,47937981,-23,34,4450
1676,1.675000,46324,47938981,-52,24,4428
1677,1.675999,46325,47939980,-47,18,4383
1678,1.677000,46326,47940981,-29,17,4377
1679,1.678000,46327,47941981,-30,26,4377
1680,1.679000,46328,47942981,-28,26,4394
1681,1.680000,46329,47943981,-17,28,4405
1682,1.680999,46330,47944980,-21,43,4399
1683,1.682000,46331,47945981,-35,31,4398
1684,1.682999,46332,47946980,-32,28,4396
1685,1.684000,46333,47947981,-35,29,4379
1686,1.685000,46334,47948981,-33,22,4383
1687,1.685999,46335,47949980,-37,27,4399
1688,1.687000,46336,47950981,-46,37,4379
1689,1.688000,46337,47951981,-32,38,4384
1690,1.689000,46338,47952981,-7,27,4376
1691,1.690000,46339,47953981,-10,29,4379
1692,1.691000,46340,47954981,-24,33,4395
1693,1.692000,46341,47955981,-39,27,4361
1694,1.693000,46342,47956981,-54,32,4347
1695,1.693999,46343,47957980,-51,45,4359
1696,1.695000,46344,47958981,-45,46,4362
1697,1.696000,46345,47959981,-56,25,4368
1698,1.697000,46346,47960981,-71,14,4381
1699,1.698000,46347,47961981,-59,15,4379
1700,1.699000,46348,47962981,-42,25,4397
1701,1.700000,46349,47963981,-36,32,4411
1702,1.701000,46350,47964981,-35,25,4416
1703,1.702000,46351,47965981,-32,9,4409
1704,1.702999,46352,47966980,-27,9,4389
1705,1.704000,46353,47967981,-14,31,4409
1706,1.704999,46354,47968980,-6,34,4416
1707,1.706000,46355,47969981,-26,29,4397
1708,1.707000,46356,47970981,-30,21,4395
1709,1.708000,46357,47971981,-46,20,4392
1710,1.709000,46358,47972981,-71,36,4379
1711,1.709999,46359,47973980,-51,36,4396
1712,1.711000,46360,47974981,-42,24,4396
1713,1.712000,46361,47975981,-65,28,4384
1714,1.713000,46362,47976981,-66,33,4408
1715,1.713999,46363,47977980,-60,37,4411
1716,1.715000,46364,47978981,-67,35,4384
1717,1.716000,46365,47979981,-71,28,4367
1718,1.717000,46366,47980981,-74,23,4366
1719,1.718000,46367,47981981,-58,11,4360
1720,1.719000,46368,47982981,-47,5,4355
1721,1.720000,46369,47983981,-56,9,4377
1722,1.720999,46370,47984980,-72,17,4388
1723,1.722000,46371,47985981,-67,23,4372
1724,1.723000,46372,47986981,-62,26,4372
1725,1.724000,46373,47987981,-49,16,4396
1726,1.725000,46374,47988981,-36,21,4382
1727,1.726000,46375,47989981,-37,32,4357
1728,1.727000,46376,47990981,-30,29,4394
1729,1.728000,46377,47991981,-26,33,4421
1730,1.729000,46378,47992981,-15,29,4386
1731,1.729999,46379,47993980,-16,28,4390
1732,1.731000,46380,47994981,-15,33,4390
1733,1.732000,46381,47995981,-9,31,4374
1734,1.733000,46382,47996981,-11,33,4393
1735,1.734000,46383,47997981,-15,39,4390
1736,1.735000,46384,47998981,-8,32,4378
1737,1.736000,46385,47999981,-9,20,4389
1738,1.737000,46386,48000981,-27,20,4388
1739,1.738000,46387,48001981,-29,23,4380
1740,1.739000,46388,48002981,-34,18,4383
1741,1.740000,46389,48003981,-35,19,4387
1742,1.741000,46390,48004981,-32,18,4395
1743,1.742000,46391,48005981,-41,10,4386
1744,1.743000,46392,48006981,-55,14,4383
1745,1.743999,46393,48007980,-70,20,4405
1746,1.745000,46394,48008981,-66,21,4413
1747,1.746000,46395,48009981,-60,24,4403
1748,1.747000,46396,48010981,-70,18,4399
1749,1.747999,46397,48011980,-72,17,4392
1750,1.749000,46398,48012981,-69,18,4412
1751,1.749999,46399,48013980,-62,23,4424
1752,1.751000,46400,48014981,-69,27,4415
1753,1.752000,46401,48015981,-61,24,4413
1754,1.753000,46402,48016981,-38,27,4424
1755,1.754000,46403,48017981,-53,31,4416
1756,1.755000,46404,48018981,-57,52,4402
1757,1.756000,46405,48019981,-43,53,4405
1758,1.757000,46406,48020981,-28,25,4402
1759,1.758000,46407,48021981,-32,15,4403
1760,1.759000,46408,48022981,-28,23,4406
1761,1.760000,46409,48023981,-29,42,4392
1762,1.761000,46410,48024981,-46,48,4380
1763,1.762000,46411,48025981,-35,40,4396
1764,1.763000,46412,48026981,-17,57,4391
1765,1.764000,46413,48027981,-31,59,4377
1766,1.765000,46414,48028981,-51,27,4374
1767,1.766000,46415,48029981,-50,20,4370
1768,1.767000,46416,48030981,-42,33,4374
1769,1.768000,46417,48031981,-28,24,4378
1770,1.769000,46418,48032981,-25,9,4396
1771,1.770000,46419,48033981,-32,14,4388
1772,1.771000,46420,48034981,-49,27,4378
1773,1.772000,46421,48035981,-55,40,4391
1774,1.773000,46422,48036981,-45,26,4390
1775,1.774000,46423,48037981,-46,17,4403
1776,1.775000,46424,48038981,-27,33,4410
1777,1.776000,46425,48039981,-11,15,4388
1778,1.777000,46426,48040981,-26,-5,4380
1779,1.778000,46427,48041981,-36,-3,4386
1780,1.778999,46428,48042980,-20,3,4378
1781,1.779999,46429,48043980,-15,7,4386
1782,1.781000,46430,48044981,-26,15,4412
1783,1.782000,46431,48045981,-25,35,4408
1784,1.783000,46432,48046981,-18,49,4404
1785,1.784000,46433,48047981,-11,38,4392
1786,1.785000,46434,48048981,-27,20,4375
1787,1.786000,46435,48049981,-65,15,4389
1788,1.787000,46436,48050981,-54,17,4403
1789,1.787999,46437,48051980,-36,22,4399
1790,1.789000,46438,48052981,-43,21,4397
1791,1.790000,46439,48053981,-34,29,4401
1792,1.791000,46440,48054981,-35,37,4391
1793,1.791999,46441,48055980,-53,35,4388
1794,1.793000,46442,48056981,-38,25,4401
1795,1.794000,46443,48057981,-28,10,4384
1796,1.795000,46444,48058981,-53,34,4356
1797,1.796000,46445,48059981,-38,41,4368
1798,1.797000,46446,48060981,-40,26,4372
1799,1.798000,46447,48061981,-57,28,4358
1800,1.799000,46448,48062981,-55,21,4377
1801,1.800000,46449,48063981,-64,10,4407
1802,1.800999,46450,48064980,-42,12,4415
1803,1.801999,46451,48065980,-9,28,4434
1804,1.802999,46452,48066980,-23,32,4413
1805,1.804000,46453,48067981,-34,41,4381
1806,1.804999,46454,48068980,-23,38,4393
1807,1.806000,46455,48069981,-37,13,4403
1808,1.807000,46456,48070981,-35,10,4405
1809,1.808000,46457,48071981,-14,21,4379
1810,1.809000,46458,48072981,-37,28,4375
1811,1.810000,46459,48073981,-28,32,4396
1812,1.811000,46460,48074981,-27,36,4394
1813,1.812000,46461,48075981,-40,26,4399
1814,1.812999,46462,48076980,-9,10,4379
1815,1.813999,46463,48077980,-11,28,4391
1816,1.815000,46464,48078981,-28,36,4410
1817,1.816000,46465,48079981,-38,16,4381
1818,1.816999,46466,48080980,-47,13,4383
1819,1.818000,46467,48081981,-48,22,4390
1820,1.819000,46468,48082981,-63,21,4398
1821,1.820000,46469,48083981,-65,14,4412
1822,1.821000,46470,48084981,-31,7,4391
1823,1.822000,46471,48085981,-9,18,4384
1824,1.823000,46472,48086981,-15,34,4405
1825,1.824000,46473,48087981,-26,55,4407
1826,1.825000,46474,48088981,-31,44,4405
1827,1.825999,46475,48089980,-44,25,4381
1828,1.826999,46476,48090980,-38,40,4367
1829,1.827999,46477,48091980,-24,31,4390
1830,1.828999,46478,48092980,-25,32,4384
1831,1.830000,46479,48093981,-65,43,4385
1832,1.831000,46480,48094981,-81,38,4380
1833,1.832000,46481,48095981,-14,18,4364
1834,1.833000,46482,48096981,-2,1,4382
1835,1.834000,46483,48097981,-38,8,4389
1836,1.835000,46484,48098981,-36,20,4391
1837,1.836000,46485,48099981,-24,33,4400
1838,1.837000,46486,48100981,-44,46,4407
1839,1.838000,46487,48101981,-76,59,4403
1840,1.839000,46488,48102981,-54,53,4405
1841,1.840000,46489,48103981,-24,28,4388
1842,1.841000,46490,48104981,-54,21,4396
1843,1.842000,46491,48105981,-68,25,4386
1844,1.842999,46492,48106980,-52,40,4370
1845,1.844000,46493,48107981,-52,35,4407
1846,1.845000,46494,48108981,-55,15,4404
1847,1.846000,46495,48109981,-40,25,4420
1848,1.847000,46496,48110981,-22,36,4404
1849,1.848000,46497,48111981,-36,17,4369
1850,1.849000,46498,48112981,-52,2,4370
1851,1.850000,46499,48113981,-51,14,4376
1852,1.850999,46500,48114980,-61,27,4399
1853,1.852000,46501,48115981,-50,26,4398
1854,1.853000,46502,48116981,2,15,4397
1855,1.854000,46503,48117981,-15,18,4414
1856,1.855000,46504,48118981,-65,30,4394
1857,1.856000,46505,48119981,-45,12,4363
1858,1.857000,46506,48120981,-35,2,4376
1859,1.858000,46507,48121981,-51,28,4378
1860,1.858999,46508,48122980,-13,46,4368
1861,1.860000,46509,48123981,0,46,4370
1862,1.860999,46510,48124980,-48,32,4380
1863,1.862000,46511,48125981,-33,25,4378
1864,1.862999,46512,48126980,-12,28,4399
1865,1.864000,46513,48127981,-41,43,4407
1866,1.865000,46514,48128981,-62,48,4372
1867,1.866000,46515,48129981,-33,40,4383
1868,1.866999,46516,48130980,-21,33,4392
1869,1.867999,46517,48131980,-47,29,4365
1870,1.869000,46518,48132981,-53,36,4366
1871,1.870000,46519,48133981,-39,31,4382
1872,1.871000,46520,48134981,-41,31,4354
1873,1.872000,46521,48135981,-64,29,4341
1874,1.873000,46522,48136981,-37,29,4382
1875,1.874000,46523,48137981,-34,32,4391
1876,1.875000,46524,48138981,-56,16,4372
1877,1.876000,46525,48139981,-47,18,4394
1878,1.877000,46526,48140981,-52,24,4410
1879,1.878000,46527,48141981,-61,31,4401
1880,1.879000,46528,48142981,-41,34,4389
1881,1.880000,46529,48143981,-31,11,4391
1882,1.881000,46530,48144981,-76,1,4406
1883,1.882000,46531,48145981,-70,15,4379
1884,1.883000,46532,48146981,-22,18,4356
1885,1.884000,46533,48147981,-22,19,4374
1886,1.885000,46534,48148981,-35,30,4380
1887,1.886000,46535,48149981,-39,39,4378
1888,1.887000,46536,48150981,-45,32,4389
1889,1.887999,46537,48151980,-72,9,4397
1890,1.889000,46538,48152981,-50,13,4401
1891,1.890000,46539,48153981,-19,32,4422
1892,1.891000,46540,48154981,-37,44,4441
1893,1.891999,46541,48155980,-55,56,4418
1894,1.893000,46542,48156981,-27,45,4401
1895,1.894000,46543,48157981,-16,24,4402
1896,1.895000,46544,48158981,-36,22,4390
1897,1.896000,46545,48159981,-1,19,4391
1898,1.896999,46546,48160980,-9,31,4368
1899,1.898000,46547,48161981,-49,52,4353
1900,1.899000,46548,48162981,-40,48,4371
1901,1.899999,46549,48163980,-9,26,4378
1902,1.901000,46550,48164981,-21,14,4375
1903,1.901999,46551,48165980,-49,19,4385
1904,1.902999,46552,48166980,-30,24,4388
1905,1.904000,46553,48167981,-36,31,4388
1906,1.905000,46554,48168981,-64,35,4400
1907,1.905999,46555,48169980,-39,19,4374
1908,1.907000,46556,48170981,-3,8,4361
1909,1.907999,46557,48171980,-46,16,4367
1910,1.909000,46558,48172981,-75,27,4367
1911,1.910000,46559,48173981,-18,39,4395
1912,1.911000,46560,48174981,-38,50,4417
1913,1.912000,46561,48175981,-63,46,4414
1914,1.913000,46562,48176981,-17,21,4420
1915,1.914000,46563,48177981,-8,17,4397
1916,1.915000,46564,48178981,-56,30,4368
1917,1.916000,46565,48179981,-65,32,4370
1918,1.916999,46566,48180980,-32,37,4385
1919,1.917999,46567,48181980,-51,41,4394
1920,1.918999,46568,48182980,-34,40,4387
1921,1.919999,46569,48183980,-20,38,4384
1922,1.921000,46570,48184981,-49,47,4391
1923,1.922000,46571,48185981,-51,44,4389
1924,1.923000,46572,48186981,0,40,4365
1925,1.924000,46573,48187981,-9,43,4376
1926,1.925000,46574,48188981,-53,32,4369
1927,1.926000,46575,48189981,-12,21,4362
1928,1.927000,46576,48190981,-11,8,4390
1929,1.928000,46577,48191981,-48,17,4405
1930,1.929000,46578,48192981,-30,25,4422
1931,1.930000,46579,48193981,15,20,4402
1932,1.931000,46580,48194981,-8,27,4394
1933,1.932000,46581,48195981,-32,31,4392
1934,1.933000,46582,48196981,-23,29,4372
1935,1.933999,46583,48197980,-37,20,4372
1936,1.934999,46584,48198980,-54,26,4380
1937,1.936000,46585,48199981,-53,10,4386
1938,1.937000,46586,48200981,-39,-12,4397
1939,1.938000,46587,48201981,-68,-3,4394
1940,1.939000,46588,48202981,-74,16,4395
1941,1.940000,46589,48203981,-52,38,4407
1942,1.941000,46590,48204981,-44,33,4387
1943,1.942000,46591,48205981,-42,17,4396
1944,1.943000,46592,48206981,-24,4,4393
1945,1.943999,46593,48207980,-13,-3,4402
1946,1.945000,46594,48208981,-40,1,4424
1947,1.946000,46595,48209981,-30,20,4394
1948,1.947000,46596,48210981,-20,26,4379
1949,1.948000,46597,48211981,-22,24,4383
1950,1.948999,46598,48212980,-23,34,4373
1951,1.949999,46599,48213980,-19,39,4379
1952,1.951000,46600,48214981,-47,21,4400
1953,1.952000,46601,48215981,-57,23,4409
1954,1.953000,46602,48216981,-30,42,4407
1955,1.954000,46603,48217981,-40,17,4408
1956,1.955000,46604,48218981,-59,6,4376
1957,1.956000,46605,48219981,-50,18,4358
1958,1.957000,46606,48220981,-1,10,4388
1959,1.958000,46607,48221981,-11,-2,4361
1960,1.959000,46608,48222981,-12,0,4356
1961,1.960000,46609,48223981,12,11,4380
1962,1.961000,46610,48224981,4,30,4352
1963,1.962000,46611,48225981,-13,36,4359
1964,1.963000,46612,48226981,-14,30,4385
1965,1.964000,46613,48227981,-25,37,4394
1966,1.965000,46614,48228981,-48,48,4411
1967,1.966000,46615,48229981,-49,40,4408
1968,1.967000,46616,48230981,-54,38,4414
1969,1.968000,46617,48231981,-48,39,4418
1970,1.968999,46618,48232980,-60,20,4401
1971,1.970000,46619,48233981,-55,15,4388
1972,1.971000,46620,48234981,-28,35,4399
1973,1.972000,46621,48235981,-29,46,4409
1974,1.973000,46622,48236981,-38,44,4404
1975,1.974000,46623,48237981,-21,25,4397
1976,1.975000,46624,48238981,-21,21,4390
1977,1.976000,46625,48239981,-43,35,4383
1978,1.977000,46626,48240981,-17,27,4359
1979,1.978000,46627,48241981,-9,31,4373
1980,1.978999,46628,48242980,-39,24,4391
1981,1.980000,46629,48243981,-42,23,4371
1982,1.981000,46630,48244981,-19,36,4351
1983,1.982000,46631,48245981,-32,43,4364
1984,1.983000,46632,48246981,-56,38,4356
1985,1.984000,46633,48247981,-26,34,4357
1986,1.985000,46634,48248981,-18,53,4409
1987,1.986000,46635,48249981,-30,42,4409
1988,1.987000,46636,48250981,-9,16,4397
1989,1.987999,46637,48251980,1,4,4391
1990,1.989000,46638,48252981,-41,4,4387
1991,1.990000,46639,48253981,-55,12,4394
1992,1.991000,46640,48254981,-34,9,4387
1993,1.991999,46641,48255980,-34,7,4370
1994,1.992999,46642,48256980,-47,23,4372
1995,1.994000,46643,48257981,-49,46,4383
1996,1.995000,46644,48258981,-51,48,4392
1997,1.996000,46645,48259981,-52,35,4397
1998,1.996999,46646,48260980,-14,27,4394
1999,1.998000,46647,48261981,-27,34,4391
2000,1.999000,46648,48262981,-63,26,4395
2001,2.000000,46649,48263981,-41,10,4416
2002,2.001000,46650,48264981,-18,17,4419
2003,2.001999,46651,48265980,-45,32,4407
2004,2.003000,46652,48266981,-58,51,4410
2005,2.004000,46653,48267981,-18,53,4403
2006,2.005000,46654,48268981,-16,51,4393
2007,2.006000,46655,48269981,-40,54,4393
2008,2.007000,46656,48270981,-42,42,4386
2009,2.007999,46657,48271980,-34,30,4367
2010,2.009000,46658,48272981,-40,16,4356
2011,2.010000,46659,48273981,-44,21,4362
2012,2.011000,46660,48274981,-24,38,4379
2013,2.012000,46661,48275981,-38,28,4393
2014,2.012999,46662,48276980,-51,28,4399
2015,2.014000,46663,48277981,-34,25,4409
2016,2.015000,46664,48278981,-48,16,4401
2017,2.016000,46665,48279981,-68,30,4390
2018,2.017000,46666,48280981,-51,38,4389
2019,2.018000,46667,48281981,-42,51,4387
2020,2.019000,46668,48282981,-52,44,4360
2021,2.019999,46669,48283980,-44,30,4343
2022,2.020999,46670,48284980,-38,38,4345
2023,2.022000,46671,48285981,-40,47,4360
2024,2.022999,46672,48286980,-36,48,4374
2025,2.024000,46673,48287981,-40,32,4397
2026,2.025000,46674,48288981,-39,18,4402
2027,2.025999,46675,48289980,-18,22,4382
2028,2.027000,46676,48290981,-11,35,4407
2029,2.028000,46677,48291981,-24,30,4415
2030,2.029000,46678,48292981,-30,24,4390
2031,2.030000,46679,48293981,-35,30,4372
2032,2.030999,46680,48294980,-44,38,4391
2033,2.032000,46681,48295981,-55,42,4393
2034,2.032999,46682,48296980,-41,26,4389
2035,2.033999,46683,48297980,-29,28,4394
2036,2.035000,46684,48298981,-49,30,4365
2037,2.036000,46685,48299981,-54,21,4365
2038,2.037000,46686,48300981,-54,21,4383
2039,2.038000,46687,48301981,-45,25,4382
2040,2.039000,46688,48302981,-47,29,4405
2041,2.039999,46689,48303980,-62,28,4427
2042,2.041000,46690,48304981,-49,37,4402
2043,2.042000,46691,48305981,-30,12,4370
2044,2.043000,46692,48306981,-37,-21,4372
2045,2.043999,46693,48307980,-44,3,4414
2046,2.045000,46694,48308981,-35,25,4397
2047,2.046000,46695,48309981,-55,29,4369
2048,2.047000,46696,48310981,-57,24,4393
2049,2.047999,46697,48311980,-31,9,4394
2050,2.049000,46698,48312981,-35,22,4374
2051,2.049999,46699,48313980,-76,30,4388
2052,2.051000,46700,48314981,-75,26,4385
2053,2.052000,46701,48315981,-45,19,4380
2054,2.053000,46702,48316981,-28,10,4396
2055,2.054000,46703,48317981,-11,11,4377
2056,2.055000,46704,48318981,-34,29,4372
2057,2.055999,46705,48319980,-40,28,4366
2058,2.057000,46706,48320981,-52,1,4346
2059,2.058000,46707,48321981,-61,6,4364
2060,2.059000,46708,48322981,-44,19,4387
2061,2.060000,46709,48323981,-28,8,4387
2062,2.061000,46710,48324981,-19,13,4415
2063,2.062000,46711,48325981,-45,18,4420
2064,2.062999,46712,48326980,-55,20,4388
2065,2.064000,46713,48327981,-39,35,4382
2066,2.065000,46714,48328981,-41,42,4382
2067,2.066000,46715,48329981,-44,31,4386
2068,2.067000,46716,48330981,-47,18,4382
2069,2.068000,46717,48331981,-59,15,4385
2070,2.069000,46718,48332981,-59,20,4390
2071,2.070000,46719,48333981,-53,26,4393
2072,2.071000,46720,48334981,-60,19,4403
2073,2.072000,46721,48335981,-57,41,4396
2074,2.072999,46722,48336980,-45,43,4381
2075,2.074000,46723,48337981,-34,26,4360
2076,2.075000,46724,48338981,-40,30,4383
2077,2.075999,46725,48339980,-42,29,4402
2078,2.076999,46726,48340980,-43,36,4398
2079,2.078000,46727,48341981,-41,29,4415
2080,2.079000,46728,48342981,-33,19,4416
2081,2.080000,46729,48343981,-40,18,4406
2082,2.081000,46730,48344981,-26,26,4398
2083,2.082000,46731,48345981,-32,31,4407
2084,2.083000,46732,48346981,-35,15,4409
2085,2.084000,46733,48347981,-27,3,4391
2086,2.085000,46734,48348981,-41,7,4406
2087,2.086000,46735,48349981,-36,22,4409
2088,2.087000,46736,48350981,-31,30,4397
2089,2.088000,46737,48351981,-53,20,4384
2090,2.089000,46738,48352981,-53,23,4390
2091,2.090000,46739,48353981,-34,31,4398
2092,2.090999,46740,48354980,-31,37,4391
2093,2.092000,46741,48355981,-54,22,4386
2094,2.093000,46742,48356981,-47,14,4397
2095,2.093999,46743,48357980,-31,17,4412
2096,2.095000,46744,48358981,-48,6,4385
2097,2.096000,46745,48359981,-56,7,4385
2098,2.097000,46746,48360981,-58,4,4374
2099,2.097999,46747,48361980,-50,8,4372
2100,2.099000,46748,48362981,-45,10,4413
2101,2.100000,46749,48363981,-76,4,4401
2102,2.101000,46750,48364981,-64,16,4389
2103,2.102000,46751,48365981,-33,22,4403
2104,2.102999,46752,48366980,-47,25,4408
2105,2.104000,46753,48367981,-62,39,4418
2106,2.105000,46754,48368981,-71,47,4393
2107,2.106000,46755,48369981,-43,39,4367
2108,2.106999,46756,48370980,-41,24,4375
2109,2.108000,46757,48371981,-42,39,4395
2110,2.109000,46758,48372981,-37,41,4392
2111,2.110000,46759,48373981,-64,22,4373
2112,2.111000,46760,48374981,-49,13,4382
2113,2.111999,46761,48375980,-16,28,4388
2114,2.113000,46762,48376981,-27,57,4396
2115,2.114000,46763,48377981,-37,46,4412
2116,2.115000,46764,48378981,-39,14,4399
2117,2.116000,46765,48379981,-48,10,4377
2118,2.117000,46766,48380981,-51,4,4391
2119,2.118000,46767,48381981,-60,2,4399
2120,2.119000,46768,48382981,-50,13,4380
2121,2.120000,46769,48383981,-48,17,4373
2122,2.121000,46770,48384981,-47,24,4374
2123,2.122000,46771,48385981,-49,35,4364
2124,2.123000,46772,48386981,-57,42,4377
2125,2.124000,46773,48387981,-45,21,4395
2126,2.125000,46774,48388981,-47,15,4387
2127,2.126000,46775,48389981,-38,19,4398
2128,2.126999,46776,48390980,-35,24,4396
2129,2.128000,46777,48391981,-53,41,4376
2130,2.129000,46778,48392981,-38,30,4378
2131,2.130000,46779,48393981,-37,14,4399
2132,2.130999,46780,48394980,-56,24,4384
2133,2.132000,46781,48395981,-52,41,4372
2134,2.133000,46782,48396981,-62,16,4391
2135,2.134000,46783,48397981,-65,10,4368
2136,2.134999,46784,48398980,-34,26,4387
2137,2.136000,46785,48399981,-40,23,4410
2138,2.136999,46786,48400980,-39,23,4393
2139,2.138000,46787,48401981,-26,7,4396
2140,2.139000,46788,48402981,-37,4,4403
2141,2.140000,46789,48403981,-53,43,4403
2142,2.141000,46790,48404981,-53,63,4412
2143,2.142000,46791,48405981,-20,33,4406
2144,2.143000,46792,48406981,-23,6,4394
2145,2.143999,46793,48407980,-33,5,4393
2146,2.145000,46794,48408981,-33,33,4368
2147,2.145999,46795,48409980,-52,51,4360
2148,2.147000,46796,48410981,-47,41,4359
2149,2.147999,46797,48411980,-43,30,4371
2150,2.149000,46798,48412981,-30,21,4383
2151,2.150000,46799,48413981,-24,18,4385
2152,2.151000,46800,48414981,-45,26,4391
2153,2.152000,46801,48415981,-39,50,4408
2154,2.153000,46802,48416981,-23,45,4417
2155,2.154000,46803,48417981,-29,30,4390
2156,2.155000,46804,48418981,-22,27,4386
2157,2.156000,46805,48419981,7,20,4379
2158,2.157000,46806,48420981,2,21,4377
2159,2.157999,46807,48421980,-40,10,4372
2160,2.159000,46808,48422981,-64,15,4367
2161,2.159999,46809,48423980,-66,25,4398
2162,2.161000,46810,48424981,-53,24,4408
2163,2.162000,46811,48425981,-37,29,4375
2164,2.163000,46812,48426981,-70,29,4358
2165,2.164000,46813,48427981,-82,25,4368
2166,2.165000,46814,48428981,-53,8,4407
2167,2.166000,46815,48429981,-31,12,4411
2168,2.167000,46816,48430981,-8,41,4406
2169,2.168000,46817,48431981,-21,31,4418
2170,2.169000,46818,48432981,-27,13,4377
2171,2.170000,46819,48433981,-17,29,4365
2172,2.171000,46820,48434981,-18,28,4385
2173,2.172000,46821,48435981,-18,31,4371
2174,2.173000,46822,48436981,-47,49,4356
2175,2.173999,46823,48437980,-58,35,4373
2176,2.175000,46824,48438981,-63,37,4377
2177,2.176000,46825,48439981,-65,37,4365
2178,2.177000,46826,48440981,-56,29,4383
2179,2.178000,46827,48441981,-57,32,4398
2180,2.179000,46828,48442981,-58,15,4403
2181,2.180000,46829,48443981,-58,21,4397
2182,2.181000,46830,48444981,-29,26,4384
2183,2.182000,46831,48445981,0,23,4400
2184,2.183000,46832,48446981,-6,21,4389
2185,2.184000,46833,48447981,-12,19,4396
2186,2.185000,46834,48448981,-21,27,4424
2187,2.186000,46835,48449981,-44,21,4417
2188,2.187000,46836,48450981,-49,22,4382
2189,2.188000,46837,48451981,-54,25,4363
2190,2.189000,46838,48452981,-100,39,4387
2191,2.190000,46839,48453981,-108,38,4391
2192,2.191000,46840,48454981,-81,28,4391
2193,2.192000,46841,48455981,-78,43,4393
2194,2.193000,46842,48456981,-70,50,4408
2195,2.194000,46843,48457981,-66,44,4416
2196,2.194999,46844,48458980,-61,36,4399
2197,2.196000,46845,48459981,-33,35,4381
2198,2.197000,46846,48460981,-7,34,4349
2199,2.197999,46847,48461980,-29,15,4341
2200,2.199000,46848,48462981,-34,9,4346
2201,2.200000,46849,48463981,-31,27,4355
2202,2.201000,46850,48464981,-42,23,4367
2203,2.202000,46851,48465981,-34,12,4380
2204,2.203000,46852,48466981,-56,17,4391
2205,2.204000,46853,48467981,-68,23,4392
2206,2.205000,46854,48468981,-70,15,4385
2207,2.206000,46855,48469981,-74,10,4387
2208,2.207000,46856,48470981,-52,28,4386
2209,2.207999,46857,48471980,-29,42,4391
2210,2.209000,46858,48472981,-8,26,4405
2211,2.210000,46859,48473981,-6,21,4385
2212,2.210999,46860,48474980,-34,21,4386
2213,2.212000,46861,48475981,-41,19,4403
2214,2.213000,46862,48476981,-42,37,4384
2215,2.214000,46863,48477981,-40,48,4363
2216,2.215000,46864,48478981,-15,62,4375
2217,2.216000,46865,48479981,-24,55,4390
2218,2.217000,46866,48480981,-36,25,4375
2219,2.218000,46867,48481981,-39,16,4363
2220,2.219000,46868,48482981,-45,15,4366
2221,2.220000,46869,48483981,-38,26,4361
2222,2.221000,46870,48484981,-44,34,4382
2223,2.222000,46871,48485981,-48,43,4421
2224,2.223000,46872,48486981,-32,38,4410
2225,2.224000,46873,48487981,-37,26,4401
2226,2.225000,46874,48488981,-46,31,4400
2227,2.226000,46875,48489981,-41,33,4372
2228,2.226999,46876,48490980,-33,36,4377
2229,2.228000,46877,48491981,-32,29,4391
2230,2.229000,46878,48492981,-42,8,4389
2231,2.230000,46879,48493981,-36,-11,4385
2232,2.231000,46880,48494981,-22,6,4388
2233,2.232000,46881,48495981,-17,20,4377
2234,2.233000,46882,48496981,-26,10,4372
2235,2.234000,46883,48497981,-33,14,4408
2236,2.235000,46884,48498981,-27,27,4439
2237,2.236000,46885,48499981,-29,28,4420
2238,2.237000,46886,48500981,-35,20,4398
2239,2.238000,46887,48501981,-39,10,4418
2240,2.239000,46888,48502981,-49,14,4408
2241,2.240000,46889,48503981,-44,20,4381
2242,2.241000,46890,48504981,-36,28,4408
2243,2.242000,46891,48505981,-45,31,4427
2244,2.243000,46892,48506981,-29,12,4398
2245,2.244000,46893,48507981,-29,13,4361
2246,2.245000,46894,48508981,-39,22,4362
2247,2.246000,46895,48509981,-26,17,4379
2248,2.247000,46896,48510981,-14,12,4380
2249,2.248000,46897,48511981,-32,13,4380
2250,2.249000,46898,48512981,-57,15,4377
2251,2.250000,46899,48513981,-60,16,4394
2252,2.251000,46900,48514981,-55,24,4400
2253,2.252000,46901,48515981,-37,33,4382
2254,2.252999,46902,48516980,-28,42,4411
2255,2.254000,46903,48517981,-18,46,4432
2256,2.255000,46904,48518981,-31,34,4404
2257,2.256000,46905,48519981,-53,11,4400
2258,2.257000,46906,48520981,-43,8,4414
2259,2.257999,46907,48521980,-48,20,4395
2260,2.259000,46908,48522981,-54,23,4367
2261,2.260000,46909,48523981,-47,8,4368
2262,2.261000,46910,48524981,-44,-3,4380
2263,2.262000,46911,48525981,-18,0,4394
2264,2.263000,46912,48526981,-3,9,4406
2265,2.263999,46913,48527980,-4,6,4411
2266,2.265000,46914,48528981,-10,24,4413
2267,2.266000,46915,48529981,-22,39,4416
2268,2.267000,46916,48530981,-25,19,4413
2269,2.268000,46917,48531981,-53,19,4391
2270,2.269000,46918,48532981,-47,25,4380
2271,2.270000,46919,48533981,-47,29,4384
2272,2.270999,46920,48534980,-69,37,4369
2273,2.272000,46921,48535981,-60,30,4376
2274,2.273000,46922,48536981,-55,18,4379
2275,2.274000,46923,48537981,-32,19,4372
2276,2.274999,46924,48538980,-25,9,4369
2277,2.275999,46925,48539980,-42,4,4358
2278,2.277000,46926,48540981,-37,-1,4353
2279,2.278000,46927,48541981,-27,2,4364
2280,2.279000,46928,48542981,-14,27,4385
2281,2.280000,46929,48543981,-26,31,4382
2282,2.280999,46930,48544980,-45,23,4378
2283,2.282000,46931,48545981,-43,34,4373
2284,2.283000,46932,48546981,-51,43,4358
2285,2.284000,46933,48547981,-62,30,4377
2286,2.285000,46934,48548981,-65,24,4379
2287,2.286000,46935,48549981,-51,32,4368
2288,2.287000,46936,48550981,-57,35,4391
2289,2.288000,46937,48551981,-56,37,4424
2290,2.289000,46938,48552981,-37,14,4431
2291,2.290000,46939,48553981,-33,1,4419
2292,2.291000,46940,48554981,-41,26,4427
2293,2.292000,46941,48555981,-40,37,4400
2294,2.292999,46942,48556980,-36,32,4381
2295,2.294000,46943,48557981,-37,46,4389
2296,2.295000,46944,48558981,-47,54,4370
2297,2.296000,46945,48559981,-48,55,4381
2298,2.296999,46946,48560980,-42,60,4395
2299,2.297999,46947,48561980,-50,35,4365
2300,2.299000,46948,48562981,-52,21,4349
2301,2.300000,46949,48563981,-55,25,4379
2302,2.301000,46950,48564981,-40,36,4431
2303,2.301999,46951,48565980,-34,37,4432
2304,2.303000,46952,48566981,-43,15,4418
2305,2.304000,46953,48567981,-21,12,4411
2306,2.305000,46954,48568981,0,21,4419
2307,2.306000,46955,48569981,-21,23,4409
2308,2.307000,46956,48570981,-32,12,4376
2309,2.308000,46957,48571981,-4,22,4396
2310,2.309000,46958,48572981,-2,38,4414
2311,2.310000,46959,48573981,-16,17,4403
2312,2.311000,46960,48574981,-19,11,4380
2313,2.311999,46961,48575980,-33,22,4370
2314,2.313000,46962,48576981,-33,27,4374
2315,2.314000,46963,48577981,-14,29,4399
2316,2.314999,46964,48578980,-18,31,4414
2317,2.316000,46965,48579981,-50,35,4411
2318,2.317000,46966,48580981,-65,19,4410
2319,2.318000,46967,48581981,-46,8,4394
2320,2.319000,46968,48582981,-23,24,4413
2321,2.320000,46969,48583981,-21,22,4420
2322,2.321000,46970,48584981,-28,13,4418
2323,2.322000,46971,48585981,-43,26,4420
2324,2.323000,46972,48586981,-47,17,4376
2325,2.324000,46973,48587981,-41,11,4391
2326,2.325000,46974,48588981,-30,25,4417
2327,2.326000,46975,48589981,-22,27,4391
2328,2.326999,46976,48590980,-35,23,4384
2329,2.328000,46977,48591981,-40,18,4400
2330,2.329000,46978,48592981,-53,12,4390
2331,2.330000,46979,48593981,-61,13,4371
2332,2.331000,46980,48594981,-59,30,4390
2333,2.332000,46981,48595981,-57,35,4407
2334,2.333000,46982,48596981,-61,24,4404
2335,2.334000,46983,48597981,-47,22,4389
2336,2.334999,46984,48598980,-26,26,4391
2337,2.336000,46985,48599981,-32,40,4394
2338,2.337000,46986,48600981,-49,37,4385
2339,2.338000,46987,48601981,-41,26,4372
2340,2.339000,46988,48602981,-21,38,4396
2341,2.339999,46989,48603980,-13,43,4411
2342,2.340999,46990,48604980,-30,33,4372
2343,2.342000,46991,48605981,-50,29,4354
2344,2.343000,46992,48606981,-48,17,4355
2345,2.344000,46993,48607981,-39,21,4365
2346,2.344999,46994,48608980,-18,24,4382
2347,2.346000,46995,48609981,-16,21,4410
2348,2.347000,46996,48610981,-25,26,4409
2349,2.348000,46997,48611981,-30,32,4393
2350,2.349000,46998,48612981,-35,37,4380
2351,2.350000,46999,48613981,-48,22,4360
2352,2.351000,47000,48614981,-53,16,4410
2353,2.352000,47001,48615981,-50,14,4425
2354,2.353000,47002,48616981,-43,26,4387
2355,2.353999,47003,48617980,-32,22,4371
2356,2.355000,47004,48618981,-15,10,4391
2357,2.355999,47005,48619980,-15,19,4418
2358,2.357000,47006,48620981,-41,31,4403
2359,2.358000,47007,48621981,-51,24,4422
2360,2.359000,47008,48622981,-49,37,4385
2361,2.360000,47009,48623981,-43,40,4362
2362,2.361000,47010,48624981,-33,32,4416
2363,2.362000,47011,48625981,-32,39,4412
2364,2.363000,47012,48626981,-38,36,4374
2365,2.364000,47013,48627981,-48,33,4361
2366,2.365000,47014,48628981,-44,21,4371
2367,2.366000,47015,48629981,-47,32,4389
2368,2.367000,47016,48630981,-54,34,4409
2369,2.368000,47017,48631981,-31,26,4390
2370,2.369000,47018,48632981,-21,29,4363
2371,2.370000,47019,48633981,-30,19,4365
2372,2.371000,47020,48634981,-26,18,4371
2373,2.372000,47021,48635981,-6,32,4386
2374,2.373000,47022,48636981,-18,32,4400
2375,2.374000,47023,48637981,-30,25,4384
2376,2.375000,47024,48638981,-28,28,4378
2377,2.376000,47025,48639981,-29,32,4390
2378,2.377000,47026,48640981,-39,22,4404
2379,2.378000,47027,48641981,-62,-3,4402
2380,2.378999,47028,48642980,-52,-6,4376
2381,2.380000,47029,48643981,-24,29,4398
2382,2.381000,47030,48644981,-16,32,4414
2383,2.382000,47031,48645981,-9,12,4415
2384,2.383000,47032,48646981,-4,13,4409
2385,2.384000,47033,48647981,-9,3,4383
2386,2.385000,47034,48648981,-14,11,4360
2387,2.385999,47035,48649980,-20,22,4375
2388,2.386999,47036,48650980,-49,20,4401
2389,2.388000,47037,48651981,-50,22,4375
2390,2.389000,47038,48652981,-13,23,4365
2391,2.390000,47039,48653981,-8,30,4411
2392,2.391000,47040,48654981,-17,26,4432
2393,2.392000,47041,48655981,-27,17,4400
2394,2.393000,47042,48656981,-20,9,4368
2395,2.394000,47043,48657981,-18,13,4380
2396,2.395000,47044,48658981,-39,16,4388
2397,2.396000,47045,48659981,-46,16,4366
2398,2.397000,47046,48660981,-49,20,4376
2399,2.398000,47047,48661981,-67,18,4388
2400,2.399000,47048,48662981,-58,33,4377
2401,2.399999,47049,48663980,-49,45,4373
2402,2.400999,47050,48664980,-70,23,4396
2403,2.402000,47051,48665981,-56,6,4388
2404,2.403000,47052,48666981,-40,34,4366
2405,2.404000,47053,48667981,-46,55,4367
2406,2.405000,47054,48668981,-41,36,4386
2407,2.406000,47055,48669981,-27,16,4417
2408,2.406999,47056,48670980,-22,17,4436
2409,2.408000,47057,48671981,-17,36,4409
2410,2.409000,47058,48672981,-6,31,4385
2411,2.409999,47059,48673980,-5,24,4398
2412,2.410999,47060,48674980,-12,36,4433
2413,2.412000,47061,48675981,-30,50,4447
2414,2.413000,47062,48676981,-43,36,4397
2415,2.414000,47063,48677981,-47,28,4372
2416,2.414999,47064,48678980,-48,39,4369
2417,2.416000,47065,48679981,-60,27,4364
2418,2.417000,47066,48680981,-52,31,4367
2419,2.417999,47067,48681980,-32,19,4390
2420,2.419000,47068,48682981,-41,22,4413
2421,2.419999,47069,48683980,-35,29,4409
2422,2.421000,47070,48684981,-21,26,4408
2423,2.422000,47071,48685981,-19,16,4386
2424,2.423000,47072,48686981,-38,-8,4360
2425,2.424000,47073,48687981,-51,12,4371
2426,2.425000,47074,48688981,-37,23,4356
2427,2.426000,47075,48689981,-44,20,4365
2428,2.427000,47076,48690981,-43,0,4398
2429,2.428000,47077,48691981,-34,-6,4377
2430,2.429000,47078,48692981,-37,31,4393
2431,2.430000,47079,48693981,-42,29,4412
2432,2.431000,47080,48694981,-47,0,4392
2433,2.432000,47081,48695981,-43,-3,4391
2434,2.433000,47082,48696981,-27,6,4396
2435,2.434000,47083,48697981,-25,25,4402
2436,2.435000,47084,48698981,-36,27,4406
2437,2.436000,47085,48699981,-42,6,4394
2438,2.437000,47086,48700981,-27,4,4389
2439,2.438000,47087,48701981,-32,33,4386
2440,2.439000,47088,48702981,-57,59,4392
2441,2.440000,47089,48703981,-41,58,4385
2442,2.441000,47090,48704981,-27,45,4384
2443,2.442000,47091,48705981,-32,30,4376
2444,2.443000,47092,48706981,-30,40,4368
2445,2.444000,47093,48707981,-29,49,4390
2446,2.445000,47094,48708981,-33,34,4391
2447,2.446000,47095,48709981,-57,37,4412
2448,2.446999,47096,48710980,-70,35,4416
2449,2.448000,47097,48711981,-40,22,4388
2450,2.449000,47098,48712981,-34,37,4370
2451,2.449999,47099,48713980,-29,41,4373
2452,2.451000,47100,48714981,-36,14,4397
2453,2.452000,47101,48715981,-42,1,4380
2454,2.453000,47102,48716981,-42,9,4349
2455,2.453999,47103,48717980,-40,10,4382
2456,2.455000,47104,48718981,-22,7,4415
2457,2.455999,47105,48719980,-34,14,4380
2458,2.456999,47106,48720980,-42,5,4362
2459,2.458000,47107,48721981,-41,16,4403
2460,2.459000,47108,48722981,-46,23,4398
2461,2.460000,47109,48723981,-47,-2,4392
2462,2.461000,47110,48724981,-42,12,4400
2463,2.462000,47111,48725981,-30,35,4384
2464,2.462999,47112,48726980,-20,39,4393
2465,2.464000,47113,48727981,-29,28,4405
2466,2.465000,47114,48728981,-16,0,4381
2467,2.466000,47115,48729981,-24,-7,4354
2468,2.467000,47116,48730981,-63,13,4363
2469,2.468000,47117,48731981,-64,32,4379
2470,2.469000,47118,48732981,-42,25,4390
2471,2.470000,47119,48733981,-28,18,4370
2472,2.471000,47120,48734981,-47,22,4367
2473,2.471999,47121,48735980,-51,25,4398
2474,2.473000,47122,48736981,-32,23,4413
2475,2.473999,47123,48737980,-40,22,4387
2476,2.474999,47124,48738980,-47,27,4373
2477,2.476000,47125,48739981,-49,28,4395
2478,2.477000,47126,48740981,-45,23,4401
2479,2.478000,47127,48741981,-38,27,4399
2480,2.479000,47128,48742981,-45,25,4392
2481,2.480000,47129,48743981,-55,24,4411
2482,2.481000,47130,48744981,-53,32,4390
2483,2.482000,47131,48745981,-61,24,4371
2484,2.483000,47132,48746981,-60,7,4424
2485,2.483999,47133,48747980,-31,21,4424
2486,2.485000,47134,48748981,-28,44,4414
2487,2.485999,47135,48749980,-38,37,4403
2488,2.486999,47136,48750980,-41,26,4372
2489,2.488000,47137,48751981,-40,35,4354
2490,2.488999,47138,48752980,-38,29,4368
2491,2.490000,47139,48753981,-40,11,4392
2492,2.491000,47140,48754981,-36,42,4368
2493,2.492000,47141,48755981,-44,43,4380
2494,2.493000,47142,48756981,-52,28,4395
2495,2.494000,47143,48757981,-24,15,4385
2496,2.495000,47144,48758981,-20,2,4382
2497,2.496000,47145,48759981,-31,22,4366
2498,2.497000,47146,48760981,-12,35,4352
2499,2.498000,47147,48761981,-18,18,4364
2500,2.499000,47148,48762981,-56,11,4389
2501,2.500000,47149,48763981,-57,37,4394
2502,2.500999,47150,48764980,-51,35,4372
2503,2.501999,47151,48765980,-60,24,4340
2504,2.503000,47152,48766981,-65,20,4353
2505,2.504000,47153,48767981,-56,28,4388
2506,2.505000,47154,48768981,-44,32,4379
2507,2.506000,47155,48769981,-26,10,4381
2508,2.507000,47156,48770981,-23,6,4396
2509,2.508000,47157,48771981,-42,18,4392
2510,2.508999,47158,48772980,-55,24,4425
2511,2.510000,47159,48773981,-47,21,4402
2512,2.511000,47160,48774981,-22,15,4372
2513,2.512000,47161,48775981,-36,18,4398
2514,2.513000,47162,48776981,-48,18,4411
2515,2.514000,47163,48777981,-18,15,4422
2516,2.515000,47164,48778981,-11,23,4410
2517,2.516000,47165,48779981,-25,17,4406
2518,2.517000,47166,48780981,-35,13,4401
2519,2.518000,47167,48781981,-35,11,4405
2520,2.519000,47168,48782981,-33,11,4410
2521,2.520000,47169,48783981,-46,22,4392
2522,2.521000,47170,48784981,-35,35,4388
2523,2.522000,47171,48785981,-35,42,4387
2524,2.523000,47172,48786981,-36,37,4391
2525,2.524000,47173,48787981,-33,35,4391
2526,2.525000,47174,48788981,-42,33,4388
2527,2.526000,47175,48789981,-33,33,4407
2528,2.527000,47176,48790981,-24,40,4400
2529,2.528000,47177,48791981,-31,31,4382
2530,2.529000,47178,48792981,-25,38,4375
2531,2.529999,47179,48793980,-38,43,4389
2532,2.531000,47180,48794981,-52,29,4430
2533,2.531999,47181,48795980,-38,30,4421
2534,2.533000,47182,48796981,-44,23,4384
2535,2.534000,47183,48797981,-61,8,4376
2536,2.535000,47184,48798981,-46,8,4393
2537,2.536000,47185,48799981,-32,11,4416
2538,2.536999,47186,48800980,-42,11,4419
2539,2.538000,47187,48801981,-55,10,4404
2540,2.539000,47188,48802981,-44,5,4384
2541,2.540000,47189,48803981,-28,-1,4370
2542,2.541000,47190,48804981,-40,1,4383
2543,2.542000,47191,48805981,-41,8,4391
2544,2.542999,47192,48806980,-27,15,4382
2545,2.543999,47193,48807980,-31,29,4391
2546,2.545000,47194,48808981,-50,13,4368
2547,2.546000,47195,48809981,-40,10,4339
2548,2.547000,47196,48810981,-29,29,4372
2549,2.548000,47197,48811981,-46,19,4410
2550,2.549000,47198,48812981,-43,-1,4398
2551,2.550000,47199,48813981,-36,10,4382
2552,2.551000,47200,48814981,-46,29,4402
2553,2.552000,47201,48815981,-36,35,4387
2554,2.553000,47202,48816981,-24,33,4367
2555,2.554000,47203,48817981,-22,23,4367
2556,2.555000,47204,48818981,-38,21,4353
2557,2.556000,47205,48819981,-42,19,4367
2558,2.557000,47206,48820981,-14,11,4374
2559,2.558000,47207,48821981,-22,2,4385
2560,2.559000,47208,48822981,-54,12,4409
2561,2.560000,47209,48823981,-68,34,4412
2562,2.561000,47210,48824981,-64,34,4425
2563,2.562000,47211,48825981,-53,17,4414
2564,2.563000,47212,48826981,-52,32,4381
2565,2.564000,47213,48827981,-59,53,4353
2566,2.565000,47214,48828981,-68,55,4366
2567,2.566000,47215,48829981,-63,50,4374
2568,2.567000,47216,48830981,-38,42,4366
2569,2.568000,47217,48831981,-16,41,4401
2570,2.569000,47218,48832981,-30,25,4413
2571,2.570000,47219,48833981,-68,27,4388
2572,2.571000,47220,48834981,-43,37,4379
2573,2.572000,47221,48835981,-27,29,4398
2574,2.573000,47222,48836981,-45,19,4393
2575,2.574000,47223,48837981,-27,27,4384
2576,2.575000,47224,48838981,-13,44,4410
2577,2.576000,47225,48839981,-20,38,4422
2578,2.577000,47226,48840981,-24,21,4404
2579,2.577999,47227,48841980,-29,20,4377
2580,2.579000,47228,48842981,-41,30,4360
2581,2.580000,47229,48843981,-40,13,4370
2582,2.581000,47230,48844981,-46,0,4390
2583,2.582000,47231,48845981,-20,8,4394
2584,2.583000,47232,48846981,-19,7,4388
2585,2.584000,47233,48847981,-38,-3,4383
2586,2.585000,47234,48848981,-42,7,4403
2587,2.585999,47235,48849980,-34,26,4419
2588,2.587000,47236,48850981,-31,24,4417
2589,2.588000,47237,48851981,-38,31,4396
2590,2.589000,47238,48852981,-40,28,4372
2591,2.590000,47239,48853981,-47,28,4378
2592,2.591000,47240,48854981,-32,33,4377
2593,2.591999,47241,48855980,-42,25,4389
2594,2.593000,47242,48856981,-44,31,4399
2595,2.594000,47243,48857981,-22,22,4396
2596,2.595000,47244,48858981,-39,12,4376
2597,2.596000,47245,48859981,-42,20,4364
2598,2.597000,47246,48860981,-39,20,4387
2599,2.597999,47247,48861980,-42,18,4398
2600,2.598999,47248,48862980,-26,19,4393
2601,2.600000,47249,48863981,-34,25,4385
2602,2.601000,47250,48864981,-40,21,4395
2603,2.601999,47251,48865980,-26,23,4398
2604,2.603000,47252,48866981,-35,33,4401
2605,2.604000,47253,48867981,-54,37,4402
2606,2.604999,47254,48868980,-44,41,4367
2607,2.606000,47255,48869981,-43,31,4355
2608,2.606999,47256,48870980,-45,28,4362
2609,2.608000,47257,48871981,-30,29,4386
2610,2.609000,47258,48872981,-26,18,4415
2611,2.610000,47259,48873981,-35,5,4398
2612,2.611000,47260,48874981,-33,9,4381
2613,2.612000,47261,48875981,-29,9,4365
2614,2.613000,47262,48876981,-17,22,4354
2615,2.614000,47263,48877981,-29,26,4380
2616,2.615000,47264,48878981,-33,17,4380
2617,2.616000,47265,48879981,-35,19,4364
2618,2.617000,47266,48880981,-55,9,4373
2619,2.618000,47267,48881981,-50,11,4380
2620,2.619000,47268,48882981,-43,13,4381
2621,2.619999,47269,48883980,-48,13,4387
2622,2.621000,47270,48884981,-41,26,4402
2623,2.622000,47271,48885981,-37,30,4396
2624,2.622999,47272,48886980,-41,25,4380
2625,2.624000,47273,48887981,-22,22,4380
2626,2.624999,47274,48888980,-28,34,4401
2627,2.626000,47275,48889981,-65,47,4384
2628,2.626999,47276,48890980,-61,38,4360
2629,2.627999,47277,48891980,-18,32,4394
2630,2.628999,47278,48892980,-12,32,4385
2631,2.630000,47279,48893981,-29,30,4358
2632,2.631000,47280,48894981,-36,28,4359
2633,2.632000,47281,48895981,-36,26,4357
2634,2.633000,47282,48896981,-24,18,4390
2635,2.634000,47283,48897981,-27,28,4410
2636,2.635000,47284,48898981,-35,40,4384
2637,2.635999,47285,48899980,-31,26,4387
2638,2.637000,47286,48900981,-44,22,4389
2639,2.638000,47287,48901981,-42,14,4381
2640,2.639000,47288,48902981,-27,22,4404
2641,2.640000,47289,48903981,-27,41,4403
2642,2.641000,47290,48904981,-18,30,4405
2643,2.642000,47291,48905981,-28,20,4404
2644,2.643000,47292,48906981,-46,9,4378
2645,2.644000,47293,48907981,-34,20,4376
2646,2.645000,47294,48908981,-37,32,4384
2647,2.645999,47295,48909980,-46,38,4384
2648,2.647000,47296,48910981,-45,48,4361
2649,2.648000,47297,48911981,-45,37,4345
2650,2.648999,47298,48912980,-39,26,4382
2651,2.649999,47299,48913980,-36,9,4394
2652,2.651000,47300,48914981,-32,9,4376
2653,2.652000,47301,48915981,-37,26,4373
2654,2.653000,47302,48916981,-31,21,4390
2655,2.654000,47303,48917981,-35,18,4391
2656,2.655000,47304,48918981,-47,8,4376
2657,2.656000,47305,48919981,-45,-2,4363
2658,2.657000,47306,48920981,-50,19,4386
2659,2.658000,47307,48921981,-37,27,4400
2660,2.659000,47308,48922981,-37,11,4407
2661,2.660000,47309,48923981,-40,7,4390
2662,2.660999,47310,48924980,-38,12,4362
2663,2.662000,47311,48925981,-44,16,4380
2664,2.663000,47312,48926981,-47,19,4387
2665,2.664000,47313,48927981,-27,18,4385
2666,2.665000,47314,48928981,-9,37,4365
2667,2.666000,47315,48929981,-28,43,4382
2668,2.666999,47316,48930980,-45,39,4382
2669,2.668000,47317,48931981,-45,45,4388
2670,2.669000,47318,48932981,-37,28,4389
2671,2.670000,47319,48933981,-39,27,4374
2672,2.671000,47320,48934981,-51,44,4393
2673,2.672000,47321,48935981,-43,51,4412
2674,2.673000,47322,48936981,-47,40,4387
2675,2.674000,47323,48937981,-61,25,4369
2676,2.675000,47324,48938981,-50,37,4372
2677,2.676000,47325,48939981,-53,32,4367
2678,2.677000,47326,48940981,-39,11,4376
2679,2.678000,47327,48941981,-26,21,4388
2680,2.679000,47328,48942981,-41,42,4387
2681,2.680000,47329,48943981,-41,42,4374
2682,2.680999,47330,48944980,-34,30,4382
2683,2.682000,47331,48945981,-31,24,4394
2684,2.683000,47332,48946981,-33,19,4397
2685,2.684000,47333,48947981,-43,15,4402
2686,2.685000,47334,48948981,-45,28,4376
2687,2.686000,47335,48949981,-27,46,4373
2688,2.687000,47336,48950981,-22,49,4397
2689,2.688000,47337,48951981,-13,47,4389
2690,2.689000,47338,48952981,-4,39,4400
2691,2.690000,47339,48953981,-13,27,4403
2692,2.691000,47340,48954981,-17,21,4371
2693,2.692000,47341,48955981,-29,10,4399
2694,2.693000,47342,48956981,-41,0,4449
2695,2.694000,47343,48957981,-51,12,4418
2696,2.695000,47344,48958981,-62,28,4408
2697,2.696000,47345,48959981,-64,17,4441
2698,2.697000,47346,48960981,-63,5,4423
2699,2.697999,47347,48961980,-60,33,4388
2700,2.698999,47348,48962980,-44,48,4387
2701,2.700000,47349,48963981,-19,18,4385
2702,2.700999,47350,48964980,-15,21,4380
2703,2.702000,47351,48965981,-25,40,4367
2704,2.703000,47352,48966981,-20,32,4356
2705,2.704000,47353,48967981,-28,40,4353
2706,2.704999,47354,48968980,-48,56,4337
2707,2.706000,47355,48969981,-43,61,4346
2708,2.707000,47356,48970981,-52,41,4352
2709,2.707999,47357,48971980,-80,12,4355
2710,2.709000,47358,48972981,-63,27,4381
2711,2.710000,47359,48973981,-44,42,4390
2712,2.711000,47360,48974981,-42,36,4378
2713,2.711999,47361,48975980,-42,34,4379
2714,2.713000,47362,48976981,-45,26,4381
2715,2.714000,47363,48977981,-30,32,4397
2716,2.715000,47364,48978981,-8,15,4400
2717,2.716000,47365,48979981,3,8,4372
2718,2.717000,47366,48980981,-9,23,4398
2719,2.718000,47367,48981981,-31,15,4426
2720,2.718999,47368,48982980,-48,14,4402
2721,2.719999,47369,48983980,-55,38,4410
2722,2.721000,47370,48984981,-67,56,4406
2723,2.722000,47371,48985981,-83,32,4395
2724,2.723000,47372,48986981,-75,33,4423
2725,2.724000,47373,48987981,-63,53,4415
2726,2.724999,47374,48988980,-77,27,4425
2727,2.726000,47375,48989981,-57,9,4447
2728,2.727000,47376,48990981,-43,11,4437
2729,2.728000,47377,48991981,-58,23,4408
2730,2.729000,47378,48992981,-40,29,4383
2731,2.730000,47379,48993981,-24,3,4385
2732,2.730999,47380,48994980,-32,-2,4393
2733,2.732000,47381,48995981,-39,23,4386
2734,2.733000,47382,48996981,-24,42,4361
2735,2.734000,47383,48997981,-31,29,4371
2736,2.735000,47384,48998981,-35,12,4395
2737,2.736000,47385,48999981,-27,33,4380
2738,2.737000,47386,49000981,-18,39,4368
2739,2.738000,47387,49001981,-23,30,4396
2740,2.738999,47388,49002980,-38,33,4425
2741,2.739999,47389,49003980,-37,18,4402
2742,2.741000,47390,49004981,-46,19,4382
2743,2.741999,47391,49005980,-33,24,4381
2744,2.743000,47392,49006981,-12,24,4366
2745,2.744000,47393,49007981,-6,20,4391
2746,2.744999,47394,49008980,-12,15,4402
2747,2.746000,47395,49009981,-30,28,4378
2748,2.747000,47396,49010981,-32,35,4391
2749,2.747999,47397,49011980,-30,27,4392
2750,2.749000,47398,49012981,-36,33,4392
2751,2.750000,47399,49013981,-40,46,4388
2752,2.751000,47400,49014981,-40,34,4366
2753,2.752000,47401,49015981,-41,31,4353
2754,2.753000,47402,49016981,-51,37,4363
2755,2.754000,47403,49017981,-63,33,4369
2756,2.755000,47404,49018981,-73,33,4392
2757,2.756000,47405,49019981,-47,18,4406
2758,2.757000,47406,49020981,-27,21,4391
2759,2.758000,47407,49021981,-46,37,4386
2760,2.759000,47408,49022981,-42,32,4377
2761,2.760000,47409,49023981,-35,34,4398
2762,2.760999,47410,49024980,-39,19,4390
2763,2.762000,47411,49025981,-29,20,4371
2764,2.763000,47412,49026981,-31,50,4358
2765,2.764000,47413,49027981,-31,45,4373
2766,2.765000,47414,49028981,-6,36,4398
2767,2.765999,47415,49029980,-9,41,4387
2768,2.766999,47416,49030980,-28,34,4387
2769,2.768000,47417,49031981,-30,20,4380
2770,2.768999,47418,49032980,-23,15,4384
2771,2.769999,47419,49033980,-35,13,4391
2772,2.771000,47420,49034981,-47,23,4390
2773,2.772000,47421,49035981,-39,38,4387
2774,2.773000,47422,49036981,-35,36,4397
2775,2.773999,47423,49037980,-35,28,4413
2776,2.774999,47424,49038980,-45,28,4408
2777,2.776000,47425,49039981,-50,33,4403
2778,2.777000,47426,49040981,-61,36,4399
2779,2.778000,47427,49041981,-56,17,4395
2780,2.779000,47428,49042981,-39,3,4406
2781,2.780000,47429,49043981,-40,22,4362
2782,2.781000,47430,49044981,-36,30,4356
2783,2.782000,47431,49045981,-43,23,4395
2784,2.783000,47432,49046981,-35,5,4371
2785,2.784000,47433,49047981,-35,2,4373
2786,2.785000,47434,49048981,-53,32,4381
2787,2.786000,47435,49049981,-30,26,4386
2788,2.787000,47436,49050981,-25,26,4398
2789,2.788000,47437,49051981,-48,50,4390
2790,2.789000,47438,49052981,-40,45,4386
2791,2.790000,47439,49053981,-37,48,4385
2792,2.791000,47440,49054981,-30,46,4384
2793,2.792000,47441,49055981,-41,32,4405
2794,2.792999,47442,49056980,-57,17,4406
2795,2.794000,47443,49057981,-50,14,4387
2796,2.795000,47444,49058981,-56,33,4390
2797,2.796000,47445,49059981,-34,39,4373
2798,2.796999,47446,49060980,-13,37,4356
2799,2.797999,47447,49061980,-11,31,4357
2800,2.799000,47448,49062981,-19,25,4380
2801,2.800000,47449,49063981,-34,25,4386
2802,2.801000,47450,49064981,-42,18,4371
2803,2.802000,47451,49065981,-26,35,4374
2804,2.803000,47452,49066981,-22,44,4368
2805,2.804000,47453,49067981,-20,19,4383
2806,2.805000,47454,49068981,-21,34,4375
2807,2.805999,47455,49069980,-40,54,4374
2808,2.807000,47456,49070981,-26,35,4402
2809,2.807999,47457,49071980,-21,32,4396
2810,2.809000,47458,49072981,-37,40,4382
2811,2.810000,47459,49073981,-32,38,4380
2812,2.810999,47460,49074980,-27,41,4372
2813,2.811999,47461,49075980,-44,52,4387
2814,2.813000,47462,49076981,-47,55,4406
2815,2.814000,47463,49077981,-34,35,4401
2816,2.815000,47464,49078981,-33,11,4402
2817,2.816000,47465,49079981,-44,24,4379
2818,2.817000,47466,49080981,-55,33,4379
2819,2.818000,47467,49081981,-60,26,4395
2820,2.819000,47468,49082981,-42,9,4401
2821,2.820000,47469,49083981,-34,-1,4418
2822,2.821000,47470,49084981,-42,20,4390
2823,2.821999,47471,49085980,-50,25,4369
2824,2.823000,47472,49086981,-56,14,4358
2825,2.824000,47473,49087981,-39,23,4364
2826,2.825000,47474,49088981,-41,25,4385
2827,2.826000,47475,49089981,-32,11,4357
2828,2.827000,47476,49090981,-19,14,4365
2829,2.828000,47477,49091981,-25,24,4394
2830,2.829000,47478,49092981,-24,32,4385
2831,2.830000,47479,49093981,-35,30,4398
2832,2.831000,47480,49094981,-46,26,4385
2833,2.831999,47481,49095980,-49,42,4363
2834,2.833000,47482,49096981,-27,45,4391
2835,2.834000,47483,49097981,-9,31,4417
2836,2.835000,47484,49098981,-29,27,4425
2837,2.836000,47485,49099981,-45,27,4391
2838,2.837000,47486,49100981,-47,18,4362
2839,2.838000,47487,49101981,-43,19,4400
2840,2.838999,47488,49102980,-49,29,4396
2841,2.840000,47489,49103981,-54,28,4345
2842,2.841000,47490,49104981,-39,33,4361
2843,2.842000,47491,49105981,-31,37,4372
2844,2.843000,47492,49106981,-30,40,4370
2845,2.844000,47493,49107981,-43,30,4384
2846,2.845000,47494,49108981,-44,7,4367
2847,2.846000,47495,49109981,-44,19,4356
2848,2.847000,47496,49110981,-35,23,4362
2849,2.848000,47497,49111981,-18,16,4369
2850,2.848999,47498,49112980,-55,18,4378
2851,2.849999,47499,49113980,-60,13,4372
2852,2.851000,47500,49114981,-40,17,4371
2853,2.852000,47501,49115981,-45,18,4390
2854,2.852999,47502,49116980,-38,22,4372
2855,2.853999,47503,49117980,-27,17,4357
2856,2.854999,47504,49118980,-49,23,4391
2857,2.856000,47505,49119981,-42,36,4384
2858,2.857000,47506,49120981,-32,32,4355
2859,2.858000,47507,49121981,-40,26,4381
2860,2.859000,47508,49122981,-43,14,4391
2861,2.859999,47509,49123980,-52,9,4387
2862,2.861000,47510,49124981,-58,17,4388
2863,2.862000,47511,49125981,-48,12,4398
2864,2.862999,47512,49126980,-25,-2,4419
2865,2.864000,47513,49127981,-24,-3,4427
2866,2.865000,47514,49128981,-30,21,4429
2867,2.865999,47515,49129980,-41,37,4411
2868,2.867000,47516,49130981,-49,15,4375
2869,2.868000,47517,49131981,-51,14,4385
2870,2.869000,47518,49132981,-40,31,4386
2871,2.870000,47519,49133981,-26,19,4371
2872,2.871000,47520,49134981,-32,22,4362
2873,2.872000,47521,49135981,-34,39,4336
2874,2.873000,47522,49136981,-19,40,4351
2875,2.874000,47523,49137981,-26,23,4386
2876,2.875000,47524,49138981,-46,7,4383
2877,2.876000,47525,49139981,-52,36,4379
2878,2.877000,47526,49140981,-40,44,4411
2879,2.878000,47527,49141981,-44,23,4416
2880,2.879000,47528,49142981,-41,32,4409
2881,2.880000,47529,49143981,-21,37,4396
2882,2.881000,47530,49144981,-21,16,4356
2883,2.882000,47531,49145981,-15,10,4342
2884,2.883000,47532,49146981,-16,28,4382
2885,2.884000,47533,49147981,-51,58,4400
2886,2.885000,47534,49148981,-57,47,4375
2887,2.886000,47535,49149981,-36,21,4372
2888,2.887000,47536,49150981,-35,35,4379
2889,2.888000,47537,49151981,-46,43,4385
