row,seconds,esp32_index,micros,ax,ay,az
1,0.000000,8702,10316993,-114,48,4386
2,0.000999,8703,10317992,-103,43,4397
3,0.001999,8704,10318992,-92,44,4418
4,0.003000,8705,10319993,-109,43,4377
5,0.004000,8706,10320993,-140,40,4366
6,0.004999,8707,10321992,-141,48,4378
7,0.005999,8708,10322992,-117,54,4379
8,0.007000,8709,10323993,-115,54,4399
9,0.008000,8710,10324993,-100,43,4435
10,0.009000,8711,10325993,-91,46,4440
11,0.010000,8712,10326993,-98,57,4399
12,0.011000,8713,10327993,-87,46,4382
13,0.011999,8714,10328992,-71,42,4365
14,0.012999,8715,10329992,-56,44,4361
15,0.013999,8716,10330992,-67,40,4357
16,0.014999,8717,10331992,-61,54,4322
17,0.016000,8718,10332993,-38,53,4306
18,0.017000,8719,10333993,-65,34,4280
19,0.018000,8720,10334993,-101,15,4268
20,0.019000,8721,10335993,-116,9,4281
21,0.019999,8722,10336992,-130,9,4270
22,0.021000,8723,10337993,-133,-1,4303
23,0.022000,8724,10338993,-132,-2,4342
24,0.023000,8725,10339993,-115,2,4368
25,0.024000,8726,10340993,-108,28,4422
26,0.024999,8727,10341992,-130,52,4469
27,0.025999,8728,10342992,-138,82,4486
28,0.027000,8729,10343993,-121,105,4486
29,0.028000,8730,10344993,-110,98,4477
30,0.029000,8731,10345993,-135,82,4477
31,0.029999,8732,10346992,-170,71,4485
32,0.031000,8733,10347993,-185,77,4506
33,0.032000,8734,10348993,-205,78,4524
34,0.032999,8735,10349992,-220,66,4489
35,0.034000,8736,10350993,-222,38,4484
36,0.035000,8737,10351993,-207,23,4460
37,0.035999,8738,10352992,-197,27,4420
38,0.037000,8739,10353993,-167,36,4404
39,0.038000,8740,10354993,-145,41,4384
40,0.039000,8741,10355993,-157,49,4398
41,0.039999,8742,10356992,-153,55,4385
42,0.041000,8743,10357993,-157,36,4394
43,0.042000,8744,10358993,-183,32,4439
44,0.043000,8745,10359993,-198,49,4420
45,0.044000,8746,10360993,-212,40,4442
46,0.044999,8747,10361992,-217,24,4479
47,0.046000,8748,10362993,-181,27,4451
48,0.047000,8749,10363993,-155,41,4449
49,0.048000,8750,10364993,-139,39,4452
50,0.048999,8751,10365992,-105,29,4439
51,0.049999,8752,10366992,-95,28,4420
52,0.051000,8753,10367993,-105,37,4395
53,0.051999,8754,10368992,-84,39,4407
54,0.052999,8755,10369992,-75,27,4417
55,0.054000,8756,10370993,-97,36,4387
56,0.055000,8757,10371993,-116,43,4363
57,0.056000,8758,10372993,-97,23,4347
58,0.056999,8759,10373992,-75,-7,4306
59,0.058000,8760,10374993,-93,-12,4266
60,0.059000,8761,10375993,-82,4,4288
61,0.060000,8762,10376993,-50,-7,4277
62,0.061000,8763,10377993,-34,-8,4246
63,0.062000,8764,10378993,-17,17,4225
64,0.062999,8765,10379992,-24,23,4205
65,0.064000,8766,10380993,-44,18,4210
66,0.065000,8767,10381993,-54,22,4211
67,0.066000,8768,10382993,-76,18,4236
68,0.067000,8769,10383993,-105,13,4252
69,0.068000,8770,10384993,-106,14,4285
70,0.069000,8771,10385993,-103,15,4325
71,0.070000,8772,10386993,-90,59,4366
72,0.070999,8773,10387992,-84,65,4392
73,0.072000,8774,10388993,-95,49,4389
74,0.073000,8775,10389993,-111,77,4413
75,0.074000,8776,10390993,-116,80,4483
76,0.075000,8777,10391993,-127,63,4535
77,0.076000,8778,10392993,-150,50,4502
78,0.077000,8779,10393993,-173,56,4482
79,0.078000,8780,10394993,-204,57,4474
80,0.079000,8781,10395993,-193,28,4463
81,0.080000,8782,10396993,-206,36,4448
82,0.080999,8783,10397992,-224,33,4427
83,0.081999,8784,10398992,-225,26,4421
84,0.083000,8785,10399993,-227,26,4401
85,0.084000,8786,10400993,-214,22,4409
86,0.084999,8787,10401992,-209,33,4414
87,0.085999,8788,10402992,-213,26,4404
88,0.087000,8789,10403993,-205,25,4413
89,0.088000,8790,10404993,-193,42,4436
90,0.088999,8791,10405992,-184,60,4461
91,0.089999,8792,10406992,-170,40,4461
92,0.090999,8793,10407992,-156,39,4431
93,0.092000,8794,10408993,-142,76,4429
94,0.092999,8795,10409992,-151,81,4457
95,0.094000,8796,10410993,-149,64,4469
96,0.095000,8797,10411993,-153,55,4464
97,0.096000,8798,10412993,-143,44,4474
98,0.097000,8799,10413993,-129,51,4477
99,0.097999,8800,10414992,-125,68,4445
100,0.099000,8801,10415993,-110,62,4432
101,0.100000,8802,10416993,-97,45,4416
102,0.101000,8803,10417993,-95,35,4398
103,0.101999,8804,10418992,-111,21,4394
104,0.102999,8805,10419992,-112,5,4349
105,0.103999,8806,10420992,-108,8,4317
106,0.105000,8807,10421993,-104,5,4329
107,0.106000,8808,10422993,-79,11,4303
108,0.106999,8809,10423992,-73,20,4231
109,0.107999,8810,10424992,-55,18,4204
110,0.109000,8811,10425993,-32,16,4224
111,0.110000,8812,10426993,-29,-1,4215
112,0.111000,8813,10427993,-9,4,4217
113,0.111999,8814,10428992,-19,2,4218
114,0.113000,8815,10429993,-32,1,4243
115,0.114000,8816,10430993,-40,32,4281
116,0.114999,8817,10431992,-35,43,4296
117,0.116000,8818,10432993,-50,39,4321
118,0.117000,8819,10433993,-99,59,4340
119,0.118000,8820,10434993,-113,76,4339
120,0.118999,8821,10435992,-131,81,4385
121,0.120000,8822,10436993,-134,78,4451
122,0.121000,8823,10437993,-112,68,4452
123,0.122000,8824,10438993,-98,72,4482
124,0.123000,8825,10439993,-108,75,4477
125,0.124000,8826,10440993,-157,77,4420
126,0.124999,8827,10441992,-184,60,4400
127,0.126000,8828,10442993,-175,36,4390
128,0.127000,8829,10443993,-188,41,4380
129,0.128000,8830,10444993,-215,27,4373
130,0.129000,8831,10445993,-212,5,4353
131,0.130000,8832,10446993,-199,24,4362
132,0.130999,8833,10447992,-198,35,4378
133,0.132000,8834,10448993,-188,34,4358
134,0.133000,8835,10449993,-179,27,4373
135,0.134000,8836,10450993,-180,31,4424
136,0.135000,8837,10451993,-168,45,4456
137,0.135999,8838,10452992,-141,62,4467
138,0.136999,8839,10453992,-142,75,4477
139,0.137999,8840,10454992,-157,74,4469
140,0.138999,8841,10455992,-138,81,4450
141,0.139999,8842,10456992,-130,81,4423
142,0.141000,8843,10457993,-131,60,4394
143,0.142000,8844,10458993,-128,34,4397
144,0.143000,8845,10459993,-127,34,4415
145,0.144000,8846,10460993,-103,65,4417
146,0.145000,8847,10461993,-78,60,4413
147,0.145999,8848,10462992,-88,47,4426
148,0.146999,8849,10463992,-118,60,4430
149,0.148000,8850,10464993,-124,52,4411
150,0.149000,8851,10465993,-114,26,4395
151,0.150000,8852,10466993,-137,30,4362
152,0.151000,8853,10467993,-157,52,4357
153,0.152000,8854,10468993,-151,31,4390
154,0.153000,8855,10469993,-142,10,4409
155,0.154000,8856,10470993,-138,17,4395
156,0.155000,8857,10471993,-129,26,4364
157,0.155999,8858,10472992,-103,24,4367
158,0.157000,8859,10473993,-117,3,4358
159,0.158000,8860,10474993,-135,-1,4347
160,0.159000,8861,10475993,-122,10,4340
161,0.159999,8862,10476992,-113,8,4311
162,0.160999,8863,10477992,-105,11,4293
163,0.162000,8864,10478993,-76,15,4273
164,0.163000,8865,10479993,-49,20,4293
165,0.163999,8866,10480992,-55,28,4327
166,0.165000,8867,10481993,-65,25,4323
167,0.166000,8868,10482993,-94,24,4307
168,0.167000,8869,10483993,-107,10,4302
169,0.168000,8870,10484993,-98,-4,4308
170,0.168999,8871,10485992,-111,11,4322
171,0.169999,8872,10486992,-120,34,4361
172,0.171000,8873,10487993,-111,58,4386
173,0.171999,8874,10488992,-132,74,4400
174,0.173000,8875,10489993,-137,76,4426
175,0.173999,8876,10490992,-97,74,4411
176,0.175000,8877,10491993,-77,60,4375
177,0.176000,8878,10492993,-98,63,4375
178,0.177000,8879,10493993,-139,59,4387
179,0.178000,8880,10494993,-151,46,4371
180,0.178999,8881,10495992,-140,51,4353
181,0.180000,8882,10496993,-163,34,4338
182,0.180999,8883,10497992,-176,29,4338
183,0.182000,8884,10498993,-167,32,4377
184,0.183000,8885,10499993,-175,29,4402
185,0.184000,8886,10500993,-160,25,4431
186,0.185000,8887,10501993,-135,41,4445
187,0.186000,8888,10502993,-138,67,4461
188,0.187000,8889,10503993,-165,80,4499
189,0.188000,8890,10504993,-164,72,4501
190,0.188999,8891,10505992,-161,59,4463
191,0.190000,8892,10506993,-164,57,4440
192,0.191000,8893,10507993,-163,69,4431
193,0.192000,8894,10508993,-164,60,4430
194,0.193000,8895,10509993,-159,50,4439
195,0.194000,8896,10510993,-150,59,4401
196,0.195000,8897,10511993,-137,46,4388
197,0.196000,8898,10512993,-144,38,4418
198,0.197000,8899,10513993,-161,35,4424
199,0.198000,8900,10514993,-167,38,4419
200,0.199000,8901,10515993,-131,34,4420
201,0.200000,8902,10516993,-111,40,4410
202,0.200999,8903,10517992,-126,51,4379
203,0.202000,8904,10518993,-124,47,4408
204,0.203000,8905,10519993,-132,56,4437
205,0.204000,8906,10520993,-126,68,4407
206,0.205000,8907,10521993,-126,53,4400
207,0.205999,8908,10522992,-141,33,4386
208,0.206999,8909,10523992,-130,27,4370
209,0.207999,8910,10524992,-121,29,4376
210,0.209000,8911,10525993,-112,29,4361
211,0.210000,8912,10526993,-106,26,4341
212,0.211000,8913,10527993,-118,26,4337
213,0.211999,8914,10528992,-117,24,4334
214,0.213000,8915,10529993,-130,40,4339
215,0.214000,8916,10530993,-128,53,4366
216,0.215000,8917,10531993,-129,60,4376
217,0.216000,8918,10532993,-143,49,4380
218,0.216999,8919,10533992,-151,26,4399
219,0.218000,8920,10534993,-155,39,4403
220,0.218999,8921,10535992,-130,48,4403
221,0.219999,8922,10536992,-124,37,4380
222,0.221000,8923,10537993,-106,36,4361
223,0.222000,8924,10538993,-105,56,4365
224,0.223000,8925,10539993,-105,62,4344
225,0.224000,8926,10540993,-85,40,4315
226,0.224999,8927,10541992,-88,9,4305
227,0.226000,8928,10542993,-71,7,4297
228,0.227000,8929,10543993,-74,17,4267
229,0.228000,8930,10544993,-87,15,4249
230,0.229000,8931,10545993,-82,18,4274
231,0.230000,8932,10546993,-89,0,4266
232,0.231000,8933,10547993,-97,16,4249
233,0.232000,8934,10548993,-85,41,4270
234,0.232999,8935,10549992,-68,34,4268
235,0.233999,8936,10550992,-86,25,4287
236,0.235000,8937,10551993,-113,28,4345
237,0.236000,8938,10552993,-109,52,4392
238,0.236999,8939,10553992,-107,78,4425
239,0.238000,8940,10554993,-100,88,4473
240,0.239000,8941,10555993,-73,89,4486
241,0.239999,8942,10556992,-93,74,4456
242,0.241000,8943,10557993,-133,52,4469
243,0.242000,8944,10558993,-181,35,4488
244,0.243000,8945,10559993,-190,40,4467
245,0.244000,8946,10560993,-174,55,4476
246,0.245000,8947,10561993,-144,50,4476
247,0.246000,8948,10562993,-112,50,4421
248,0.246999,8949,10563992,-121,56,4380
249,0.248000,8950,10564993,-116,37,4343
250,0.249000,8951,10565993,-119,6,4316
251,0.250000,8952,10566993,-137,16,4320
252,0.251000,8953,10567993,-155,24,4337
253,0.252000,8954,10568993,-183,14,4327
254,0.253000,8955,10569993,-206,2,4344
255,0.254000,8956,10570993,-199,22,4403
256,0.254999,8957,10571992,-199,50,4436
257,0.256000,8958,10572993,-187,33,4433
258,0.257000,8959,10573993,-150,48,4433
259,0.258000,8960,10574993,-129,77,4467
260,0.259000,8961,10575993,-111,72,4466
261,0.259999,8962,10576992,-100,73,4433
262,0.261000,8963,10577993,-98,70,4427
263,0.262000,8964,10578993,-90,54,4388
264,0.263000,8965,10579993,-107,42,4355
265,0.264000,8966,10580993,-123,26,4356
266,0.265000,8967,10581993,-113,30,4349
267,0.265999,8968,10582992,-144,23,4336
268,0.266999,8969,10583992,-176,-8,4345
269,0.268000,8970,10584993,-146,10,4352
270,0.269000,8971,10585993,-133,19,4355
271,0.270000,8972,10586993,-147,10,4373
272,0.270999,8973,10587992,-163,30,4386
273,0.271999,8974,10588992,-170,43,4393
274,0.272999,8975,10589992,-174,45,4409
275,0.274000,8976,10590993,-194,36,4413
276,0.275000,8977,10591993,-187,34,4413
277,0.276000,8978,10592993,-186,43,4434
278,0.276999,8979,10593992,-181,40,4433
279,0.278000,8980,10594993,-192,52,4425
280,0.279000,8981,10595993,-199,53,4411
281,0.280000,8982,10596993,-184,34,4407
282,0.281000,8983,10597993,-179,4,4403
283,0.282000,8984,10598993,-192,-9,4398
284,0.282999,8985,10599992,-248,-6,4439
285,0.284000,8986,10600993,-214,9,4453
286,0.285000,8987,10601993,-72,55,4395
287,0.286000,8988,10602993,18,90,4304
288,0.287000,8989,10603993,8,99,4238
289,0.288000,8990,10604993,-29,90,4231
290,0.289000,8991,10605993,-68,91,4240
291,0.290000,8992,10606993,-132,68,4243
292,0.291000,8993,10607993,-193,5,4268
293,0.292000,8994,10608993,-186,-24,4354
294,0.293000,8995,10609993,-130,-14,4408
295,0.293999,8996,10610992,-77,-13,4392
296,0.294999,8997,10611992,-56,3,4406
297,0.296000,8998,10612993,-53,55,4441
298,0.297000,8999,10613993,-27,95,4464
299,0.298000,9000,10614993,-2,107,4448
300,0.298999,9001,10615992,15,120,4402
301,0.300000,9002,10616993,-34,123,4405
302,0.301000,9003,10617993,-131,97,4446
303,0.302000,9004,10618993,-174,69,4449
304,0.303000,9005,10619993,-217,38,4403
305,0.304000,9006,10620993,-254,6,4357
306,0.304999,9007,10621992,-262,-19,4383
307,0.305999,9008,10622992,-227,-20,4407
308,0.307000,9009,10623993,-166,-7,4385
309,0.308000,9010,10624993,-149,12,4383
310,0.309000,9011,10625993,-142,25,4389
311,0.310000,9012,10626993,-137,23,4393
312,0.311000,9013,10627993,-156,40,4365
313,0.312000,9014,10628993,-193,41,4364
314,0.312999,9015,10629992,-216,45,4408
315,0.314000,9016,10630993,-224,74,4394
316,0.314999,9017,10631992,-197,74,4403
317,0.316000,9018,10632993,-177,38,4438
318,0.317000,9019,10633993,-162,17,4431
319,0.318000,9020,10634993,-150,33,4432
320,0.319000,9021,10635993,-152,27,4408
321,0.320000,9022,10636993,-65,26,4392
322,0.321000,9023,10637993,-14,31,4354
323,0.321999,9024,10638992,4,16,4320
324,0.322999,9025,10639992,6,27,4325
325,0.324000,9026,10640993,-59,13,4286
326,0.324999,9027,10641992,-93,2,4280
327,0.325999,9028,10642992,-70,25,4309
328,0.326999,9029,10643992,-13,47,4273
329,0.328000,9030,10644993,26,50,4200
330,0.328999,9031,10645992,24,51,4166
331,0.330000,9032,10646993,8,38,4171
332,0.331000,9033,10647993,-29,22,4221
333,0.331999,9034,10648992,-114,17,4275
334,0.332999,9035,10649992,-178,-13,4290
335,0.334000,9036,10650993,-195,-15,4350
336,0.335000,9037,10651993,-189,11,4435
337,0.336000,9038,10652993,-171,25,4447
338,0.337000,9039,10653993,-161,37,4471
339,0.337999,9040,10654992,-189,59,4513
340,0.338999,9041,10655992,-200,77,4531
341,0.340000,9042,10656993,-187,95,4543
342,0.341000,9043,10657993,-203,103,4523
343,0.342000,9044,10658993,-198,81,4534
344,0.343000,9045,10659993,-223,64,4530
345,0.343999,9046,10660992,-260,53,4481
346,0.345000,9047,10661993,-276,46,4467
347,0.346000,9048,10662993,-268,39,4452
348,0.346999,9049,10663992,-247,31,4433
349,0.348000,9050,10664993,-239,32,4421
350,0.349000,9051,10665993,-215,26,4386
351,0.349999,9052,10666992,-191,26,4370
352,0.351000,9053,10667993,-153,36,4395
353,0.351999,9054,10668992,-139,32,4408
354,0.352999,9055,10669992,-133,39,4392
355,0.354000,9056,10670993,-118,46,4361
356,0.355000,9057,10671993,-122,36,4340
357,0.355999,9058,10672992,-120,42,4350
358,0.356999,9059,10673992,-97,49,4336
359,0.358000,9060,10674993,-72,36,4307
360,0.359000,9061,10675993,-50,41,4295
361,0.359999,9062,10676992,-44,52,4314
362,0.360999,9063,10677992,-50,31,4313
363,0.362000,9064,10678993,-50,27,4327
364,0.363000,9065,10679993,-59,34,4339
365,0.364000,9066,10680993,-82,31,4330
366,0.364999,9067,10681992,-92,28,4370
367,0.365999,9068,10682992,-125,45,4414
368,0.367000,9069,10683993,-165,59,4437
369,0.368000,9070,10684993,-184,53,4428
370,0.369000,9071,10685993,-193,62,4428
371,0.370000,9072,10686993,-172,71,4432
372,0.371000,9073,10687993,-156,58,4406
373,0.372000,9074,10688993,-163,55,4403
374,0.372999,9075,10689992,-161,51,4423
375,0.373999,9076,10690992,-169,41,4415
376,0.375000,9077,10691993,-177,57,4387
377,0.376000,9078,10692993,-139,39,4384
378,0.377000,9079,10693993,-122,13,4346
379,0.378000,9080,10694993,-130,35,4330
380,0.379000,9081,10695993,-117,50,4328
381,0.380000,9082,10696993,-93,41,4289
382,0.381000,9083,10697993,-79,42,4310
383,0.382000,9084,10698993,-74,40,4330
384,0.383000,9085,10699993,-92,25,4338
385,0.384000,9086,10700993,-99,35,4340
386,0.385000,9087,10701993,-52,52,4354
387,0.385999,9088,10702992,-27,44,4358
388,0.387000,9089,10703993,-31,57,4361
389,0.388000,9090,10704993,-53,75,4370
390,0.389000,9091,10705993,-91,65,4361
391,0.390000,9092,10706993,-87,61,4383
392,0.391000,9093,10707993,-100,57,4404
393,0.392000,9094,10708993,-127,47,4374
394,0.393000,9095,10709993,-117,47,4369
395,0.394000,9096,10710993,-125,55,4400
396,0.395000,9097,10711993,-133,48,4379
397,0.396000,9098,10712993,-146,29,4348
398,0.397000,9099,10713993,-172,25,4359
399,0.397999,9100,10714992,-194,32,4400
400,0.399000,9101,10715993,-213,13,4436
401,0.400000,9102,10716993,-217,5,4432
402,0.401000,9103,10717993,-207,22,4421
403,0.402000,9104,10718993,-197,29,4397
404,0.403000,9105,10719993,-183,39,4413
405,0.404000,9106,10720993,-176,33,4425
406,0.405000,9107,10721993,-182,31,4377
407,0.406000,9108,10722993,-180,33,4334
408,0.407000,9109,10723993,-177,38,4335
409,0.408000,9110,10724993,-168,43,4378
410,0.409000,9111,10725993,-140,26,4385
411,0.410000,9112,10726993,-134,20,4349
412,0.411000,9113,10727993,-149,15,4341
413,0.412000,9114,10728993,-133,17,4374
414,0.413000,9115,10729993,-125,30,4381
415,0.414000,9116,10730993,-126,29,4392
416,0.415000,9117,10731993,-131,29,4401
417,0.416000,9118,10732993,-150,36,4422
418,0.416999,9119,10733992,-153,56,4436
419,0.418000,9120,10734993,-140,71,4451
420,0.418999,9121,10735992,-134,76,4464
421,0.419999,9122,10736992,-138,78,4462
422,0.421000,9123,10737993,-162,65,4469
423,0.421999,9124,10738992,-170,44,4440
424,0.423000,9125,10739993,-160,35,4441
425,0.423999,9126,10740992,-156,38,4463
426,0.425000,9127,10741993,-167,30,4434
427,0.425999,9128,10742992,-184,24,4407
428,0.427000,9129,10743993,-182,25,4389
429,0.427999,9130,10744992,-177,47,4393
430,0.429000,9131,10745993,-177,51,4413
431,0.430000,9132,10746993,-195,26,4409
432,0.431000,9133,10747993,-189,15,4379
433,0.432000,9134,10748993,-171,39,4397
434,0.433000,9135,10749993,-170,65,4419
435,0.434000,9136,10750993,-170,42,4410
436,0.435000,9137,10751993,-155,25,4417
437,0.436000,9138,10752993,-132,42,4401
438,0.437000,9139,10753993,-133,52,4417
439,0.438000,9140,10754993,-138,55,4422
440,0.439000,9141,10755993,-142,59,4418
441,0.439999,9142,10756992,-121,38,4396
442,0.441000,9143,10757993,-119,38,4374
443,0.442000,9144,10758993,-128,53,4386
444,0.442999,9145,10759992,-125,43,4377
445,0.444000,9146,10760993,-137,38,4381
446,0.444999,9147,10761992,-124,34,4383
447,0.446000,9148,10762993,-128,33,4365
448,0.447000,9149,10763993,-144,35,4356
449,0.448000,9150,10764993,-137,24,4359
450,0.448999,9151,10765992,-139,21,4371
451,0.450000,9152,10766993,-145,23,4390
452,0.451000,9153,10767993,-136,37,4374
453,0.452000,9154,10768993,-142,42,4365
454,0.453000,9155,10769993,-149,35,4380
455,0.454000,9156,10770993,-136,24,4373
456,0.454999,9157,10771992,-127,17,4344
457,0.455999,9158,10772992,-127,20,4330
458,0.457000,9159,10773993,-123,14,4328
459,0.458000,9160,10774993,-112,18,4328
460,0.459000,9161,10775993,-107,35,4325
461,0.460000,9162,10776993,-98,50,4301
462,0.461000,9163,10777993,-90,57,4294
463,0.462000,9164,10778993,-99,44,4287
464,0.463000,9165,10779993,-88,39,4272
465,0.463999,9166,10780992,-64,46,4288
466,0.465000,9167,10781993,-71,41,4321
467,0.465999,9168,10782992,-78,35,4339
468,0.467000,9169,10783993,-68,34,4337
469,0.468000,9170,10784993,-72,45,4359
470,0.469000,9171,10785993,-83,51,4371
471,0.470000,9172,10786993,-99,53,4373
472,0.470999,9173,10787992,-110,73,4382
473,0.471999,9174,10788992,-113,64,4367
474,0.473000,9175,10789993,-138,38,4404
475,0.474000,9176,10790993,-155,37,4417
476,0.475000,9177,10791993,-159,40,4415
477,0.476000,9178,10792993,-174,55,4437
478,0.477000,9179,10793993,-162,61,4437
479,0.477999,9180,10794992,-150,58,4429
480,0.479000,9181,10795993,-157,48,4414
481,0.480000,9182,10796993,-160,38,4436
482,0.481000,9183,10797993,-167,33,4428
483,0.482000,9184,10798993,-166,37,4409
484,0.483000,9185,10799993,-159,39,4406
485,0.483999,9186,10800992,-163,26,4415
486,0.484999,9187,10801992,-161,12,4415
487,0.485999,9188,10802992,-156,26,4413
488,0.487000,9189,10803993,-178,62,4457
489,0.488000,9190,10804993,-179,75,4464
490,0.489000,9191,10805993,-152,77,4429
491,0.490000,9192,10806993,-152,56,4415
492,0.491000,9193,10807993,-155,45,4434
493,0.491999,9194,10808992,-153,62,4433
494,0.493000,9195,10809993,-161,55,4428
495,0.494000,9196,10810993,-160,30,4452
496,0.495000,9197,10811993,-155,31,4437
497,0.495999,9198,10812992,-140,40,4411
498,0.497000,9199,10813993,-140,46,4398
499,0.498000,9200,10814993,-154,36,4407
500,0.498999,9201,10815992,-158,26,4407
501,0.500000,9202,10816993,-159,36,4389
502,0.500999,9203,10817992,-177,41,4383
503,0.502000,9204,10818993,-167,39,4386
504,0.502999,9205,10819992,-163,20,4401
505,0.504000,9206,10820993,-168,31,4389
506,0.504999,9207,10821992,-155,33,4362
507,0.506000,9208,10822993,-136,24,4329
508,0.507000,9209,10823993,-142,35,4307
509,0.507999,9210,10824992,-161,30,4351
510,0.509000,9211,10825993,-143,35,4352
511,0.510000,9212,10826993,-150,46,4313
512,0.511000,9213,10827993,-151,36,4338
513,0.512000,9214,10828993,-126,30,4354
514,0.513000,9215,10829993,-116,22,4362
515,0.514000,9216,10830993,-122,10,4378
516,0.514999,9217,10831992,-131,40,4375
517,0.515999,9218,10832992,-137,60,4379
518,0.517000,9219,10833993,-142,73,4410
519,0.518000,9220,10834993,-149,79,4410
520,0.518999,9221,10835992,-134,60,4391
521,0.519999,9222,10836992,-139,66,4387
522,0.521000,9223,10837993,-161,68,4407
523,0.522000,9224,10838993,-159,53,4385
524,0.523000,9225,10839993,-144,37,4352
525,0.524000,9226,10840993,-126,35,4358
526,0.524999,9227,10841992,-109,39,4337
527,0.526000,9228,10842993,-100,44,4334
528,0.527000,9229,10843993,-96,44,4351
529,0.527999,9230,10844992,-97,34,4343
530,0.529000,9231,10845993,-99,41,4335
531,0.530000,9232,10846993,-97,50,4332
532,0.531000,9233,10847993,-104,51,4353
533,0.531999,9234,10848992,-102,39,4376
534,0.533000,9235,10849993,-115,37,4377
535,0.534000,9236,10850993,-124,57,4382
536,0.534999,9237,10851992,-97,60,4375
537,0.536000,9238,10852993,-109,57,4386
538,0.536999,9239,10853992,-126,50,4420
539,0.538000,9240,10854993,-124,48,4417
540,0.538999,9241,10855992,-119,56,4405
541,0.540000,9242,10856993,-112,52,4392
542,0.541000,9243,10857993,-110,48,4376
543,0.542000,9244,10858993,-108,40,4359
544,0.543000,9245,10859993,-115,42,4310
545,0.544000,9246,10860993,-122,36,4323
546,0.545000,9247,10861993,-128,19,4325
547,0.546000,9248,10862993,-125,17,4286
548,0.547000,9249,10863993,-144,-4,4309
549,0.548000,9250,10864993,-132,-5,4353
550,0.549000,9251,10865993,-121,22,4349
551,0.550000,9252,10866993,-147,38,4328
552,0.551000,9253,10867993,-138,44,4342
553,0.552000,9254,10868993,-134,43,4372
554,0.553000,9255,10869993,-144,37,4386
555,0.554000,9256,10870993,-133,39,4375
556,0.555000,9257,10871993,-141,40,4375
557,0.556000,9258,10872993,-180,35,4379
558,0.557000,9259,10873993,-183,26,4387
559,0.558000,9260,10874993,-148,28,4412
560,0.559000,9261,10875993,-138,47,4409
561,0.560000,9262,10876993,-150,47,4389
562,0.561000,9263,10877993,-152,25,4418
563,0.562000,9264,10878993,-168,46,4437
564,0.563000,9265,10879993,-158,50,4419
565,0.564000,9266,10880993,-144,21,4389
566,0.565000,9267,10881993,-148,49,4401
567,0.566000,9268,10882993,-135,57,4442
568,0.567000,9269,10883993,-141,41,4432
569,0.567999,9270,10884992,-155,52,4421
570,0.569000,9271,10885993,-171,59,4425
571,0.570000,9272,10886993,-186,61,4412
572,0.571000,9273,10887993,-190,65,4413
573,0.571999,9274,10888992,-190,53,4436
574,0.572999,9275,10889992,-189,46,4421
575,0.574000,9276,10890993,-199,53,4421
576,0.575000,9277,10891993,-217,56,4454
577,0.575999,9278,10892992,-192,44,4441
578,0.576999,9279,10893992,-172,46,4398
579,0.578000,9280,10894993,-167,54,4387
580,0.578999,9281,10895992,-153,52,4415
581,0.580000,9282,10896993,-159,59,4449
582,0.581000,9283,10897993,-152,59,4429
583,0.582000,9284,10898993,-147,64,4393
584,0.583000,9285,10899993,-149,63,4393
585,0.584000,9286,10900993,-128,46,4381
586,0.584999,9287,10901992,-91,35,4400
587,0.586000,9288,10902993,-96,40,4414
588,0.586999,9289,10903992,-128,37,4372
589,0.587999,9290,10904992,-105,23,4335
590,0.589000,9291,10905993,-86,38,4353
591,0.590000,9292,10906993,-109,37,4351
592,0.591000,9293,10907993,-96,10,4339
593,0.591999,9294,10908992,-80,24,4341
594,0.593000,9295,10909993,-87,51,4315
595,0.594000,9296,10910993,-114,48,4320
596,0.594999,9297,10911992,-130,36,4335
597,0.596000,9298,10912993,-113,53,4337
598,0.596999,9299,10913992,-113,67,4356
599,0.598000,9300,10914993,-122,55,4370
600,0.599000,9301,10915993,-115,39,4382
601,0.600000,9302,10916993,-116,33,4348
602,0.601000,9303,10917993,-133,49,4333
603,0.602000,9304,10918993,-131,50,4367
604,0.603000,9305,10919993,-122,49,4353
605,0.604000,9306,10920993,-133,42,4334
606,0.605000,9307,10921993,-126,23,4318
607,0.606000,9308,10922993,-125,33,4294
608,0.606999,9309,10923992,-144,37,4300
609,0.608000,9310,10924993,-136,27,4336
610,0.609000,9311,10925993,-137,30,4354
611,0.610000,9312,10926993,-134,46,4353
612,0.611000,9313,10927993,-136,58,4382
613,0.612000,9314,10928993,-135,65,4396
614,0.613000,9315,10929993,-106,75,4389
615,0.614000,9316,10930993,-103,64,4386
616,0.615000,9317,10931993,-118,40,4364
617,0.616000,9318,10932993,-114,29,4355
618,0.617000,9319,10933993,-113,46,4358
619,0.618000,9320,10934993,-138,57,4353
620,0.619000,9321,10935993,-142,59,4362
621,0.619999,9322,10936992,-136,51,4388
622,0.620999,9323,10937992,-142,34,4405
623,0.621999,9324,10938992,-158,44,4408
624,0.623000,9325,10939993,-164,44,4412
625,0.624000,9326,10940993,-157,28,4415
626,0.625000,9327,10941993,-172,36,4440
627,0.625999,9328,10942992,-165,64,4467
628,0.627000,9329,10943993,-159,48,4450
629,0.628000,9330,10944993,-179,42,4437
630,0.629000,9331,10945993,-170,65,4408
631,0.629999,9332,10946992,-160,39,4388
632,0.631000,9333,10947993,-181,28,4426
633,0.631999,9334,10948992,-193,26,4411
634,0.633000,9335,10949993,-196,24,4359
635,0.634000,9336,10950993,-205,19,4364
636,0.635000,9337,10951993,-212,11,4377
637,0.635999,9338,10952992,-200,42,4400
638,0.637000,9339,10953993,-183,41,4404
639,0.637999,9340,10954992,-194,19,4393
640,0.639000,9341,10955993,-198,39,4416
641,0.640000,9342,10956993,-171,58,4410
642,0.641000,9343,10957993,-158,61,4406
643,0.641999,9344,10958992,-164,57,4428
644,0.643000,9345,10959993,-152,46,4415
645,0.644000,9346,10960993,-132,59,4378
646,0.644999,9347,10961992,-127,56,4362
647,0.645999,9348,10962992,-133,40,4380
648,0.647000,9349,10963993,-123,37,4397
649,0.648000,9350,10964993,-117,29,4401
650,0.649000,9351,10965993,-128,48,4405
651,0.650000,9352,10966993,-144,53,4426
652,0.650999,9353,10967992,-162,49,4437
653,0.651999,9354,10968992,-153,63,4416
654,0.653000,9355,10969993,-153,60,4417
655,0.653999,9356,10970992,-171,58,4421
656,0.655000,9357,10971993,-184,73,4453
657,0.655999,9358,10972992,-208,90,4432
658,0.657000,9359,10973993,-210,79,4408
659,0.658000,9360,10974993,-202,45,4416
660,0.659000,9361,10975993,-194,35,4406
661,0.660000,9362,10976993,-182,39,4397
662,0.661000,9363,10977993,-203,36,4400
663,0.662000,9364,10978993,-215,35,4413
664,0.663000,9365,10979993,-192,51,4382
665,0.664000,9366,10980993,-157,40,4392
666,0.665000,9367,10981993,-129,31,4400
667,0.666000,9368,10982993,-128,31,4361
668,0.667000,9369,10983993,-132,1,4341
669,0.668000,9370,10984993,-111,11,4324
670,0.668999,9371,10985992,-81,25,4314
671,0.670000,9372,10986993,-83,37,4311
672,0.671000,9373,10987993,-91,33,4296
673,0.672000,9374,10988993,-70,10,4293
674,0.673000,9375,10989993,-56,16,4280
675,0.674000,9376,10990993,-69,18,4279
676,0.675000,9377,10991993,-72,21,4282
677,0.675999,9378,10992992,-58,29,4301
678,0.677000,9379,10993993,-57,33,4328
679,0.678000,9380,10994993,-85,43,4328
680,0.679000,9381,10995993,-92,53,4355
681,0.680000,9382,10996993,-73,55,4379
682,0.680999,9383,10997992,-91,62,4378
683,0.682000,9384,10998993,-123,68,4400
684,0.683000,9385,10999993,-139,79,4429
685,0.684000,9386,11000993,-154,85,4432
686,0.684999,9387,11001992,-141,47,4410
687,0.686000,9388,11002993,-138,11,4378
688,0.687000,9389,11003993,-157,4,4364
689,0.688000,9390,11004993,-158,8,4348
690,0.689000,9391,11005993,-150,28,4345
691,0.690000,9392,11006993,-156,45,4337
692,0.691000,9393,11007993,-183,58,4358
693,0.692000,9394,11008993,-204,45,4380
694,0.693000,9395,11009993,-210,37,4372
695,0.694000,9396,11010993,-191,52,4407
696,0.695000,9397,11011993,-171,49,4430
697,0.696000,9398,11012993,-175,37,4454
698,0.697000,9399,11013993,-169,44,4449
699,0.698000,9400,11014993,-151,58,4434
700,0.698999,9401,11015992,-141,68,4420
701,0.700000,9402,11016993,-128,69,4388
702,0.701000,9403,11017993,-116,52,4370
703,0.702000,9404,11018993,-114,40,4360
704,0.702999,9405,11019992,-104,36,4353
705,0.703999,9406,11020992,-89,36,4383
706,0.705000,9407,11021993,-83,45,4390
707,0.706000,9408,11022993,-89,45,4369
708,0.706999,9409,11023992,-110,39,4371
709,0.707999,9410,11024992,-116,55,4380
710,0.709000,9411,11025993,-101,62,4418
711,0.710000,9412,11026993,-100,48,4407
712,0.711000,9413,11027993,-102,28,4401
713,0.712000,9414,11028993,-92,28,4398
714,0.713000,9415,11029993,-102,41,4371
715,0.713999,9416,11030992,-118,41,4367
716,0.715000,9417,11031993,-132,40,4369
717,0.716000,9418,11032993,-159,36,4375
718,0.717000,9419,11033993,-179,41,4396
719,0.718000,9420,11034993,-165,52,4403
720,0.719000,9421,11035993,-154,59,4372
721,0.719999,9422,11036992,-177,51,4376
722,0.721000,9423,11037993,-198,44,4415
723,0.721999,9424,11038992,-199,46,4434
724,0.723000,9425,11039993,-190,46,4422
725,0.724000,9426,11040993,-177,37,4402
726,0.725000,9427,11041993,-187,22,4424
727,0.726000,9428,11042993,-190,40,4419
728,0.726999,9429,11043992,-175,67,4380
729,0.728000,9430,11044993,-147,55,4355
730,0.729000,9431,11045993,-140,35,4366
731,0.730000,9432,11046993,-152,49,4420
732,0.730999,9433,11047992,-161,54,4413
733,0.731999,9434,11048992,-171,50,4398
734,0.732999,9435,11049992,-147,51,4396
735,0.734000,9436,11050993,-113,36,4389
736,0.734999,9437,11051992,-112,46,4373
737,0.736000,9438,11052993,-129,60,4348
738,0.736999,9439,11053992,-111,62,4327
739,0.737999,9440,11054992,-108,60,4326
740,0.739000,9441,11055993,-119,40,4323
741,0.739999,9442,11056992,-122,37,4314
742,0.741000,9443,11057993,-129,21,4321
743,0.742000,9444,11058993,-121,28,4329
744,0.743000,9445,11059993,-121,40,4334
745,0.743999,9446,11060992,-107,14,4324
746,0.744999,9447,11061992,-85,19,4345
747,0.745999,9448,11062992,-98,23,4366
748,0.747000,9449,11063993,-129,16,4370
749,0.748000,9450,11064993,-137,24,4374
750,0.748999,9451,11065992,-138,48,4391
751,0.750000,9452,11066993,-152,60,4371
752,0.751000,9453,11067993,-140,61,4336
753,0.752000,9454,11068993,-134,59,4368
754,0.753000,9455,11069993,-133,41,4365
755,0.753999,9456,11070992,-111,47,4324
756,0.754999,9457,11071992,-107,49,4347
757,0.756000,9458,11072993,-138,52,4389
758,0.757000,9459,11073993,-158,63,4391
759,0.758000,9460,11074993,-137,36,4366
760,0.759000,9461,11075993,-154,26,4357
761,0.760000,9462,11076993,-178,24,4377
762,0.761000,9463,11077993,-165,40,4406
763,0.762000,9464,11078993,-163,50,4396
764,0.762999,9465,11079992,-173,39,4392
765,0.763999,9466,11080992,-178,66,4434
766,0.765000,9467,11081993,-152,71,4435
767,0.765999,9468,11082992,-140,58,4403
768,0.767000,9469,11083993,-149,59,4406
769,0.767999,9470,11084992,-158,55,4415
770,0.769000,9471,11085993,-156,56,4370
771,0.769999,9472,11086992,-155,43,4354
772,0.770999,9473,11087992,-178,30,4394
773,0.772000,9474,11088993,-189,46,4413
774,0.772999,9475,11089992,-153,49,4395
775,0.774000,9476,11090993,-134,33,4360
776,0.774999,9477,11091992,-151,34,4367
777,0.776000,9478,11092993,-139,54,4404
778,0.776999,9479,11093992,-126,61,4440
779,0.778000,9480,11094993,-137,61,4449
780,0.778999,9481,11095992,-165,53,4437
781,0.780000,9482,11096993,-184,36,4431
782,0.780999,9483,11097992,-193,42,4412
783,0.782000,9484,11098993,-178,54,4406
784,0.783000,9485,11099993,-153,51,4408
785,0.784000,9486,11100993,-163,68,4383
786,0.785000,9487,11101993,-162,49,4348
787,0.786000,9488,11102993,-131,16,4344
788,0.787000,9489,11103993,-133,25,4366
789,0.788000,9490,11104993,-122,28,4349
790,0.789000,9491,11105993,-105,18,4337
791,0.789999,9492,11106992,-97,21,4335
792,0.791000,9493,11107993,-87,26,4289
793,0.792000,9494,11108993,-80,14,4284
794,0.793000,9495,11109993,-70,18,4271
795,0.794000,9496,11110993,-91,16,4274
796,0.795000,9497,11111993,-98,4,4308
797,0.796000,9498,11112993,-111,12,4323
798,0.797000,9499,11113993,-125,31,4341
799,0.798000,9500,11114993,-113,40,4355
800,0.799000,9501,11115993,-114,43,4364
801,0.800000,9502,11116993,-123,57,4373
802,0.801000,9503,11117993,-119,73,4404
803,0.802000,9504,11118993,-114,62,4418
804,0.803000,9505,11119993,-126,58,4431
805,0.804000,9506,11120993,-143,58,4417
806,0.805000,9507,11121993,-160,47,4430
807,0.806000,9508,11122993,-176,61,4468
808,0.807000,9509,11123993,-181,75,4433
809,0.808000,9510,11124993,-186,54,4404
810,0.809000,9511,11125993,-202,50,4417
811,0.810000,9512,11126993,-208,74,4413
812,0.810999,9513,11127992,-202,73,4416
813,0.812000,9514,11128993,-216,60,4440
814,0.813000,9515,11129993,-233,45,4442
815,0.814000,9516,11130993,-210,40,4431
816,0.814999,9517,11131992,-188,56,4415
817,0.815999,9518,11132992,-205,65,4399
818,0.817000,9519,11133993,-206,61,4410
819,0.818000,9520,11134993,-209,64,4427
820,0.819000,9521,11135993,-212,37,4424
821,0.819999,9522,11136992,-191,5,4441
822,0.821000,9523,11137993,-182,19,4452
823,0.822000,9524,11138993,-147,48,4440
824,0.823000,9525,11139993,-111,54,4418
825,0.824000,9526,11140993,-110,52,4414
826,0.825000,9527,11141993,-103,38,4406
827,0.826000,9528,11142993,-98,28,4351
828,0.826999,9529,11143992,-98,39,4339
829,0.828000,9530,11144993,-82,24,4357
830,0.828999,9531,11145992,-73,27,4363
831,0.829999,9532,11146992,-75,50,4314
832,0.831000,9533,11147993,-69,42,4278
833,0.831999,9534,11148992,-67,25,4312
834,0.832999,9535,11149992,-63,26,4330
835,0.834000,9536,11150993,-80,44,4335
836,0.834999,9537,11151992,-109,38,4346
837,0.836000,9538,11152993,-132,48,4360
838,0.837000,9539,11153993,-140,59,4367
839,0.837999,9540,11154992,-143,43,4370
840,0.839000,9541,11155993,-152,48,4376
841,0.840000,9542,11156993,-123,39,4378
842,0.841000,9543,11157993,-128,19,4398
843,0.842000,9544,11158993,-145,27,4401
844,0.842999,9545,11159992,-134,21,4377
845,0.843999,9546,11160992,-157,4,4354
846,0.845000,9547,11161993,-156,24,4353
847,0.846000,9548,11162993,-146,34,4418
848,0.846999,9549,11163992,-166,33,4430
849,0.848000,9550,11164993,-172,60,4388
850,0.849000,9551,11165993,-170,61,4413
851,0.850000,9552,11166993,-160,50,4419
852,0.850999,9553,11167992,-143,31,4388
853,0.852000,9554,11168993,-145,7,4376
854,0.853000,9555,11169993,-146,37,4381
855,0.854000,9556,11170993,-128,48,4390
856,0.855000,9557,11171993,-146,24,4393
857,0.856000,9558,11172993,-172,48,4391
858,0.857000,9559,11173993,-174,61,4369
859,0.858000,9560,11174993,-176,48,4397
860,0.858999,9561,11175992,-169,47,4412
861,0.860000,9562,11176993,-161,59,4386
862,0.860999,9563,11177992,-152,65,4389
863,0.862000,9564,11178993,-161,58,4420
864,0.863000,9565,11179993,-174,53,4433
865,0.864000,9566,11180993,-164,46,4418
866,0.865000,9567,11181993,-166,63,4454
867,0.866000,9568,11182993,-156,75,4480
868,0.867000,9569,11183993,-156,59,4440
869,0.868000,9570,11184993,-165,42,4408
870,0.868999,9571,11185992,-169,31,4392
871,0.870000,9572,11186993,-166,35,4375
872,0.871000,9573,11187993,-164,23,4387
873,0.872000,9574,11188993,-176,13,4397
874,0.873000,9575,11189993,-184,33,4383
875,0.874000,9576,11190993,-200,42,4378
876,0.875000,9577,11191993,-201,34,4396
877,0.876000,9578,11192993,-198,30,4418
878,0.877000,9579,11193993,-166,62,4415
879,0.878000,9580,11194993,-141,64,4440
880,0.879000,9581,11195993,-139,52,4447
881,0.880000,9582,11196993,-145,72,4405
882,0.880999,9583,11197992,-152,79,4397
883,0.881999,9584,11198992,-125,57,4455
884,0.883000,9585,11199993,-120,58,4478
885,0.884000,9586,11200993,-147,62,4437
886,0.885000,9587,11201993,-143,51,4406
887,0.886000,9588,11202993,-133,34,4374
888,0.887000,9589,11203993,-131,34,4360
889,0.888000,9590,11204993,-112,48,4379
890,0.889000,9591,11205993,-116,44,4408
891,0.890000,9592,11206993,-142,54,4402
892,0.891000,9593,11207993,-136,45,4376
893,0.892000,9594,11208993,-115,27,4353
894,0.893000,9595,11209993,-101,27,4317
895,0.893999,9596,11210992,-120,26,4299
896,0.895000,9597,11211993,-134,27,4301
897,0.896000,9598,11212993,-107,41,4291
898,0.897000,9599,11213993,-116,62,4302
899,0.898000,9600,11214993,-121,56,4333
900,0.899000,9601,11215993,-104,35,4328
901,0.900000,9602,11216993,-113,33,4330
902,0.901000,9603,11217993,-108,34,4343
903,0.901999,9604,11218992,-93,51,4350
904,0.903000,9605,11219993,-98,69,4354
905,0.904000,9606,11220993,-95,67,4353
906,0.905000,9607,11221993,-109,69,4382
907,0.905999,9608,11222992,-122,57,4396
908,0.906999,9609,11223992,-135,53,4385
909,0.908000,9610,11224993,-137,50,4359
910,0.909000,9611,11225993,-125,43,4340
911,0.910000,9612,11226993,-135,31,4352
912,0.911000,9613,11227993,-145,20,4376
913,0.912000,9614,11228993,-147,20,4383
914,0.913000,9615,11229993,-137,24,4386
915,0.914000,9616,11230993,-151,31,4393
916,0.914999,9617,11231992,-164,33,4387
917,0.915999,9618,11232992,-172,53,4397
918,0.917000,9619,11233993,-168,46,4405
919,0.918000,9620,11234993,-160,48,4405
920,0.918999,9621,11235992,-158,43,4397
921,0.919999,9622,11236992,-158,14,4389
922,0.921000,9623,11237993,-166,24,4424
923,0.922000,9624,11238993,-161,37,4424
924,0.922999,9625,11239992,-150,43,4409
925,0.924000,9626,11240993,-139,41,4414
926,0.925000,9627,11241993,-129,25,4406
927,0.926000,9628,11242993,-133,39,4415
928,0.927000,9629,11243993,-153,52,4398
929,0.927999,9630,11244992,-144,50,4403
930,0.928999,9631,11245992,-131,57,4416
931,0.930000,9632,11246993,-144,52,4398
932,0.931000,9633,11247993,-131,45,4400
933,0.932000,9634,11248993,-122,58,4366
934,0.933000,9635,11249993,-128,56,4332
935,0.933999,9636,11250992,-125,40,4365
936,0.934999,9637,11251992,-140,44,4388
937,0.936000,9638,11252993,-149,46,4365
938,0.936999,9639,11253992,-148,38,4349
939,0.937999,9640,11254992,-140,27,4348
940,0.939000,9641,11255993,-146,31,4376
941,0.939999,9642,11256992,-150,43,4373
942,0.940999,9643,11257992,-144,46,4351
943,0.941999,9644,11258992,-157,60,4371
944,0.943000,9645,11259993,-181,65,4396
945,0.944000,9646,11260993,-195,60,4407
946,0.945000,9647,11261993,-186,55,4410
947,0.946000,9648,11262993,-161,52,4426
948,0.947000,9649,11263993,-160,72,4437
949,0.947999,9650,11264992,-179,71,4425
950,0.949000,9651,11265993,-166,62,4409
951,0.950000,9652,11266993,-154,53,4409
952,0.950999,9653,11267992,-159,33,4416
953,0.951999,9654,11268992,-168,32,4402
954,0.953000,9655,11269993,-152,39,4359
955,0.953999,9656,11270992,-122,37,4336
956,0.955000,9657,11271993,-133,35,4328
957,0.956000,9658,11272993,-149,35,4330
958,0.957000,9659,11273993,-150,41,4348
959,0.958000,9660,11274993,-158,42,4336
960,0.958999,9661,11275992,-146,55,4330
961,0.960000,9662,11276993,-122,60,4336
962,0.961000,9663,11277993,-130,62,4362
963,0.961999,9664,11278992,-150,59,4410
964,0.963000,9665,11279993,-157,52,4415
965,0.963999,9666,11280992,-153,31,4398
966,0.964999,9667,11281992,-151,34,4429
967,0.966000,9668,11282993,-138,48,4443
968,0.967000,9669,11283993,-140,52,4436
969,0.968000,9670,11284993,-147,50,4466
970,0.969000,9671,11285993,-128,39,4443
971,0.969999,9672,11286992,-121,43,4382
972,0.971000,9673,11287993,-130,27,4381
973,0.972000,9674,11288993,-115,29,4387
974,0.972999,9675,11289992,-102,50,4332
975,0.974000,9676,11290993,-95,34,4292
976,0.975000,9677,11291993,-100,11,4298
977,0.976000,9678,11292993,-101,-9,4275
978,0.977000,9679,11293993,-98,8,4283
979,0.978000,9680,11294993,-108,42,4319
980,0.979000,9681,11295993,-107,40,4315
981,0.979999,9682,11296992,-119,21,4312
982,0.981000,9683,11297993,-119,18,4345
983,0.982000,9684,11298993,-113,39,4376
984,0.982999,9685,11299992,-112,42,4396
985,0.984000,9686,11300993,-112,34,4415
986,0.985000,9687,11301993,-125,37,4450
987,0.986000,9688,11302993,-128,57,4456
988,0.987000,9689,11303993,-127,63,4410
989,0.987999,9690,11304992,-154,42,4426
990,0.989000,9691,11305993,-168,40,4425
991,0.990000,9692,11306993,-160,44,4403
992,0.990999,9693,11307992,-173,45,4429
993,0.991999,9694,11308992,-164,41,4390
994,0.993000,9695,11309993,-159,35,4348
995,0.993999,9696,11310992,-168,47,4360
996,0.994999,9697,11311992,-161,58,4356
997,0.996000,9698,11312993,-168,49,4342
998,0.997000,9699,11313993,-176,28,4340
999,0.998000,9700,11314993,-174,44,4363
1000,0.999000,9701,11315993,-176,60,4392
1001,1.000000,9702,11316993,-182,45,4396
1002,1.000999,9703,11317992,-208,47,4434
1003,1.001999,9704,11318992,-204,75,4437
1004,1.002999,9705,11319992,-156,84,4403
1005,1.004000,9706,11320993,-157,83,4403
1006,1.004999,9707,11321992,-172,86,4420
1007,1.006000,9708,11322993,-145,63,4446
1008,1.007000,9709,11323993,-126,51,4425
1009,1.008000,9710,11324993,-133,50,4388
1010,1.009000,9711,11325993,-133,47,4366
1011,1.010000,9712,11326993,-136,50,4361
1012,1.011000,9713,11327993,-133,55,4364
1013,1.011999,9714,11328992,-110,63,4359
1014,1.013000,9715,11329993,-130,52,4354
1015,1.014000,9716,11330993,-130,51,4362
1016,1.015000,9717,11331993,-108,59,4392
1017,1.016000,9718,11332993,-124,42,4393
1018,1.016999,9719,11333992,-123,49,4377
1019,1.018000,9720,11334993,-133,56,4375
1020,1.018999,9721,11335992,-147,46,4368
1021,1.020000,9722,11336993,-153,38,4367
1022,1.021000,9723,11337993,-163,38,4381
1023,1.021999,9724,11338992,-131,64,4398
1024,1.023000,9725,11339993,-129,70,4401
1025,1.024000,9726,11340993,-157,50,4416
1026,1.025000,9727,11341993,-146,28,4402
1027,1.026000,9728,11342993,-131,17,4409
1028,1.027000,9729,11343993,-119,52,4407
1029,1.028000,9730,11344993,-104,59,4352
1030,1.029000,9731,11345993,-94,50,4356
1031,1.029999,9732,11346992,-84,42,4355
1032,1.031000,9733,11347993,-68,31,4364
1033,1.032000,9734,11348993,-83,44,4378
1034,1.033000,9735,11349993,-107,58,4335
1035,1.034000,9736,11350993,-94,50,4304
1036,1.035000,9737,11351993,-87,29,4304
1037,1.036000,9738,11352993,-82,36,4295
1038,1.037000,9739,11353993,-86,46,4284
1039,1.038000,9740,11354993,-116,54,4303
1040,1.039000,9741,11355993,-103,51,4346
1041,1.040000,9742,11356993,-91,45,4357
1042,1.041000,9743,11357993,-111,52,4321
1043,1.042000,9744,11358993,-107,33,4312
1044,1.043000,9745,11359993,-96,36,4360
1045,1.044000,9746,11360993,-112,62,4387
1046,1.045000,9747,11361993,-137,44,4377
1047,1.046000,9748,11362993,-137,47,4392
1048,1.046999,9749,11363992,-132,67,4423
1049,1.048000,9750,11364993,-139,47,4432
1050,1.049000,9751,11365993,-116,25,4404
1051,1.050000,9752,11366993,-109,27,4354
1052,1.051000,9753,11367993,-150,32,4350
1053,1.052000,9754,11368993,-148,26,4369
1054,1.053000,9755,11369993,-137,16,4367
1055,1.054000,9756,11370993,-143,26,4393
1056,1.055000,9757,11371993,-136,19,4373
1057,1.055999,9758,11372992,-147,16,4373
1058,1.057000,9759,11373993,-174,45,4431
1059,1.058000,9760,11374993,-183,63,4425
1060,1.059000,9761,11375993,-177,69,4428
1061,1.059999,9762,11376992,-185,58,4461
1062,1.060999,9763,11377992,-205,46,4448
1063,1.062000,9764,11378993,-197,28,4437
1064,1.063000,9765,11379993,-183,51,4473
1065,1.064000,9766,11380993,-182,73,4487
1066,1.064999,9767,11381992,-167,61,4441
1067,1.066000,9768,11382993,-177,62,4402
1068,1.066999,9769,11383992,-193,55,4410
1069,1.067999,9770,11384992,-168,47,4446
1070,1.069000,9771,11385993,-173,43,4469
1071,1.070000,9772,11386993,-175,49,4451
1072,1.071000,9773,11387993,-153,51,4411
1073,1.071999,9774,11388992,-142,38,4367
1074,1.073000,9775,11389993,-131,28,4335
1075,1.074000,9776,11390993,-125,16,4338
1076,1.075000,9777,11391993,-123,28,4339
1077,1.076000,9778,11392993,-123,43,4326
1078,1.077000,9779,11393993,-133,31,4333
1079,1.077999,9780,11394992,-143,25,4350
1080,1.079000,9781,11395993,-131,23,4338
1081,1.080000,9782,11396993,-147,27,4319
1082,1.080999,9783,11397992,-155,51,4341
1083,1.082000,9784,11398993,-153,59,4381
1084,1.083000,9785,11399993,-169,54,4404
1085,1.083999,9786,11400992,-162,61,4423
1086,1.085000,9787,11401993,-160,67,4452
1087,1.086000,9788,11402993,-157,59,4457
1088,1.086999,9789,11403992,-155,46,4443
1089,1.088000,9790,11404993,-153,55,4437
1090,1.089000,9791,11405993,-137,50,4404
1091,1.090000,9792,11406993,-124,25,4379
1092,1.091000,9793,11407993,-122,30,4378
1093,1.092000,9794,11408993,-141,34,4352
1094,1.093000,9795,11409993,-146,19,4343
1095,1.093999,9796,11410992,-130,16,4325
1096,1.095000,9797,11411993,-144,13,4329
1097,1.095999,9798,11412992,-142,11,4344
1098,1.096999,9799,11413992,-132,31,4340
1099,1.098000,9800,11414993,-142,48,4364
1100,1.099000,9801,11415993,-130,55,4378
1101,1.100000,9802,11416993,-115,54,4363
1102,1.101000,9803,11417993,-122,40,4396
1103,1.102000,9804,11418993,-120,71,4445
1104,1.103000,9805,11419993,-126,90,4428
1105,1.103999,9806,11420992,-120,68,4434
1106,1.105000,9807,11421993,-106,65,4453
1107,1.105999,9808,11422992,-118,47,4419
1108,1.107000,9809,11423993,-107,34,4388
1109,1.108000,9810,11424993,-99,38,4376
1110,1.109000,9811,11425993,-104,39,4378
1111,1.110000,9812,11426993,-124,35,4379
1112,1.110999,9813,11427992,-135,30,4373
1113,1.112000,9814,11428993,-140,25,4381
1114,1.113000,9815,11429993,-168,23,4362
1115,1.113999,9816,11430992,-173,26,4355
1116,1.115000,9817,11431993,-158,26,4362
1117,1.116000,9818,11432993,-139,29,4364
1118,1.117000,9819,11433993,-160,28,4360
1119,1.118000,9820,11434993,-160,26,4366
1120,1.118999,9821,11435992,-132,17,4394
1121,1.120000,9822,11436993,-144,24,4364
1122,1.121000,9823,11437993,-144,47,4355
1123,1.122000,9824,11438993,-167,40,4403
1124,1.123000,9825,11439993,-165,45,4426
1125,1.123999,9826,11440992,-153,46,4412
1126,1.125000,9827,11441993,-164,17,4398
1127,1.126000,9828,11442993,-142,25,4425
1128,1.126999,9829,11443992,-142,58,4430
1129,1.128000,9830,11444993,-162,60,4414
1130,1.129000,9831,11445993,-161,55,4417
1131,1.130000,9832,11446993,-158,46,4421
1132,1.130999,9833,11447992,-158,31,4406
1133,1.132000,9834,11448993,-165,46,4396
1134,1.133000,9835,11449993,-163,61,4406
1135,1.133999,9836,11450992,-151,71,4396
1136,1.135000,9837,11451993,-143,40,4360
1137,1.136000,9838,11452993,-129,13,4348
1138,1.136999,9839,11453992,-128,22,4373
1139,1.137999,9840,11454992,-133,20,4356
1140,1.139000,9841,11455993,-138,29,4355
1141,1.140000,9842,11456993,-117,28,4349
1142,1.141000,9843,11457993,-114,26,4338
1143,1.141999,9844,11458992,-142,33,4361
1144,1.143000,9845,11459993,-142,47,4365
1145,1.143999,9846,11460992,-151,57,4377
1146,1.144999,9847,11461992,-147,63,4365
1147,1.145999,9848,11462992,-132,47,4355
1148,1.147000,9849,11463993,-142,45,4389
1149,1.148000,9850,11464993,-100,56,4414
1150,1.149000,9851,11465993,-71,33,4388
1151,1.150000,9852,11466993,-85,35,4366
1152,1.151000,9853,11467993,-80,43,4347
1153,1.152000,9854,11468993,-83,25,4318
1154,1.153000,9855,11469993,-94,24,4278
1155,1.153999,9856,11470992,-122,17,4262
1156,1.155000,9857,11471993,-134,0,4300
1157,1.156000,9858,11472993,-112,11,4308
1158,1.156999,9859,11473992,-112,15,4317
1159,1.157999,9860,11474992,-128,50,4354
1160,1.159000,9861,11475993,-105,70,4381
1161,1.160000,9862,11476993,-93,58,4411
1162,1.161000,9863,11477993,-112,78,4439
1163,1.162000,9864,11478993,-118,89,4431
1164,1.163000,9865,11479993,-122,82,4426
1165,1.164000,9866,11480993,-142,64,4449
1166,1.164999,9867,11481992,-141,60,4457
1167,1.165999,9868,11482992,-133,57,4424
1168,1.167000,9869,11483993,-168,57,4419
1169,1.168000,9870,11484993,-167,65,4409
1170,1.168999,9871,11485992,-158,50,4398
1171,1.170000,9872,11486993,-182,41,4428
1172,1.171000,9873,11487993,-174,25,4432
1173,1.171999,9874,11488992,-158,16,4424
1174,1.172999,9875,11489992,-161,22,4424
1175,1.174000,9876,11490993,-163,41,4399
1176,1.175000,9877,11491993,-153,43,4370
1177,1.175999,9878,11492992,-158,23,4369
1178,1.177000,9879,11493993,-154,20,4356
1179,1.178000,9880,11494993,-141,25,4350
1180,1.179000,9881,11495993,-138,39,4364
1181,1.179999,9882,11496992,-123,42,4369
1182,1.180999,9883,11497992,-123,32,4362
1183,1.182000,9884,11498993,-140,35,4347
1184,1.183000,9885,11499993,-116,41,4333
1185,1.184000,9886,11500993,-106,39,4330
1186,1.185000,9887,11501993,-120,45,4352
1187,1.185999,9888,11502992,-108,55,4385
1188,1.186999,9889,11503992,-120,62,4387
1189,1.188000,9890,11504993,-142,63,4393
1190,1.189000,9891,11505993,-133,59,4418
1191,1.190000,9892,11506993,-124,65,4427
1192,1.191000,9893,11507993,-110,67,4421
1193,1.192000,9894,11508993,-128,51,4409
1194,1.193000,9895,11509993,-141,46,4410
1195,1.194000,9896,11510993,-135,41,4387
1196,1.195000,9897,11511993,-149,28,4388
1197,1.195999,9898,11512992,-149,23,4430
1198,1.197000,9899,11513993,-158,15,4420
1199,1.198000,9900,11514993,-171,16,4389
1200,1.198999,9901,11515992,-179,30,4367
1201,1.200000,9902,11516993,-195,42,4367
1202,1.201000,9903,11517993,-189,50,4383
1203,1.201999,9904,11518992,-159,50,4400
1204,1.203000,9905,11519993,-181,44,4405
1205,1.204000,9906,11520993,-187,49,4396
1206,1.205000,9907,11521993,-160,45,4421
1207,1.206000,9908,11522993,-171,53,4423
1208,1.207000,9909,11523993,-184,58,4394
1209,1.208000,9910,11524993,-188,48,4390
1210,1.209000,9911,11525993,-180,53,4395
1211,1.210000,9912,11526993,-159,37,4393
1212,1.211000,9913,11527993,-138,20,4391
1213,1.212000,9914,11528993,-121,23,4385
1214,1.212999,9915,11529992,-112,28,4354
1215,1.214000,9916,11530993,-105,25,4328
1216,1.215000,9917,11531993,-103,27,4315
1217,1.216000,9918,11532993,-100,27,4305
1218,1.216999,9919,11533992,-105,28,4282
1219,1.218000,9920,11534993,-113,41,4284
1220,1.219000,9921,11535993,-118,47,4300
1221,1.219999,9922,11536992,-141,50,4330
1222,1.221000,9923,11537993,-139,44,4386
1223,1.222000,9924,11538993,-133,46,4390
1224,1.223000,9925,11539993,-139,53,4361
1225,1.224000,9926,11540993,-126,33,4359
1226,1.225000,9927,11541993,-141,29,4392
1227,1.226000,9928,11542993,-156,56,4424
1228,1.226999,9929,11543992,-160,61,4434
1229,1.228000,9930,11544993,-167,51,4436
1230,1.229000,9931,11545993,-173,54,4448
1231,1.230000,9932,11546993,-171,50,4441
1232,1.231000,9933,11547993,-157,39,4413
1233,1.231999,9934,11548992,-148,34,4392
1234,1.233000,9935,11549993,-152,35,4388
1235,1.234000,9936,11550993,-151,28,4387
1236,1.235000,9937,11551993,-130,19,4341
1237,1.236000,9938,11552993,-133,38,4324
1238,1.236999,9939,11553992,-135,68,4353
1239,1.238000,9940,11554993,-152,47,4374
1240,1.239000,9941,11555993,-168,27,4390
1241,1.240000,9942,11556993,-157,48,4392
1242,1.241000,9943,11557993,-143,62,4380
1243,1.242000,9944,11558993,-122,52,4381
1244,1.243000,9945,11559993,-123,51,4398
1245,1.244000,9946,11560993,-117,55,4385
1246,1.244999,9947,11561992,-94,45,4379
1247,1.246000,9948,11562993,-90,51,4388
1248,1.247000,9949,11563993,-82,56,4380
1249,1.248000,9950,11564993,-80,41,4379
1250,1.249000,9951,11565993,-81,42,4384
1251,1.250000,9952,11566993,-61,57,4387
1252,1.251000,9953,11567993,-74,52,4377
1253,1.252000,9954,11568993,-101,40,4343
1254,1.253000,9955,11569993,-117,18,4318
1255,1.254000,9956,11570993,-123,35,4327
1256,1.255000,9957,11571993,-124,61,4350
1257,1.256000,9958,11572993,-130,66,4366
1258,1.257000,9959,11573993,-125,56,4399
1259,1.257999,9960,11574992,-140,48,4409
1260,1.259000,9961,11575993,-149,51,4384
1261,1.260000,9962,11576993,-146,54,4354
1262,1.261000,9963,11577993,-156,58,4348
1263,1.262000,9964,11578993,-168,39,4376
1264,1.263000,9965,11579993,-159,32,4391
1265,1.264000,9966,11580993,-147,35,4393
1266,1.265000,9967,11581993,-165,27,4345
1267,1.266000,9968,11582993,-156,14,4335
1268,1.267000,9969,11583993,-140,11,4370
1269,1.268000,9970,11584993,-128,32,4361
1270,1.269000,9971,11585993,-125,38,4333
1271,1.269999,9972,11586992,-143,27,4343
1272,1.271000,9973,11587993,-126,37,4369
1273,1.271999,9974,11588992,-114,28,4353
1274,1.272999,9975,11589992,-122,37,4349
1275,1.274000,9976,11590993,-131,46,4353
1276,1.275000,9977,11591993,-152,15,4351
1277,1.276000,9978,11592993,-149,22,4381
1278,1.277000,9979,11593993,-128,50,4386
1279,1.278000,9980,11594993,-125,56,4383
1280,1.279000,9981,11595993,-136,65,4419
1281,1.280000,9982,11596993,-133,70,4437
1282,1.281000,9983,11597993,-129,72,4457
1283,1.281999,9984,11598992,-154,69,4441
1284,1.283000,9985,11599993,-175,56,4381
1285,1.284000,9986,11600993,-154,52,4350
1286,1.285000,9987,11601993,-141,67,4382
1287,1.286000,9988,11602993,-160,69,4397
1288,1.287000,9989,11603993,-150,32,4371
1289,1.288000,9990,11604993,-149,16,4362
1290,1.289000,9991,11605993,-177,33,4391
1291,1.289999,9992,11606992,-180,41,4415
1292,1.290999,9993,11607992,-168,34,4403
1293,1.291999,9994,11608992,-169,34,4389
1294,1.293000,9995,11609993,-166,42,4380
1295,1.293999,9996,11610992,-181,44,4404
1296,1.295000,9997,11611993,-173,53,4416
1297,1.296000,9998,11612993,-161,52,4401
1298,1.297000,9999,11613993,-155,48,4392
1299,1.298000,10000,11614993,-130,61,4407
1300,1.299000,10001,11615993,-137,73,4413
1301,1.300000,10002,11616993,-126,58,4399
1302,1.300999,10003,11617992,-143,38,4404
1303,1.301999,10004,11618992,-162,37,4391
1304,1.302999,10005,11619992,-139,36,4395
1305,1.303999,10006,11620992,-109,30,4405
1306,1.304999,10007,11621992,-110,36,4382
1307,1.305999,10008,11622992,-133,49,4383
1308,1.307000,10009,11623993,-124,41,4395
1309,1.308000,10010,11624993,-107,42,4370
1310,1.309000,10011,11625993,-107,52,4344
1311,1.309999,10012,11626992,-128,38,4342
1312,1.311000,10013,11627993,-135,24,4321
1313,1.312000,10014,11628993,-124,34,4325
1314,1.313000,10015,11629993,-135,47,4373
1315,1.314000,10016,11630993,-147,31,4397
1316,1.314999,10017,11631992,-158,19,4403
1317,1.316000,10018,11632993,-168,52,4416
1318,1.317000,10019,11633993,-143,60,4428
1319,1.317999,10020,11634992,-136,43,4413
1320,1.319000,10021,11635993,-151,47,4386
1321,1.320000,10022,11636993,-140,51,4361
1322,1.321000,10023,11637993,-123,43,4354
1323,1.322000,10024,11638993,-131,27,4355
1324,1.323000,10025,11639993,-117,44,4336
1325,1.324000,10026,11640993,-92,51,4324
1326,1.325000,10027,11641993,-101,24,4312
1327,1.326000,10028,11642993,-123,18,4304
1328,1.327000,10029,11643993,-131,18,4297
1329,1.328000,10030,11644993,-123,18,4307
1330,1.328999,10031,11645992,-130,37,4359
1331,1.330000,10032,11646993,-126,58,4380
1332,1.331000,10033,11647993,-116,57,4386
1333,1.332000,10034,11648993,-120,49,4397
1334,1.332999,10035,11649992,-128,49,4394
1335,1.334000,10036,11650993,-126,73,4431
1336,1.335000,10037,11651993,-127,70,4460
1337,1.335999,10038,11652992,-136,70,4442
1338,1.337000,10039,11653993,-113,67,4405
1339,1.337999,10040,11654992,-106,44,4382
1340,1.338999,10041,11655992,-124,61,4391
1341,1.340000,10042,11656993,-131,44,4405
1342,1.341000,10043,11657993,-130,23,4387
1343,1.341999,10044,11658992,-144,23,4384
1344,1.343000,10045,11659993,-142,21,4391
1345,1.344000,10046,11660993,-123,16,4397
1346,1.344999,10047,11661992,-130,25,4396
1347,1.346000,10048,11662993,-161,49,4380
1348,1.346999,10049,11663992,-183,43,4375
1349,1.348000,10050,11664993,-168,28,4385
1350,1.349000,10051,11665993,-160,25,4380
1351,1.350000,10052,11666993,-160,20,4382
1352,1.351000,10053,11667993,-158,34,4398
1353,1.352000,10054,11668993,-147,45,4400
1354,1.353000,10055,11669993,-161,38,4397
1355,1.354000,10056,11670993,-164,53,4414
1356,1.354999,10057,11671992,-149,55,4438
1357,1.355999,10058,11672992,-139,48,4426
1358,1.357000,10059,11673993,-121,59,4422
1359,1.358000,10060,11674993,-135,63,4423
1360,1.359000,10061,11675993,-148,55,4406
1361,1.360000,10062,11676993,-145,46,4384
1362,1.361000,10063,11677993,-131,58,4375
1363,1.362000,10064,11678993,-132,60,4386
1364,1.362999,10065,11679992,-143,36,4382
1365,1.364000,10066,11680993,-116,28,4357
1366,1.365000,10067,11681993,-115,25,4342
1367,1.366000,10068,11682993,-128,20,4342
1368,1.367000,10069,11683993,-131,21,4365
1369,1.367999,10070,11684992,-123,29,4381
1370,1.369000,10071,11685993,-103,35,4397
1371,1.369999,10072,11686992,-117,30,4392
1372,1.371000,10073,11687993,-121,51,4400
1373,1.372000,10074,11688993,-131,75,4395
1374,1.373000,10075,11689993,-158,63,4359
1375,1.374000,10076,11690993,-174,48,4379
1376,1.374999,10077,11691992,-166,33,4399
1377,1.376000,10078,11692993,-142,27,4385
1378,1.377000,10079,11693993,-131,37,4376
1379,1.378000,10080,11694993,-124,45,4382
1380,1.379000,10081,11695993,-116,51,4373
1381,1.380000,10082,11696993,-116,34,4338
1382,1.381000,10083,11697993,-119,0,4311
1383,1.382000,10084,11698993,-110,21,4323
1384,1.383000,10085,11699993,-98,31,4327
1385,1.384000,10086,11700993,-107,16,4323
1386,1.385000,10087,11701993,-115,16,4328
1387,1.386000,10088,11702993,-117,12,4359
1388,1.387000,10089,11703993,-118,42,4403
1389,1.388000,10090,11704993,-114,62,4389
1390,1.389000,10091,11705993,-119,40,4369
1391,1.390000,10092,11706993,-122,20,4386
1392,1.391000,10093,11707993,-120,29,4392
1393,1.391999,10094,11708992,-112,47,4385
1394,1.393000,10095,11709993,-91,54,4384
1395,1.394000,10096,11710993,-99,38,4380
1396,1.395000,10097,11711993,-95,18,4374
1397,1.396000,10098,11712993,-94,16,4368
1398,1.397000,10099,11713993,-131,31,4382
1399,1.398000,10100,11714993,-126,34,4398
1400,1.398999,10101,11715992,-111,27,4391
1401,1.400000,10102,11716993,-115,39,4370
1402,1.401000,10103,11717993,-104,43,4356
1403,1.401999,10104,11718992,-118,44,4369
1404,1.402999,10105,11719992,-148,56,4380
1405,1.404000,10106,11720993,-145,57,4370
1406,1.405000,10107,11721993,-140,41,4382
1407,1.406000,10108,11722993,-159,51,4393
1408,1.407000,10109,11723993,-170,62,4388
1409,1.407999,10110,11724992,-161,54,4384
1410,1.409000,10111,11725993,-148,32,4357
1411,1.409999,10112,11726992,-144,26,4353
1412,1.410999,10113,11727992,-156,42,4395
1413,1.412000,10114,11728993,-159,33,4420
1414,1.413000,10115,11729993,-176,37,4389
1415,1.413999,10116,11730992,-174,41,4368
1416,1.415000,10117,11731993,-136,23,4386
1417,1.416000,10118,11732993,-124,36,4383
1418,1.417000,10119,11733993,-135,52,4375
1419,1.418000,10120,11734993,-140,38,4385
1420,1.418999,10121,11735992,-139,48,4393
1421,1.420000,10122,11736993,-142,71,4410
1422,1.421000,10123,11737993,-153,71,4402
1423,1.421999,10124,11738992,-165,65,4396
1424,1.423000,10125,11739993,-176,50,4400
1425,1.423999,10126,11740992,-184,30,4385
1426,1.425000,10127,11741993,-164,35,4380
1427,1.426000,10128,11742993,-143,39,4414
1428,1.427000,10129,11743993,-148,44,4458
1429,1.428000,10130,11744993,-146,46,4421
1430,1.428999,10131,11745992,-136,38,4393
1431,1.429999,10132,11746992,-135,57,4410
1432,1.430999,10133,11747992,-131,59,4375
1433,1.432000,10134,11748993,-126,34,4370
1434,1.433000,10135,11749993,-130,23,4396
1435,1.434000,10136,11750993,-126,33,4374
1436,1.435000,10137,11751993,-109,34,4318
1437,1.436000,10138,11752993,-103,9,4319
1438,1.436999,10139,11753992,-111,18,4338
1439,1.437999,10140,11754992,-109,24,4330
1440,1.438999,10141,11755992,-106,16,4343
1441,1.439999,10142,11756992,-127,12,4338
1442,1.440999,10143,11757992,-145,20,4360
1443,1.442000,10144,11758993,-154,44,4363
1444,1.442999,10145,11759992,-163,46,4369
1445,1.444000,10146,11760993,-153,44,4425
1446,1.445000,10147,11761993,-145,52,4436
1447,1.446000,10148,11762993,-139,62,4444
1448,1.447000,10149,11763993,-141,56,4412
1449,1.448000,10150,11764993,-158,58,4381
1450,1.448999,10151,11765992,-163,72,4415
1451,1.450000,10152,11766993,-162,56,4409
1452,1.451000,10153,11767993,-163,51,4370
1453,1.451999,10154,11768992,-157,57,4357
1454,1.452999,10155,11769992,-166,55,4386
1455,1.453999,10156,11770992,-171,53,4377
1456,1.455000,10157,11771993,-153,39,4358
1457,1.455999,10158,11772992,-144,26,4377
1458,1.457000,10159,11773993,-141,31,4380
1459,1.458000,10160,11774993,-147,31,4384
1460,1.459000,10161,11775993,-152,27,4378
1461,1.460000,10162,11776993,-146,52,4380
1462,1.461000,10163,11777993,-137,65,4387
1463,1.461999,10164,11778992,-156,42,4347
1464,1.463000,10165,11779993,-165,29,4333
1465,1.463999,10166,11780992,-137,37,4359
1466,1.464999,10167,11781992,-121,37,4367
1467,1.465999,10168,11782992,-117,28,4378
1468,1.466999,10169,11783992,-100,40,4389
1469,1.467999,10170,11784992,-89,44,4395
1470,1.469000,10171,11785993,-101,24,4405
1471,1.469999,10172,11786992,-110,26,4399
1472,1.471000,10173,11787993,-114,44,4380
1473,1.471999,10174,11788992,-108,60,4359
1474,1.472999,10175,11789992,-101,46,4342
1475,1.473999,10176,11790992,-105,39,4353
1476,1.475000,10177,11791993,-105,38,4365
1477,1.475999,10178,11792992,-117,23,4343
1478,1.477000,10179,11793993,-137,30,4345
1479,1.478000,10180,11794993,-119,37,4363
1480,1.479000,10181,11795993,-118,28,4362
1481,1.479999,10182,11796992,-138,27,4389
1482,1.481000,10183,11797993,-155,53,4387
1483,1.481999,10184,11798992,-160,40,4343
1484,1.482999,10185,11799992,-151,6,4373
1485,1.484000,10186,11800993,-161,23,4381
1486,1.484999,10187,11801992,-144,33,4395
1487,1.485999,10188,11802992,-137,38,4398
1488,1.486999,10189,11803992,-143,34,4359
1489,1.488000,10190,11804993,-151,41,4383
1490,1.489000,10191,11805993,-156,58,4387
1491,1.490000,10192,11806993,-144,64,4370
1492,1.491000,10193,11807993,-131,59,4363
1493,1.491999,10194,11808992,-124,31,4369
1494,1.493000,10195,11809993,-134,35,4370
1495,1.494000,10196,11810993,-155,61,4377
1496,1.495000,10197,11811993,-163,74,4384
1497,1.495999,10198,11812992,-147,52,4378
1498,1.497000,10199,11813993,-141,38,4406
1499,1.498000,10200,11814993,-143,42,4400
1500,1.499000,10201,11815993,-151,41,4383
1501,1.499999,10202,11816992,-144,44,4396
1502,1.501000,10203,11817993,-135,30,4394
1503,1.501999,10204,11818992,-152,29,4411
1504,1.503000,10205,11819993,-163,49,4407
1505,1.504000,10206,11820993,-158,56,4395
1506,1.505000,10207,11821993,-150,46,4406
1507,1.506000,10208,11822993,-154,41,4413
1508,1.507000,10209,11823993,-166,51,4407
1509,1.508000,10210,11824993,-171,48,4393
1510,1.509000,10211,11825993,-163,37,4366
1511,1.510000,10212,11826993,-139,31,4355
1512,1.511000,10213,11827993,-136,25,4335
1513,1.511999,10214,11828992,-146,36,4341
1514,1.513000,10215,11829993,-146,53,4383
1515,1.514000,10216,11830993,-127,61,4377
1516,1.515000,10217,11831993,-126,41,4382
1517,1.516000,10218,11832993,-131,33,4388
1518,1.516999,10219,11833992,-123,35,4368
1519,1.518000,10220,11834993,-142,39,4351
1520,1.519000,10221,11835993,-148,53,4376
1521,1.520000,10222,11836993,-139,47,4398
1522,1.521000,10223,11837993,-111,40,4392
1523,1.521999,10224,11838992,-113,42,4394
1524,1.522999,10225,11839992,-136,41,4395
1525,1.524000,10226,11840993,-130,34,4403
1526,1.525000,10227,11841993,-116,40,4390
1527,1.526000,10228,11842993,-107,40,4373
1528,1.527000,10229,11843993,-118,45,4358
1529,1.528000,10230,11844993,-125,62,4377
1530,1.529000,10231,11845993,-142,55,4405
1531,1.529999,10232,11846992,-134,41,4391
1532,1.531000,10233,11847993,-105,62,4365
1533,1.531999,10234,11848992,-102,62,4334
1534,1.533000,10235,11849993,-132,36,4346
1535,1.534000,10236,11850993,-134,44,4375
1536,1.535000,10237,11851993,-118,63,4346
1537,1.536000,10238,11852993,-127,71,4330
1538,1.537000,10239,11853993,-123,52,4359
1539,1.538000,10240,11854993,-124,41,4354
1540,1.539000,10241,11855993,-130,52,4337
1541,1.540000,10242,11856993,-136,53,4350
1542,1.541000,10243,11857993,-137,36,4386
1543,1.541999,10244,11858992,-124,31,4374
1544,1.542999,10245,11859992,-107,31,4362
1545,1.543999,10246,11860992,-111,29,4389
1546,1.544999,10247,11861992,-119,47,4388
1547,1.546000,10248,11862993,-125,35,4377
1548,1.547000,10249,11863993,-124,31,4382
1549,1.548000,10250,11864993,-116,49,4377
1550,1.549000,10251,11865993,-128,54,4359
1551,1.550000,10252,11866993,-153,43,4356
1552,1.550999,10253,11867992,-154,22,4378
1553,1.552000,10254,11868993,-163,23,4402
1554,1.552999,10255,11869992,-167,34,4393
1555,1.554000,10256,11870993,-157,26,4376
1556,1.555000,10257,11871993,-166,39,4396
1557,1.556000,10258,11872993,-159,66,4437
1558,1.557000,10259,11873993,-154,51,4433
1559,1.557999,10260,11874992,-152,42,4428
1560,1.559000,10261,11875993,-150,42,4441
1561,1.560000,10262,11876993,-161,48,4450
1562,1.560999,10263,11877992,-158,63,4460
1563,1.562000,10264,11878993,-162,49,4448
1564,1.563000,10265,11879993,-194,38,4421
1565,1.564000,10266,11880993,-206,44,4414
1566,1.565000,10267,11881993,-185,48,4426
1567,1.566000,10268,11882993,-164,34,4413
1568,1.567000,10269,11883993,-160,37,4408
1569,1.567999,10270,11884992,-154,56,4424
1570,1.569000,10271,11885993,-151,42,4429
1571,1.570000,10272,11886993,-174,44,4416
1572,1.571000,10273,11887993,-177,41,4387
1573,1.572000,10274,11888993,-149,15,4388
1574,1.573000,10275,11889993,-138,25,4390
1575,1.574000,10276,11890993,-148,36,4385
1576,1.575000,10277,11891993,-137,42,4366
1577,1.576000,10278,11892993,-129,56,4373
1578,1.577000,10279,11893993,-133,58,4383
1579,1.578000,10280,11894993,-126,41,4343
1580,1.579000,10281,11895993,-121,40,4325
1581,1.580000,10282,11896993,-122,31,4343
1582,1.581000,10283,11897993,-134,17,4355
1583,1.581999,10284,11898992,-139,27,4370
1584,1.583000,10285,11899993,-136,44,4388
1585,1.584000,10286,11900993,-131,61,4379
1586,1.585000,10287,11901993,-122,63,4377
1587,1.586000,10288,11902993,-115,63,4393
1588,1.587000,10289,11903993,-120,58,4394
1589,1.588000,10290,11904993,-113,65,4373
1590,1.589000,10291,11905993,-113,57,4374
1591,1.590000,10292,11906993,-124,36,4357
1592,1.591000,10293,11907993,-142,33,4354
1593,1.592000,10294,11908993,-145,21,4375
1594,1.593000,10295,11909993,-116,9,4364
1595,1.594000,10296,11910993,-119,21,4355
1596,1.595000,10297,11911993,-131,40,4357
1597,1.596000,10298,11912993,-129,43,4351
1598,1.597000,10299,11913993,-109,26,4365
1599,1.597999,10300,11914992,-94,25,4361
1600,1.599000,10301,11915993,-95,36,4339
1601,1.599999,10302,11916992,-94,39,4327
1602,1.601000,10303,11917993,-101,39,4322
1603,1.602000,10304,11918993,-108,45,4359
1604,1.602999,10305,11919992,-120,50,4370
1605,1.603999,10306,11920992,-131,62,4342
1606,1.604999,10307,11921992,-149,79,4365
1607,1.605999,10308,11922992,-162,77,4418
1608,1.606999,10309,11923992,-121,52,4432
1609,1.608000,10310,11924993,-103,49,4415
1610,1.608999,10311,11925992,-120,65,4424
1611,1.609999,10312,11926992,-130,65,4413
1612,1.611000,10313,11927993,-139,50,4406
1613,1.612000,10314,11928993,-125,41,4416
1614,1.613000,10315,11929993,-135,36,4352
1615,1.613999,10316,11930992,-161,26,4335
1616,1.614999,10317,11931992,-146,23,4366
1617,1.616000,10318,11932993,-108,9,4357
1618,1.617000,10319,11933993,-114,25,4347
1619,1.617999,10320,11934992,-120,37,4356
1620,1.619000,10321,11935993,-124,21,4372
1621,1.619999,10322,11936992,-140,15,4363
1622,1.621000,10323,11937993,-147,36,4339
1623,1.622000,10324,11938993,-143,31,4357
1624,1.623000,10325,11939993,-127,30,4385
1625,1.623999,10326,11940992,-143,33,4408
1626,1.625000,10327,11941993,-152,30,4432
1627,1.626000,10328,11942993,-145,58,4428
1628,1.627000,10329,11943993,-131,73,4421
1629,1.628000,10330,11944993,-152,65,4427
1630,1.629000,10331,11945993,-191,58,4434
1631,1.630000,10332,11946993,-192,50,4418
1632,1.630999,10333,11947992,-173,48,4415
1633,1.631999,10334,11948992,-150,56,4443
1634,1.633000,10335,11949993,-146,26,4419
1635,1.634000,10336,11950993,-161,16,4412
1636,1.634999,10337,11951992,-160,41,4437
1637,1.635999,10338,11952992,-163,53,4423
1638,1.637000,10339,11953993,-180,39,4399
1639,1.638000,10340,11954993,-182,21,4369
1640,1.639000,10341,11955993,-195,24,4382
1641,1.640000,10342,11956993,-193,34,4422
1642,1.641000,10343,11957993,-163,33,4415
1643,1.642000,10344,11958993,-163,30,4397
1644,1.642999,10345,11959992,-178,53,4409
1645,1.643999,10346,11960992,-183,65,4402
1646,1.644999,10347,11961992,-171,44,4400
1647,1.645999,10348,11962992,-169,34,4400
1648,1.646999,10349,11963992,-185,41,4411
1649,1.648000,10350,11964993,-169,34,4433
1650,1.648999,10351,11965992,-159,34,4414
1651,1.649999,10352,11966992,-169,47,4412
1652,1.651000,10353,11967993,-157,49,4426
1653,1.652000,10354,11968993,-125,53,4407
1654,1.653000,10355,11969993,-106,53,4383
1655,1.653999,10356,11970992,-111,59,4369
1656,1.655000,10357,11971993,-110,52,4345
1657,1.656000,10358,11972993,-113,33,4328
1658,1.656999,10359,11973992,-120,34,4346
1659,1.658000,10360,11974993,-119,40,4328
1660,1.659000,10361,11975993,-100,34,4318
1661,1.660000,10362,11976993,-79,26,4333
1662,1.660999,10363,11977992,-93,37,4328
1663,1.662000,10364,11978993,-114,34,4341
1664,1.663000,10365,11979993,-125,27,4345
1665,1.664000,10366,11980993,-118,16,4337
1666,1.665000,10367,11981993,-100,19,4331
1667,1.666000,10368,11982993,-116,50,4363
1668,1.667000,10369,11983993,-133,54,4405
1669,1.667999,10370,11984992,-116,53,4404
1670,1.669000,10371,11985993,-110,59,4401
1671,1.669999,10372,11986992,-115,58,4394
1672,1.671000,10373,11987993,-126,57,4390
1673,1.671999,10374,11988992,-123,55,4390
1674,1.672999,10375,11989992,-114,51,4361
1675,1.674000,10376,11990993,-141,55,4396
1676,1.675000,10377,11991993,-149,48,4419
1677,1.676000,10378,11992993,-131,47,4383
1678,1.677000,10379,11993993,-131,60,4369
1679,1.678000,10380,11994993,-125,45,4379
1680,1.679000,10381,11995993,-129,46,4381
1681,1.679999,10382,11996992,-140,41,4337
1682,1.681000,10383,11997993,-117,29,4324
1683,1.681999,10384,11998992,-88,32,4321
1684,1.682999,10385,11999992,-115,22,4327
1685,1.684000,10386,12000993,-139,26,4346
1686,1.684999,10387,12001992,-137,46,4360
1687,1.685999,10388,12002992,-160,51,4375
1688,1.687000,10389,12003993,-156,64,4361
1689,1.688000,10390,12004993,-163,81,4395
1690,1.689000,10391,12005993,-181,71,4444
1691,1.690000,10392,12006993,-157,66,4418
1692,1.690999,10393,12007992,-134,66,4405
1693,1.692000,10394,12008993,-124,60,4418
1694,1.693000,10395,12009993,-132,49,4393
1695,1.693999,10396,12010992,-143,45,4359
1696,1.695000,10397,12011993,-124,53,4346
1697,1.695999,10398,12012992,-105,44,4340
1698,1.697000,10399,12013993,-126,39,4359
1699,1.698000,10400,12014993,-132,32,4366
1700,1.699000,10401,12015993,-113,28,4366
1701,1.700000,10402,12016993,-112,32,4363
1702,1.700999,10403,12017992,-122,29,4358
1703,1.701999,10404,12018992,-136,30,4382
1704,1.703000,10405,12019993,-142,32,4388
1705,1.704000,10406,12020993,-122,37,4367
1706,1.705000,10407,12021993,-128,43,4383
1707,1.705999,10408,12022992,-138,39,4401
1708,1.706999,10409,12023992,-132,37,4392
1709,1.708000,10410,12024993,-149,41,4405
1710,1.708999,10411,12025992,-168,39,4427
1711,1.710000,10412,12026993,-162,35,4441
1712,1.711000,10413,12027993,-126,20,4417
1713,1.712000,10414,12028993,-134,41,4411
1714,1.712999,10415,12029992,-150,43,4423
1715,1.713999,10416,12030992,-148,11,4427
1716,1.715000,10417,12031993,-162,22,4423
1717,1.715999,10418,12032992,-175,50,4409
1718,1.717000,10419,12033993,-166,47,4410
1719,1.718000,10420,12034993,-155,32,4401
1720,1.719000,10421,12035993,-174,20,4409
1721,1.720000,10422,12036993,-163,11,4388
1722,1.721000,10423,12037993,-140,21,4357
1723,1.722000,10424,12038993,-152,50,4380
1724,1.723000,10425,12039993,-156,57,4383
1725,1.724000,10426,12040993,-136,30,4370
1726,1.725000,10427,12041993,-124,18,4362
1727,1.726000,10428,12042993,-121,35,4358
1728,1.727000,10429,12043993,-100,47,4331
1729,1.728000,10430,12044993,-74,52,4313
1730,1.729000,10431,12045993,-68,46,4332
1731,1.730000,10432,12046993,-70,28,4347
1732,1.731000,10433,12047993,-89,12,4345
1733,1.732000,10434,12048993,-101,13,4325
1734,1.733000,10435,12049993,-110,42,4335
1735,1.734000,10436,12050993,-116,70,4330
1736,1.735000,10437,12051993,-112,59,4351
1737,1.736000,10438,12052993,-122,41,4396
1738,1.737000,10439,12053993,-129,53,4401
1739,1.738000,10440,12054993,-140,39,4423
1740,1.738999,10441,12055992,-143,29,4422
1741,1.740000,10442,12056993,-130,40,4391
1742,1.741000,10443,12057993,-121,42,4349
1743,1.741999,10444,12058992,-143,46,4354
1744,1.743000,10445,12059993,-155,30,4395
1745,1.744000,10446,12060993,-152,14,4397
1746,1.744999,10447,12061992,-191,22,4412
1747,1.745999,10448,12062992,-206,29,4419
1748,1.747000,10449,12063993,-181,32,4399
1749,1.748000,10450,12064993,-174,30,4391
1750,1.749000,10451,12065993,-175,42,4405
1751,1.750000,10452,12066993,-179,56,4425
1752,1.751000,10453,12067993,-186,53,4425
1753,1.751999,10454,12068992,-180,44,4434
1754,1.752999,10455,12069992,-163,47,4421
1755,1.754000,10456,12070993,-134,53,4379
1756,1.755000,10457,12071993,-142,49,4389
1757,1.756000,10458,12072993,-180,45,4404
1758,1.757000,10459,12073993,-177,39,4380
1759,1.758000,10460,12074993,-161,26,4387
1760,1.759000,10461,12075993,-134,37,4377
1761,1.759999,10462,12076992,-118,56,4373
1762,1.761000,10463,12077993,-112,50,4387
1763,1.762000,10464,12078993,-99,38,4358
1764,1.763000,10465,12079993,-102,29,4333
1765,1.764000,10466,12080993,-98,42,4331
1766,1.765000,10467,12081993,-90,38,4330
1767,1.766000,10468,12082993,-98,39,4325
1768,1.767000,10469,12083993,-102,25,4318
1769,1.768000,10470,12084993,-105,10,4341
1770,1.769000,10471,12085993,-117,13,4340
1771,1.770000,10472,12086993,-126,15,4335
1772,1.771000,10473,12087993,-132,21,4375
1773,1.772000,10474,12088993,-135,27,4362
1774,1.772999,10475,12089992,-126,45,4364
1775,1.774000,10476,12090993,-124,58,4407
1776,1.774999,10477,12091992,-150,63,4446
1777,1.776000,10478,12092993,-159,56,4466
1778,1.776999,10479,12093992,-165,51,4433
1779,1.777999,10480,12094992,-165,59,4408
1780,1.778999,10481,12095992,-155,63,4397
1781,1.780000,10482,12096993,-159,65,4387
1782,1.781000,10483,12097993,-164,71,4378
1783,1.781999,10484,12098992,-177,67,4385
1784,1.782999,10485,12099992,-172,52,4397
1785,1.784003,10486,12100996,-160,42,4398
1786,1.785000,10487,12101993,-169,42,4389
1787,1.786000,10488,12102993,-168,43,4386
1788,1.787000,10489,12103993,-164,42,4368
1789,1.788000,10490,12104993,-148,24,4359
1790,1.789000,10491,12105993,-141,41,4402
1791,1.790000,10492,12106993,-166,69,4437
1792,1.791000,10493,12107993,-167,43,4427
1793,1.791999,10494,12108992,-144,30,4375
1794,1.793000,10495,12109993,-132,30,4359
1795,1.794000,10496,12110993,-127,30,4373
1796,1.794999,10497,12111992,-128,52,4379
1797,1.796000,10498,12112993,-148,37,4391
1798,1.796999,10499,12113992,-130,10,4388
1799,1.797999,10500,12114992,-81,10,4372
1800,1.799000,10501,12115993,-89,28,4357
1801,1.800000,10502,12116993,-94,54,4351
1802,1.801000,10503,12117993,-80,38,4360
1803,1.801999,10504,12118992,-87,11,4347
1804,1.803000,10505,12119993,-91,19,4338
1805,1.804000,10506,12120993,-123,24,4332
1806,1.805000,10507,12121993,-120,22,4354
1807,1.806000,10508,12122993,-108,22,4379
1808,1.807000,10509,12123993,-119,18,4353
1809,1.808000,10510,12124993,-124,30,4337
1810,1.809000,10511,12125993,-145,36,4339
1811,1.810000,10512,12126993,-172,28,4343
1812,1.810999,10513,12127992,-159,41,4400
1813,1.812000,10514,12128993,-138,52,4413
1814,1.813000,10515,12129993,-156,52,4369
1815,1.814000,10516,12130993,-157,50,4387
1816,1.815000,10517,12131993,-130,35,4379
1817,1.816000,10518,12132993,-121,37,4360
1818,1.817000,10519,12133993,-151,45,4346
1819,1.817999,10520,12134992,-141,25,4332
1820,1.819000,10521,12135993,-108,9,4369
1821,1.819999,10522,12136992,-114,11,4401
1822,1.821000,10523,12137993,-125,11,4391
1823,1.822000,10524,12138993,-123,10,4362
1824,1.823000,10525,12139993,-131,28,4373
1825,1.823999,10526,12140992,-143,44,4388
1826,1.824999,10527,12141992,-138,61,4372
1827,1.825999,10528,12142992,-144,92,4368
1828,1.827000,10529,12143993,-150,87,4391
1829,1.828000,10530,12144993,-128,61,4387
1830,1.829000,10531,12145993,-110,52,4353
1831,1.829999,10532,12146992,-113,51,4348
1832,1.831000,10533,12147993,-132,53,4375
1833,1.831999,10534,12148992,-117,35,4405
1834,1.833000,10535,12149993,-119,23,4387
1835,1.833999,10536,12150992,-143,36,4410
1836,1.834999,10537,12151992,-125,27,4423
1837,1.836000,10538,12152993,-122,21,4380
1838,1.837000,10539,12153993,-140,40,4382
1839,1.838000,10540,12154993,-152,51,4388
1840,1.839000,10541,12155993,-150,41,4387
1841,1.839999,10542,12156992,-137,26,4373
1842,1.840999,10543,12157992,-108,26,4365
1843,1.841999,10544,12158992,-102,29,4390
1844,1.843000,10545,12159993,-121,24,4388
1845,1.844000,10546,12160993,-129,27,4346
1846,1.844999,10547,12161992,-118,28,4354
1847,1.845999,10548,12162992,-118,15,4372
1848,1.847000,10549,12163993,-129,5,4358
1849,1.848000,10550,12164993,-121,17,4343
1850,1.848999,10551,12165992,-129,37,4355
1851,1.849999,10552,12166992,-130,54,4399
1852,1.851000,10553,12167993,-136,57,4414
1853,1.851999,10554,12168992,-143,36,4425
1854,1.852999,10555,12169992,-152,28,4433
1855,1.854000,10556,12170993,-140,39,4415
1856,1.855000,10557,12171993,-129,54,4417
1857,1.856000,10558,12172993,-159,60,4448
1858,1.857000,10559,12173993,-157,68,4440
1859,1.858000,10560,12174993,-155,67,4422
1860,1.859000,10561,12175993,-160,57,4406
1861,1.860000,10562,12176993,-149,54,4368
1862,1.860999,10563,12177992,-138,41,4380
1863,1.862000,10564,12178993,-149,32,4393
1864,1.863000,10565,12179993,-151,42,4388
1865,1.864000,10566,12180993,-140,38,4384
1866,1.864999,10567,12181992,-130,35,4372
1867,1.866000,10568,12182993,-134,49,4388
1868,1.867000,10569,12183993,-149,38,4373
1869,1.868000,10570,12184993,-143,33,4345
1870,1.869000,10571,12185993,-132,40,4336
1871,1.870000,10572,12186993,-113,27,4358
1872,1.870999,10573,12187992,-122,27,4366
1873,1.871999,10574,12188992,-128,38,4355
1874,1.873000,10575,12189993,-128,47,4360
1875,1.874000,10576,12190993,-126,53,4380
1876,1.875000,10577,12191993,-97,45,4387
1877,1.876000,10578,12192993,-104,39,4385
1878,1.877000,10579,12193993,-125,28,4402
1879,1.878000,10580,12194993,-128,42,4374
1880,1.878999,10581,12195992,-125,55,4351
1881,1.879999,10582,12196992,-151,60,4359
1882,1.881000,10583,12197993,-171,51,4387
1883,1.882000,10584,12198993,-146,32,4407
1884,1.882999,10585,12199992,-141,37,4414
1885,1.884000,10586,12200993,-155,46,4439
1886,1.885000,10587,12201993,-163,54,4433
1887,1.885999,10588,12202992,-142,54,4372
1888,1.887000,10589,12203993,-142,38,4332
1889,1.888000,10590,12204993,-140,20,4349
1890,1.888999,10591,12205992,-142,24,4377
1891,1.890000,10592,12206993,-160,35,4388
1892,1.890999,10593,12207992,-151,40,4386
1893,1.891999,10594,12208992,-147,27,4402
1894,1.893000,10595,12209993,-161,21,4419
1895,1.894000,10596,12210993,-148,32,4405
1896,1.894999,10597,12211992,-143,35,4418
1897,1.896000,10598,12212993,-180,53,4420
1898,1.896999,10599,12213992,-176,65,4411
1899,1.898000,10600,12214993,-134,48,4401
1900,1.898999,10601,12215992,-114,53,4401
1901,1.900000,10602,12216993,-125,58,4423
1902,1.901000,10603,12217993,-114,53,4412
1903,1.902000,10604,12218993,-113,57,4385
1904,1.903000,10605,12219993,-127,51,4387
1905,1.903999,10606,12220992,-101,42,4391
1906,1.904999,10607,12221992,-102,44,4370
1907,1.906000,10608,12222993,-128,46,4378
1908,1.907000,10609,12223993,-112,46,4385
1909,1.908000,10610,12224993,-110,54,4373
1910,1.908999,10611,12225992,-140,51,4371
1911,1.910000,10612,12226993,-147,49,4369
1912,1.911000,10613,12227993,-137,25,4365
1913,1.912000,10614,12228993,-156,7,4380
1914,1.913000,10615,12229993,-161,19,4367
1915,1.914000,10616,12230993,-120,25,4372
1916,1.914999,10617,12231992,-111,34,4379
1917,1.916000,10618,12232993,-129,37,4350
1918,1.917000,10619,12233993,-114,41,4338
1919,1.917999,10620,12234992,-107,41,4335
1920,1.918999,10621,12235992,-128,28,4353
1921,1.920000,10622,12236993,-122,22,4360
1922,1.921000,10623,12237993,-101,18,4318
1923,1.922000,10624,12238993,-113,17,4305
1924,1.923000,10625,12239993,-124,29,4335
1925,1.924000,10626,12240993,-102,30,4330
1926,1.925000,10627,12241993,-103,32,4297
1927,1.926000,10628,12242993,-94,24,4298
1928,1.926999,10629,12243992,-64,21,4303
1929,1.927999,10630,12244992,-86,34,4308
1930,1.928999,10631,12245992,-105,41,4314
1931,1.930000,10632,12246993,-104,50,4317
1932,1.931000,10633,12247993,-123,49,4357
1933,1.932000,10634,12248993,-126,56,4396
1934,1.932999,10635,12249992,-108,53,4399
1935,1.933999,10636,12250992,-122,61,4377
1936,1.935000,10637,12251993,-135,75,4384
1937,1.935999,10638,12252992,-136,45,4411
1938,1.937000,10639,12253993,-134,34,4419
1939,1.938000,10640,12254993,-135,45,4418
1940,1.939000,10641,12255993,-126,42,4425
1941,1.939999,10642,12256992,-151,55,4426
1942,1.941000,10643,12257993,-163,60,4432
1943,1.941999,10644,12258992,-136,51,4415
1944,1.942999,10645,12259992,-145,39,4404
1945,1.944000,10646,12260993,-156,41,4429
1946,1.944999,10647,12261992,-171,35,4416
1947,1.946000,10648,12262993,-185,19,4392
1948,1.947000,10649,12263993,-177,29,4404
1949,1.947999,10650,12264992,-174,42,4422
1950,1.949000,10651,12265993,0,0,0
1951,1.949999,10652,12266992,-166,48,4405
1952,1.951000,10653,12267993,-154,44,4417
1953,1.952000,10654,12268993,-180,55,4408
1954,1.953000,10655,12269993,-170,26,4326
1955,1.954000,10656,12270993,-291,-32,4264
1956,1.955000,10657,12271993,-515,-3,4338
1957,1.956000,10658,12272993,-283,19,4457
1958,1.957000,10659,12273993,44,2,4454
1959,1.957999,10660,12274992,-23,33,4398
1960,1.959000,10661,12275993,-139,107,4467
1961,1.960000,10662,12276993,-115,114,4564
1962,1.960999,10663,12277992,-46,76,4528
1963,1.962000,10664,12278993,-68,62,4427
1964,1.962999,10665,12279992,-179,44,4382
1965,1.964000,10666,12280993,-149,29,4393
1966,1.964999,10667,12281992,6,38,4403
1967,1.965999,10668,12282992,101,28,4336
1968,1.967000,10669,12283993,118,-22,4248
1969,1.968000,10670,12284993,31,-15,4282
1970,1.968999,10671,12285992,-102,22,4346
1971,1.970000,10672,12286993,-179,19,4323
1972,1.970999,10673,12287992,-125,7,4326
1973,1.971999,10674,12288992,-52,43,4409
1974,1.973000,10675,12289993,-100,76,4460
1975,1.974000,10676,12290993,-217,67,4434
1976,1.975000,10677,12291993,-267,61,4372
1977,1.976000,10678,12292993,-233,53,4361
1978,1.977000,10679,12293993,-234,41,4371
1979,1.978000,10680,12294993,-229,21,4315
1980,1.979000,10681,12295993,-206,-3,4282
1981,1.979999,10682,12296992,-96,6,4385
1982,1.980999,10683,12297992,78,22,4458
1983,1.982000,10684,12298993,92,29,4428
1984,1.983000,10685,12299993,-48,49,4416
1985,1.983999,10686,12300992,-147,71,4437
1986,1.985000,10687,12301993,-160,66,4478
1987,1.986000,10688,12302993,-165,57,4451
1988,1.986999,10689,12303992,-95,58,4416
1989,1.988000,10690,12304993,-56,86,4466
1990,1.989000,10691,12305993,-51,115,4502
1991,1.990000,10692,12306993,-19,87,4388
1992,1.991000,10693,12307993,-64,20,4187
1993,1.992000,10694,12308993,-137,-5,4156
1994,1.993000,10695,12309993,-94,21,4296
1995,1.994000,10696,12310993,-55,25,4369
1996,1.994999,10697,12311992,-69,13,4321
1997,1.996000,10698,12312993,4,21,4314
1998,1.997000,10699,12313993,-31,38,4399
1999,1.998000,10700,12314993,-137,58,4492
2000,1.999000,10701,12315993,-194,88,4493
2001,2.000000,10702,12316993,-261,66,4375
2002,2.001000,10703,12317993,-285,20,4257
2003,2.002000,10704,12318993,-201,45,4276
2004,2.003000,10705,12319993,-195,66,4396
2005,2.004000,10706,12320993,-115,20,4427
2006,2.005000,10707,12321993,-75,-26,4337
2007,2.006000,10708,12322993,-192,-23,4372
2008,2.007000,10709,12323993,-212,35,4543
2009,2.008000,10710,12324993,-256,45,4513
2010,2.008999,10711,12325992,-297,-19,4314
2011,2.010000,10712,12326993,-339,1,4296
2012,2.010999,10713,12327992,-330,85,4472
2013,2.012000,10714,12328993,-344,60,4448
2014,2.013000,10715,12329993,-384,-4,4268
2015,2.014000,10716,12330993,-343,-18,4287
2016,2.014999,10717,12331992,-305,14,4407
2017,2.016000,10718,12332993,-385,41,4447
2018,2.017000,10719,12333993,-229,5,4372
2019,2.017999,10720,12334992,-241,15,4328
2020,2.019000,10721,12335993,-386,28,4413
2021,2.020000,10722,12336993,-88,-9,4453
2022,2.021000,10723,12337993,-174,-9,4347
2023,2.022000,10724,12338993,-449,11,4259
2024,2.023000,10725,12339993,-164,35,4396
2025,2.024000,10726,12340993,-78,79,4564
2026,2.025000,10727,12341993,-249,45,4362
2027,2.026000,10728,12342993,-133,-23,4175
2028,2.027000,10729,12343993,1,-10,4359
2029,2.027999,10730,12344992,115,29,4413
2030,2.028999,10731,12345992,55,28,4367
2031,2.029999,10732,12346992,13,15,4448
2032,2.031000,10733,12347993,117,32,4392
2033,2.031999,10734,12348992,17,27,4328
2034,2.033000,10735,12349993,-13,52,4424
2035,2.034000,10736,12350993,184,93,4393
2036,2.034999,10737,12351992,225,46,4265
2037,2.036000,10738,12352993,-36,42,4305
2038,2.037000,10739,12353993,250,69,4326
2039,2.038000,10740,12354993,426,9,4278
2040,2.038999,10741,12355992,126,19,4343
2041,2.040000,10742,12356993,526,101,4472
2042,2.040999,10743,12357992,441,106,4579
2043,2.041999,10744,12358992,-28,115,4558
2044,2.043000,10745,12359993,331,127,4475
2045,2.044000,10746,12360993,147,78,4417
2046,2.045000,10747,12361993,-146,107,4404
2047,2.045999,10748,12362992,495,164,4499
2048,2.047000,10749,12363993,58,203,4532
2049,2.048000,10750,12364993,-231,181,4385
2050,2.048999,10751,12365992,294,137,4350
2051,2.049999,10752,12366992,-64,230,4586
2052,2.050999,10753,12367992,10,223,4630
2053,2.052000,10754,12368993,-319,147,4353
2054,2.052999,10755,12369992,-950,125,4235
2055,2.054000,10756,12370993,-173,117,4312
2056,2.055000,10757,12371993,-6,192,4501
2057,2.055999,10758,12372992,-106,143,4545
2058,2.057000,10759,12373993,32,78,4325
2059,2.058000,10760,12374993,-508,117,4357
2060,2.059000,10761,12375993,-326,50,4552
2061,2.059999,10762,12376992,-793,-27,4416
2062,2.061000,10763,12377993,-1014,-247,3865
2063,2.062000,10764,12378993,-400,-435,3531
2064,2.063000,10765,12379993,-389,-419,3683
2065,2.064000,10766,12380993,-364,-376,3804
2066,2.065000,10767,12381993,-800,-333,3869
2067,2.066000,10768,12382993,-1029,-340,3922
2068,2.067000,10769,12383993,-1245,-256,4300
2069,2.068000,10770,12384993,-1881,-55,4809
2070,2.069000,10771,12385993,-1770,-43,4706
2071,2.070000,10772,12386993,-1770,-70,4546
2072,2.071000,10773,12387993,-1374,34,4708
2073,2.071999,10774,12388992,-735,90,4753
2074,2.073000,10775,12389993,-675,95,4662
2075,2.074000,10776,12390993,191,52,4631
2076,2.074999,10777,12391992,501,53,4778
2077,2.076000,10778,12392993,-102,70,4861
2078,2.076999,10779,12393992,-231,-38,4640
2079,2.078000,10780,12394993,-298,-118,4416
2080,2.079000,10781,12395993,-108,-81,4296
2081,2.080000,10782,12396993,636,-100,4210
2082,2.081000,10783,12397993,943,-98,4146
2083,2.081999,10784,12398992,756,126,4199
2084,2.083000,10785,12399993,1966,302,4635
2085,2.084000,10786,12400993,3122,299,5011
2086,2.085000,10787,12401993,2083,302,4922
2087,2.086000,10788,12402993,1156,301,4709
2088,2.087000,10789,12403993,1085,399,4767
2089,2.087999,10790,12404992,818,453,4881
2090,2.088999,10791,12405992,702,444,4470
2091,2.089999,10792,12406992,654,554,4077
2092,2.091000,10793,12407993,1027,564,4156
2093,2.091999,10794,12408992,1680,612,4222
2094,2.093000,10795,12409993,1374,805,4275
2095,2.094000,10796,12410993,1119,795,4362
2096,2.095000,10797,12411993,730,788,4337
2097,2.096000,10798,12412993,-731,958,4479
2098,2.096999,10799,12413992,-1455,971,4767
2099,2.098000,10800,12414993,-1357,745,4606
2100,2.099000,10801,12415993,-2922,453,4051
2101,2.100000,10802,12416993,-3243,168,3692
2102,2.101000,10803,12417993,-1139,-257,3477
2103,2.102000,10804,12418993,66,-1003,3205
2104,2.103000,10805,12419993,2298,-1740,2878
2105,2.103999,10806,12420992,3056,-2213,2716
2106,2.105000,10807,12421993,232,-2317,2878
2107,2.105999,10808,12422992,-849,-1910,3396
2108,2.107000,10809,12423993,-2602,-1174,4264
2109,2.108000,10810,12424993,-5794,-533,4739
2110,2.109000,10811,12425993,-6762,-35,4895
2111,2.109999,10812,12426992,-7051,361,5180
2112,2.111000,10813,12427993,-5431,460,5140
2113,2.112000,10814,12428993,-2399,393,4991
2114,2.113000,10815,12429993,-1220,257,4808
2115,2.113999,10816,12430992,-437,-3,4259
2116,2.114999,10817,12431992,1144,-334,4039
2117,2.115999,10818,12432992,2496,-481,4558
2118,2.117000,10819,12433993,3233,-461,5323
2119,2.118000,10820,12434993,2311,-254,6034
2120,2.119000,10821,12435993,1137,-65,6524
2121,2.119999,10822,12436992,958,84,6670
2122,2.120999,10823,12437992,2619,457,6872
2123,2.122000,10824,12438993,4680,584,7041
2124,2.123000,10825,12439993,2448,611,6155
2125,2.123999,10826,12440992,-711,735,4338
2126,2.125000,10827,12441993,114,792,3243
2127,2.126000,10828,12442993,2847,899,3011
2128,2.127000,10829,12443993,4053,883,2396
2129,2.128000,10830,12444993,2518,911,1728
2130,2.129000,10831,12445993,701,1091,1910
2131,2.130000,10832,12446993,1693,1130,2726
2132,2.131000,10833,12447993,2697,1254,3524
2133,2.131999,10834,12448992,1132,1472,4117
2134,2.133000,10835,12449993,-1259,1437,4446
2135,2.134000,10836,12450993,-3207,1359,4489
2136,2.135000,10837,12451993,-4731,1355,4671
2137,2.136000,10838,12452993,-4373,1189,4898
2138,2.137000,10839,12453993,-1168,538,4342
2139,2.137999,10840,12454992,115,-547,3423
2140,2.139000,10841,12455993,1850,-2063,2439
2141,2.139999,10842,12456992,8362,-3551,1643
2142,2.140999,10843,12457992,7739,-4047,2118
2143,2.142000,10844,12458993,1980,-3249,3413
2144,2.143000,10845,12459993,-1342,-1732,5095
2145,2.144000,10846,12460993,-6879,-563,6576
2146,2.145000,10847,12461993,-10199,-22,6927
2147,2.145999,10848,12462992,-12625,427,6108
2148,2.147000,10849,12463993,-14448,588,4508
2149,2.147999,10850,12464992,-7802,157,3303
2150,2.149000,10851,12465993,-300,-10,3141
2151,2.150000,10852,12466993,604,12,2990
2152,2.151000,10853,12467993,1595,-524,2454
2153,2.151999,10854,12468992,4236,-909,3407
2154,2.153000,10855,12469993,5358,-600,6275
2155,2.154000,10856,12470993,5574,-319,8272
2156,2.154999,10857,12471992,3645,-176,8921
2157,2.155999,10858,12472992,6,352,9643
2158,2.156999,10859,12473992,181,1038,10029
2159,2.157999,10860,12474992,2997,1305,9139
2160,2.159000,10861,12475993,2929,1238,6983
2161,2.159999,10862,12476992,1494,1206,4496
2162,2.161000,10863,12477993,667,1177,2337
2163,2.162000,10864,12478993,1354,1034,914
2164,2.162999,10865,12479992,3939,972,401
2165,2.164000,10866,12480993,4748,973,258
2166,2.165000,10867,12481993,2274,1059,352
2167,2.165999,10868,12482992,-244,1197,830
2168,2.166999,10869,12483992,-712,1247,1594
2169,2.168000,10870,12484993,-1013,1368,2929
2170,2.169000,10871,12485993,-4112,1701,4355
2171,2.169999,10872,12486992,-5035,1706,4666
2172,2.171000,10873,12487993,-2317,1160,4083
2173,2.171999,10874,12488992,-1787,737,4260
2174,2.173000,10875,12489993,-127,335,5067
2175,2.174000,10876,12490993,2381,-957,4721
2176,2.174999,10877,12491992,6920,-3300,2282
2177,2.176000,10878,12492993,14270,-4688,1105
2178,2.177000,10879,12493993,8581,-4455,1808
2179,2.178000,10880,12494993,-3234,-3175,2804
2180,2.178999,10881,12495992,-8742,-1430,5690
2181,2.179999,10882,12496992,-14095,-107,8315
2182,2.181000,10883,12497993,-15750,380,7738
2183,2.182000,10884,12498993,-15246,131,5445
2184,2.182999,10885,12499992,-12026,144,4241
2185,2.184000,10886,12500993,-2583,401,4536
2186,2.185000,10887,12501993,4614,348,4930
2187,2.186000,10888,12502993,5447,25,3808
2188,2.187000,10889,12503993,4852,-527,2677
2189,2.188000,10890,12504993,5944,-616,4589
2190,2.189000,10891,12505993,7860,-211,7690
2191,2.190000,10892,12506993,6183,63,9085
2192,2.191000,10893,12507993,-39,495,9420
2193,2.192000,10894,12508993,-1362,1068,9926
2194,2.193000,10895,12509993,1663,1714,9796
2195,2.193999,10896,12510992,2399,1923,7826
2196,2.195000,10897,12511993,1641,1641,4711
2197,2.196000,10898,12512993,-645,1491,2096
2198,2.196999,10899,12513992,-942,1467,903
2199,2.198000,10900,12514993,2601,1306,668
2200,2.198999,10901,12515992,3650,1045,624
2201,2.199999,10902,12516992,1975,923,394
2202,2.200999,10903,12517992,1098,884,263
2203,2.201999,10904,12518992,229,870,1187
2204,2.203000,10905,12519993,-3161,1218,2649
2205,2.203999,10906,12520992,-4488,1362,2934
2206,2.205000,10907,12521993,-744,598,2469
2207,2.206000,10908,12522993,2120,63,3229
2208,2.206999,10909,12523992,3558,-192,4991
2209,2.208000,10910,12524993,4467,-1420,5112
2210,2.209000,10911,12525993,8254,-3353,3079
2211,2.210000,10912,12526993,11335,-4685,1360
2212,2.211000,10913,12527993,5522,-4257,1585
2213,2.212000,10914,12528993,-6092,-2644,3009
2214,2.213000,10915,12529993,-15405,-932,5223
2215,2.213999,10916,12530992,-18456,87,6873
2216,2.214999,10917,12531992,-18231,112,6025
2217,2.216000,10918,12532993,-16437,164,4277
2218,2.217000,10919,12533993,-9281,306,4470
2219,2.217999,10920,12534992,171,416,5994
2220,2.218999,10921,12535992,4849,504,6324
2221,2.220000,10922,12536993,6620,88,5572
2222,2.220999,10923,12537992,8368,-293,5936
2223,2.222000,10924,12538993,9199,-164,7935
2224,2.223000,10925,12539993,8177,116,9351
2225,2.224000,10926,12540993,4460,374,9290
2226,2.225000,10927,12541993,-478,855,9062
2227,2.225999,10928,12542992,121,1458,8836
2228,2.227000,10929,12543993,2800,1825,7566
2229,2.227999,10930,12544992,987,1806,4990
2230,2.229000,10931,12545993,-1295,1649,2329
2231,2.230000,10932,12546993,-1545,1656,992
2232,2.231000,10933,12547993,260,1492,707
2233,2.232000,10934,12548993,1925,1234,691
2234,2.233000,10935,12549993,1352,1147,764
2235,2.233999,10936,12550992,1504,848,744
2236,2.235000,10937,12551993,1966,695,1132
2237,2.236000,10938,12552993,-1780,1090,2420
2238,2.237000,10939,12553993,-4430,1277,3005
2239,2.238000,10940,12554993,-1287,648,2163
2240,2.239000,10941,12555993,2551,-120,2449
2241,2.239999,10942,12556992,4928,-422,4309
2242,2.241000,10943,12557993,5577,-1186,5060
2243,2.242000,10944,12558993,8364,-3265,3135
2244,2.243000,10945,12559993,13447,-4652,1636
2245,2.244000,10946,12560993,8272,-4394,1880
2246,2.244999,10947,12561992,-3816,-3316,2426
2247,2.245999,10948,12562992,-13364,-1491,4374
2248,2.247000,10949,12563993,-19622,-198,6634
2249,2.248000,10950,12564993,-20220,191,6661
2250,2.249000,10951,12565993,-18061,208,4825
2251,2.249999,10952,12566992,-12375,186,4150
2252,2.251000,10953,12567993,-2897,490,5469
2253,2.252000,10954,12568993,3683,663,6434
2254,2.252999,10955,12569992,6093,359,5929
2255,2.254000,10956,12570993,7678,38,5873
2256,2.255000,10957,12571993,9611,-39,7731
2257,2.256000,10958,12572993,9536,198,9542
2258,2.256999,10959,12573992,5901,494,9777
2259,2.258000,10960,12574993,524,907,9646
2260,2.259000,10961,12575993,125,1592,9566
2261,2.259999,10962,12576992,2705,2005,8273
2262,2.260999,10963,12577992,1032,1911,5369
2263,2.261999,10964,12578992,-1483,1719,2367
2264,2.262999,10965,12579992,-1772,1703,870
2265,2.264000,10966,12580993,-667,1545,489
2266,2.265000,10967,12581993,337,1275,247
2267,2.266000,10968,12582993,828,1113,267
2268,2.266999,10969,12583992,1421,838,424
2269,2.268000,10970,12584993,1770,748,1045
2270,2.268999,10971,12585992,-1725,1088,2175
2271,2.270000,10972,12586993,-3775,1110,2136
2272,2.271000,10973,12587993,-299,420,1429
2273,2.272000,10974,12588993,3102,-101,2484
2274,2.273000,10975,12589993,5385,-354,4567
2275,2.274000,10976,12590993,6405,-1352,4903
2276,2.275000,10977,12591993,9909,-3387,3150
2277,2.276000,10978,12592993,14322,-4767,2083
2278,2.277000,10979,12593993,7766,-4469,2311
2279,2.277999,10980,12594992,-5147,-3329,2462
2280,2.279000,10981,12595993,-14252,-1771,3963
2281,2.279999,10982,12596992,-20183,-437,6246
2282,2.281000,10983,12597993,-20807,35,6366
2283,2.282000,10984,12598993,-17890,60,4691
2284,2.282999,10985,12599992,-11704,127,4092
2285,2.284000,10986,12600993,-2385,419,5511
2286,2.285000,10987,12601993,4029,722,6728
2287,2.286000,10988,12602993,6868,492,6523
2288,2.287000,10989,12603993,8687,149,6623
2289,2.287999,10990,12604992,9463,192,8481
2290,2.289000,10991,12605993,8245,375,9925
2291,2.290000,10992,12606993,4904,621,9724
2292,2.290999,10993,12607992,1393,1203,9919
2293,2.291999,10994,12608992,1769,1896,10023
2294,2.293000,10995,12609993,1811,2181,7868
2295,2.294000,10996,12610993,-783,1935,4221
2296,2.295000,10997,12611993,-1910,1750,1721
2297,2.295999,10998,12612992,-1330,1846,1013
2298,2.297000,10999,12613993,-359,1612,795
2299,2.297999,11000,12614992,-478,1298,302
2300,2.299000,11001,12615993,196,1096,222
2301,2.300000,11002,12616993,2031,689,643
2302,2.301000,11003,12617993,631,828,1535
2303,2.302000,11004,12618993,-3276,1311,2404
2304,2.303000,11005,12619993,-2045,827,1615
2305,2.303999,11006,12620992,1673,47,1037
2306,2.305000,11007,12621993,3902,-175,2825
2307,2.306000,11008,12622993,5719,-607,4579
2308,2.307000,11009,12623993,8410,-2362,3787
2309,2.307999,11010,12624992,14424,-4051,2691
2310,2.308999,11011,12625992,12412,-4772,2118
2311,2.309999,11012,12626992,2049,-4318,1959
2312,2.311000,11013,12627993,-9446,-2669,3050
2313,2.311999,11014,12628992,-18777,-1202,4909
2314,2.313000,11015,12629993,-20461,-240,6356
2315,2.314000,11016,12630993,-19591,-63,5451
2316,2.315000,11017,12631993,-16927,39,3992
2317,2.316000,11018,12632993,-7623,251,4611
2318,2.317000,11019,12633993,1561,419,6230
2319,2.318000,11020,12634993,4966,662,6688
2320,2.319000,11021,12635993,7567,495,6691
2321,2.320000,11022,12636993,10387,131,8017
2322,2.321000,11023,12637993,9180,276,9627
2323,2.322000,11024,12638993,5975,510,9757
2324,2.323000,11025,12639993,3302,890,9654
2325,2.324000,11026,12640993,2537,1671,10262
2326,2.324999,11027,12641992,2763,2134,9253
2327,2.325999,11028,12642992,-301,2083,5633
2328,2.327000,11029,12643993,-2592,1834,2246
2329,2.328000,11030,12644993,-1042,1821,1210
2330,2.329000,11031,12645993,218,1778,1110
2331,2.330000,11032,12646993,-922,1483,540
2332,2.330999,11033,12647992,-882,1135,77
2333,2.331999,11034,12648992,668,750,56
2334,2.333000,11035,12649993,1810,636,1105
2335,2.333999,11036,12650992,-1291,1129,2551
2336,2.335000,11037,12651993,-2832,1036,1982
2337,2.336000,11038,12652993,381,111,568
2338,2.337000,11039,12653993,2878,-256,1627
2339,2.338000,11040,12654993,5599,-385,4163
2340,2.339000,11041,12655993,7935,-1550,4534
2341,2.340000,11042,12656993,12118,-3539,2913
2342,2.340999,11043,12657992,14547,-4691,2060
2343,2.342000,11044,12658993,6143,-4275,2423
2344,2.343000,11045,12659993,-7483,-3053,2749
2345,2.343999,11046,12660992,-15704,-1546,4444
2346,2.344999,11047,12661992,-19742,-411,6773
2347,2.346000,11048,12662993,-20580,-77,6193
2348,2.347000,11049,12663993,-18139,-11,4355
2349,2.348000,11050,12664993,-11081,19,4403
2350,2.349000,11051,12665993,-1195,332,5901
2351,2.350000,11052,12666993,3948,734,6789
2352,2.351000,11053,12667993,6674,550,6912
2353,2.351999,11054,12668992,9829,168,7677
2354,2.353000,11055,12669993,8773,318,9295
2355,2.353999,11056,12670992,5695,519,9932
2356,2.355000,11057,12671993,4136,733,9600
2357,2.356000,11058,12672993,2997,1425,10035
2358,2.357000,11059,12673993,2629,2016,9638
2359,2.357999,11060,12674992,178,2088,6513
2360,2.359000,11061,12675993,-2386,1839,2829
2361,2.360000,11062,12676993,-929,1720,1469
2362,2.361000,11063,12677993,677,1750,1423
2363,2.361999,11064,12678992,-551,1571,904
2364,2.362999,11065,12679992,-1302,1217,306
2365,2.364000,11066,12680993,207,807,176
2366,2.365000,11067,12681993,2341,567,1099
2367,2.366000,11068,12682993,-186,966,2636
2368,2.366999,11069,12683992,-3298,1249,2644
2369,2.368000,11070,12684993,-604,353,937
2370,2.368999,11071,12685992,2261,-249,969
2371,2.369999,11072,12686992,5087,-208,3537
2372,2.371000,11073,12687993,7139,-897,4686
2373,2.371999,11074,12688992,9814,-2893,2802
2374,2.373000,11075,12689993,15187,-4339,1746
2375,2.373999,11076,12690992,9239,-4270,2152
2376,2.374999,11077,12691992,-4563,-3531,1996
2377,2.375999,11078,12692992,-12367,-2137,3389
2378,2.377000,11079,12693993,-19173,-830,5877
2379,2.378000,11080,12694993,-21193,-211,6324
2380,2.379000,11081,12695993,-17815,-225,5013
2381,2.380000,11082,12696993,-13429,-144,4458
2382,2.381000,11083,12697993,-4343,182,5479
2383,2.381999,11084,12698992,3599,499,6770
2384,2.383000,11085,12699993,7115,557,7248
2385,2.383999,11086,12700992,9536,282,7410
2386,2.384999,11087,12701992,9029,225,8589
2387,2.386000,11088,12702993,6223,442,9620
2388,2.387000,11089,12703993,4529,671,9439
2389,2.388000,11090,12704993,3336,1271,9728
2390,2.389000,11091,12705993,2759,1977,9890
2391,2.390000,11092,12706993,748,2257,7612
2392,2.390999,11093,12707992,-1983,2077,3859
2393,2.392000,11094,12708993,-1261,1870,1792
2394,2.393000,11095,12709993,443,1926,1518
2395,2.394000,11096,12710993,-238,1813,1124
2396,2.395000,11097,12711993,-1762,1454,299
2397,2.395999,11098,12712992,-706,990,-98
2398,2.396999,11099,12713992,1990,601,560
2399,2.397999,11100,12714992,-103,903,2002
2400,2.398999,11101,12715992,-3319,1310,2569
2401,2.400000,11102,12716993,-873,564,1002
2402,2.401000,11103,12717993,1937,-237,449
2403,2.401999,11104,12718992,4650,-283,2883
2404,2.402999,11105,12719992,6919,-635,4692
2405,2.404000,11106,12720993,8894,-2467,3412
2406,2.405000,11107,12721993,14935,-4156,2316
2407,2.406000,11108,12722993,12271,-4526,2295
2408,2.407000,11109,12723993,-698,-3968,2002
2409,2.407999,11110,12724992,-10310,-2602,3002
2410,2.409000,11111,12725993,-18958,-1079,5228
2411,2.410000,11112,12726993,-21629,-149,6566
2412,2.410999,11113,12727992,-18200,-215,5487
2413,2.412000,11114,12728993,-15787,-124,4113
2414,2.412999,11115,12729992,-7495,160,4848
2415,2.414000,11116,12730993,2358,429,6530
2416,2.415000,11117,12731993,6837,645,7301
2417,2.416000,11118,12732993,9046,387,7349
2418,2.416999,11119,12733992,9089,177,8201
2419,2.418000,11120,12734993,6985,346,9465
2420,2.418999,11121,12735992,5232,625,9793
2421,2.420000,11122,12736993,3674,1184,9967
2422,2.420999,11123,12737992,2787,1856,10052
2423,2.422000,11124,12738993,1313,2234,8391
2424,2.423000,11125,12739993,-1437,2180,4885
2425,2.424000,11126,12740993,-1572,1921,2177
2426,2.425000,11127,12741993,28,1914,1460
2427,2.426000,11128,12742993,-8,1799,1247
2428,2.427000,11129,12743993,-1841,1471,587
2429,2.428000,11130,12744993,-1058,1034,93
2430,2.429000,11131,12745993,2192,437,384
2431,2.430000,11132,12746993,584,629,1599
2432,2.430999,11133,12747992,-3236,1244,2734
2433,2.432000,11134,12748993,-1370,762,1587
2434,2.433000,11135,12749993,1753,-141,408
2435,2.433999,11136,12750992,3941,-325,2254
2436,2.434999,11137,12751992,6405,-512,4452
2437,2.436000,11138,12752993,8588,-2090,3811
2438,2.437000,11139,12753993,14136,-3863,2485
2439,2.438000,11140,12754993,13068,-4530,2022
2440,2.439000,11141,12755993,1307,-4019,2019
2441,2.440000,11142,12756993,-9650,-2635,3012
2442,2.441000,11143,12757993,-18455,-1121,5072
2443,2.442000,11144,12758993,-21205,-216,6681
2444,2.443000,11145,12759993,-18618,-266,5631
2445,2.444000,11146,12760993,-16633,-126,4054
2446,2.445000,11147,12761993,-8602,120,4723
2447,2.446000,11148,12762993,1540,375,6346
2448,2.446999,11149,12763992,6075,639,7004
2449,2.447999,11150,12764992,8633,371,7067
2450,2.449000,11151,12765993,9615,166,8062
2451,2.450000,11152,12766993,7487,351,9503
2452,2.451000,11153,12767993,5250,629,9814
2453,2.452000,11154,12768993,3927,1142,9877
2454,2.453000,11155,12769993,3110,1785,10009
2455,2.454000,11156,12770993,1791,2165,8451
2456,2.455000,11157,12771993,-1070,2114,4952
2457,2.456000,11158,12772993,-1793,1885,2115
2458,2.456999,11159,12773992,-14,1899,1358
2459,2.457999,11160,12774992,547,1776,1186
2460,2.459000,11161,12775993,-1389,1445,558
2461,2.460000,11162,12776993,-1130,1041,110
2462,2.460999,11163,12777992,1673,486,218
2463,2.461999,11164,12778992,1420,516,1420
2464,2.463000,11165,12779993,-2585,1180,2720
2465,2.463999,11166,12780992,-2070,852,1813
2466,2.465000,11167,12781993,1347,-47,489
2467,2.466000,11168,12782993,3143,-215,1950
2468,2.467000,11169,12783993,5658,-350,4344
2469,2.468000,11170,12784993,8138,-1802,4166
2470,2.469000,11171,12785993,13045,-3721,2636
2471,2.470000,11172,12786993,13907,-4590,1949
2472,2.471000,11173,12787993,3666,-4195,2163
2473,2.472000,11174,12788993,-9091,-2829,2859
2474,2.472999,11175,12789992,-17494,-1293,4971
2475,2.474000,11176,12790993,-20632,-288,7116
2476,2.474999,11177,12791992,-19246,-202,6115
2477,2.475999,11178,12792992,-17274,-103,4127
2478,2.477000,11179,12793993,-9746,51,4522
2479,2.478000,11180,12794993,725,321,6167
2480,2.478999,11181,12795992,5224,753,6906
2481,2.479999,11182,12796992,7707,543,6995
2482,2.481000,11183,12797993,9780,198,7923
2483,2.482000,11184,12798993,7893,338,9470
2484,2.482999,11185,12799992,5166,641,9915
2485,2.484000,11186,12800993,3852,1074,9888
2486,2.485000,11187,12801993,2983,1694,10097
2487,2.486000,11188,12802993,2029,2127,8769
2488,2.487000,11189,12803993,-754,2108,5339
2489,2.488000,11190,12804993,-1953,1868,2271
2490,2.489000,11191,12805993,80,1830,1306
2491,2.490000,11192,12806993,948,1710,1161
2492,2.491000,11193,12807993,-982,1396,567
2493,2.492000,11194,12808993,-939,1012,116
2494,2.492999,11195,12809992,1440,550,134
2495,2.493999,11196,12810992,2343,465,1381
2496,2.494999,11197,12811992,-1658,1010,2752
2497,2.496000,11198,12812993,-2332,827,1915
2498,2.496999,11199,12813992,1286,-65,541
2499,2.498000,11200,12814993,2946,-261,1665
2500,2.499000,11201,12815993,5324,-300,4044
2501,2.500000,11202,12816993,7305,-1498,4167
2502,2.501000,11203,12817993,11293,-3406,2450
2503,2.502000,11204,12818993,13824,-4374,1784
2504,2.502999,11205,12819992,4798,-4031,2200
2505,2.504000,11206,12820993,-8661,-2849,2627
2506,2.504999,11207,12821992,-16360,-1372,4846
2507,2.505999,11208,12822992,-20208,-332,7328
2508,2.507000,11209,12823993,-19253,-192,6592
2509,2.508000,11210,12824993,-16747,-217,4591
2510,2.509000,11211,12825993,-10444,-104,4603
2511,2.509999,11212,12826992,-125,234,6028
2512,2.511000,11213,12827993,4886,697,6774
2513,2.512000,11214,12828993,7192,588,6828
2514,2.513000,11215,12829993,9887,215,7598
2515,2.513999,11216,12830992,8219,309,9139
2516,2.515000,11217,12831993,5023,638,9726
2517,2.516000,11218,12832993,3838,987,9614
2518,2.517000,11219,12833993,2972,1601,9849
2519,2.518000,11220,12834993,2226,2070,8926
2520,2.519000,11221,12835993,-374,2119,5748
2521,2.520000,11222,12836993,-2045,1929,2502
2522,2.520999,11223,12837992,-74,1813,1418
2523,2.522000,11224,12838993,1081,1730,1365
2524,2.522999,11225,12839992,-590,1487,869
2525,2.524000,11226,12840993,-904,1102,342
2526,2.525000,11227,12841993,843,669,197
2527,2.526000,11228,12842993,2730,498,1390
2528,2.527000,11229,12843993,-449,915,3041
2529,2.528000,11230,12844993,-2516,963,2489
2530,2.528999,11231,12845992,930,15,677
2531,2.529999,11232,12846992,2642,-372,1127
2532,2.530999,11233,12847992,4820,-354,3619
2533,2.532000,11234,12848993,6978,-1410,4205
2534,2.533000,11235,12849993,10491,-3278,2386
2535,2.534000,11236,12850993,13260,-4478,1329
2536,2.534999,11237,12851992,5318,-4126,1974
2537,2.536000,11238,12852993,-8569,-2813,2872
2538,2.537000,11239,12853993,-16201,-1306,5120
2539,2.538000,11240,12854993,-19494,-346,7401
2540,2.539000,11241,12855993,-19647,-228,6458
2541,2.539999,11242,12856992,-16920,-195,4524
2542,2.541000,11243,12857993,-10406,-68,4625
2543,2.542000,11244,12858993,-533,230,5928
2544,2.543000,11245,12859993,4325,645,6434
2545,2.544000,11246,12860993,6615,532,6526
2546,2.545000,11247,12861993,10226,203,7596
2547,2.546000,11248,12862993,8977,366,9314
2548,2.547000,11249,12863993,5237,586,9851
2549,2.548000,11250,12864993,4053,871,9614
2550,2.549000,11251,12865993,3074,1590,10147
2551,2.550000,11252,12866993,2428,2077,9459
2552,2.551000,11253,12867993,103,2071,5973
2553,2.551999,11254,12868992,-2081,1805,2361
2554,2.553000,11255,12869993,-460,1686,1173
2555,2.553999,11256,12870992,956,1696,1110
2556,2.554999,11257,12871992,-372,1449,541
2557,2.555999,11258,12872992,-917,1040,62
2558,2.556999,11259,12873992,766,671,146
2559,2.558000,11260,12874993,3045,535,1238
2560,2.559000,11261,12875993,460,900,2800
2561,2.560000,11262,12876993,-3007,1091,2545
2562,2.561000,11263,12877993,-357,221,747
2563,2.562000,11264,12878993,2520,-322,1024
2564,2.563000,11265,12879993,4775,-265,3573
2565,2.564000,11266,12880993,6414,-1030,4505
2566,2.565000,11267,12881993,9006,-2966,2631
2567,2.566000,11268,12882993,13648,-4293,1698
2568,2.566999,11269,12883992,7282,-4044,2320
2569,2.567999,11270,12884992,-6480,-3168,2545
2570,2.569000,11271,12885993,-13981,-1708,4436
2571,2.570000,11272,12886993,-19318,-543,7076
2572,2.571000,11273,12887993,-20449,-208,6917
2573,2.571999,11274,12888992,-17027,-235,4939
2574,2.573000,11275,12889993,-11803,-188,4376
2575,2.573999,11276,12890992,-2441,187,5576
2576,2.575000,11277,12891993,4147,599,6517
2577,2.576000,11278,12892993,6618,483,6590
2578,2.576999,11279,12893992,9535,136,6992
2579,2.577999,11280,12894992,9151,251,8635
2580,2.578999,11281,12895992,5946,521,9791
2581,2.579999,11282,12896992,4318,785,9621
2582,2.580999,11283,12897992,3071,1431,9951
2583,2.582000,11284,12898993,2475,2006,9672
2584,2.582999,11285,12899992,539,2110,6670
2585,2.583999,11286,12900992,-1850,1871,2800
2586,2.584999,11287,12901992,-831,1678,1184
2587,2.586000,11288,12902993,670,1723,1101
2588,2.587000,11289,12903993,-86,1546,637
2589,2.588000,11290,12904993,-1092,1154,118
2590,2.588999,11291,12905992,561,714,144
2591,2.590000,11292,12906993,3560,376,1063
2592,2.590999,11293,12907992,1169,739,2707
2593,2.592000,11294,12908993,-3130,1122,3143
2594,2.593000,11295,12909993,-734,385,1440
2595,2.594000,11296,12910993,2669,-377,1054
2596,2.595000,11297,12911993,4571,-358,3365
2597,2.596000,11298,12912993,5947,-773,4764
2598,2.597000,11299,12913993,7896,-2607,2939
2599,2.598000,11300,12914993,12995,-3932,1552
2600,2.599000,11301,12915993,8247,-3936,1779
2601,2.600000,11302,12916993,-5173,-3251,1891
2602,2.600999,11303,12917992,-13003,-1847,3976
2603,2.602000,11304,12918993,-19061,-688,6971
2604,2.603000,11305,12919993,-20675,-249,7237
2605,2.604000,11306,12920993,-16853,-377,5210
2606,2.604999,11307,12921992,-12390,-314,4416
2607,2.605999,11308,12922992,-3519,126,5554
2608,2.607000,11309,12923993,4082,486,6442
2609,2.608000,11310,12924993,6533,474,6428
2610,2.608999,11311,12925992,8922,237,6764
2611,2.610000,11312,12926993,9201,286,8450
2612,2.610999,11313,12927992,6333,559,9811
2613,2.611999,11314,12928992,4257,849,9707
2614,2.613000,11315,12929993,2961,1430,9998
2615,2.614000,11316,12930993,2429,1989,9811
2616,2.615000,11317,12931993,741,2079,6891
2617,2.616000,11318,12932993,-1889,1842,2900
2618,2.617000,11319,12933993,-1149,1653,1118
2619,2.617999,11320,12934992,844,1684,1059
2620,2.619000,11321,12935993,613,1481,660
2621,2.620000,11322,12936993,-838,1102,125
2622,2.621000,11323,12937993,493,729,221
2623,2.622000,11324,12938993,3822,330,1034
2624,2.623000,11325,12939993,2328,610,2650
2625,2.624000,11326,12940993,-2479,1083,3423
2626,2.624999,11327,12941992,-1336,488,1835
2627,2.626000,11328,12942993,1945,-243,1101
2628,2.627000,11329,12943993,3443,-121,3205
2629,2.628000,11330,12944993,4669,-338,4749
2630,2.629000,11331,12945993,6272,-2079,3166
2631,2.630000,11332,12946993,11673,-3573,1679
2632,2.631000,11333,12947993,10043,-3948,1789
2633,2.632000,11334,12948993,-2499,-3396,1970
2634,2.632999,11335,12949992,-11793,-2042,3585
2635,2.634000,11336,12950993,-18062,-850,6593
2636,2.635000,11337,12951993,-20469,-259,7808
2637,2.636000,11338,12952993,-17033,-380,6051
2638,2.637000,11339,12953993,-13729,-366,4504
2639,2.638000,11340,12954993,-5512,-50,5183
2640,2.639000,11341,12955993,3827,300,6348
2641,2.640000,11342,12956993,6246,555,6525
2642,2.641000,11343,12957993,7455,369,6403
2643,2.641999,11344,12958992,9184,167,7777
2644,2.643000,11345,12959993,7083,405,9574
2645,2.644000,11346,12960993,4274,718,9656
2646,2.645000,11347,12961993,2842,1263,9649
2647,2.645999,11348,12962992,2253,1884,9843
2648,2.647000,11349,12963993,1177,2064,7677
2649,2.647999,11350,12964992,-1387,1886,3688
2650,2.648999,11351,12965992,-1340,1659,1320
2651,2.650000,11352,12966993,913,1661,1077
2652,2.651000,11353,12967993,1286,1508,863
2653,2.651999,11354,12968992,-461,1118,165
2654,2.652999,11355,12969992,163,753,-74
2655,2.654000,11356,12970993,3066,381,443
2656,2.654999,11357,12971992,3287,447,2169
2657,2.655999,11358,12972992,-1546,981,3497
2658,2.657000,11359,12973993,-2051,604,2173
2659,2.658000,11360,12974993,1514,-164,984
2660,2.659000,11361,12975993,3052,-124,2722
2661,2.659999,11362,12976992,4593,-120,4734
2662,2.660999,11363,12977992,5777,-1478,3915
2663,2.661999,11364,12978992,9689,-3225,1829
2664,2.663000,11365,12979993,11486,-3967,1237
2665,2.664000,11366,12980993,2026,-3669,1783
2666,2.665000,11367,12981993,-10026,-2476,2835
2667,2.665999,11368,12982992,-17199,-1132,5602
2668,2.667000,11369,12983993,-20412,-320,7974
2669,2.668000,11370,12984993,-17727,-390,6943
2670,2.669000,11371,12985993,-14694,-469,4872
2671,2.669999,11372,12986992,-8028,-264,5037
2672,2.671000,11373,12987993,1982,101,6335
2673,2.671999,11374,12988992,6030,535,6714
2674,2.673000,11375,12989993,7454,432,6491
2675,2.673999,11376,12990992,9240,147,7294
2676,2.675000,11377,12991993,7152,340,8953
2677,2.676000,11378,12992993,4215,679,9464
2678,2.677000,11379,12993993,3243,1114,9525
2679,2.678000,11380,12994993,2395,1748,9858
2680,2.679000,11381,12995993,1477,2094,8479
2681,2.680000,11382,12996993,-972,2030,4978
2682,2.680999,11383,12997992,-1687,1785,2006
2683,2.682000,11384,12998993,842,1689,1220
2684,2.682999,11385,12999992,1710,1622,1149
2685,2.684000,11386,13000993,-313,1341,511
2686,2.685000,11387,13001993,-473,964,40
2687,2.686000,11388,13002993,1793,567,216
2688,2.687000,11389,13003993,3478,480,1750
2689,2.687999,11390,13004992,-431,909,3492
2690,2.688999,11391,13005992,-2251,707,2581
2691,2.689999,11392,13006992,1236,-161,855
2692,2.691000,11393,13007993,2630,-267,1952
2693,2.692000,11394,13008993,4516,-52,4389
2694,2.693000,11395,13009993,5670,-1004,4401
2695,2.694000,11396,13010993,8332,-2954,2003
2696,2.695000,11397,13011993,12458,-3951,1057
2697,2.696000,11398,13012993,5171,-3715,1764
2698,2.697000,11399,13013993,-8414,-2791,2262
2699,2.697999,11400,13014992,-15806,-1421,4664
2700,2.698999,11401,13015992,-20169,-480,7668
2701,2.700000,11402,13016993,-18944,-358,7336
2702,2.701000,11403,13017993,-15409,-499,5185
2703,2.702000,11404,13018993,-9875,-401,4898
2704,2.703000,11405,13019993,28,2,6112
2705,2.704000,11406,13020993,5511,497,6738
2706,2.704999,11407,13021992,7559,465,6580
2707,2.706000,11408,13022993,9423,132,6923
2708,2.706999,11409,13023992,7446,236,8306
2709,2.708000,11410,13024993,4656,606,9171
2710,2.709000,11411,13025993,3854,1015,9416
2711,2.710000,11412,13026993,2620,1648,9804
2712,2.711000,11413,13027993,1800,2068,8834
2713,2.712000,11414,13028993,-458,2099,5755
2714,2.713000,11415,13029993,-1753,1914,2556
2715,2.713999,11416,13030992,651,1751,1268
2716,2.714999,11417,13031992,1736,1665,1052
2717,2.716000,11418,13032993,-5,1395,432
2718,2.717000,11419,13033993,-851,1042,-62
2719,2.718000,11420,13034993,906,674,79
2720,2.719000,11421,13035993,3767,477,1338
2721,2.719999,11422,13036992,789,786,3099
2722,2.720999,11423,13037992,-2616,823,2699
2723,2.721999,11424,13038992,442,-49,889
2724,2.723000,11425,13039993,2299,-343,1558
2725,2.724000,11426,13040993,4144,-22,4280
2726,2.725000,11427,13041993,5347,-570,4976
2727,2.726000,11428,13042993,6971,-2473,2749
2728,2.727000,11429,13043993,12608,-3705,1716
2729,2.728000,11430,13044993,8220,-3648,2292
2730,2.729000,11431,13045993,-5762,-3038,2107
2731,2.730000,11432,13046993,-13864,-1832,3689
2732,2.731000,11433,13047993,-19455,-731,6882
2733,2.731999,11434,13048992,-19967,-278,7527
2734,2.732999,11435,13049992,-15960,-550,5555
2735,2.734000,11436,13050993,-11993,-518,4539
2736,2.735000,11437,13051993,-2980,-63,5545
2737,2.735999,11438,13052992,4643,391,6661
2738,2.736999,11439,13053992,7665,492,6798
2739,2.737999,11440,13054992,9125,152,6803
2740,2.739000,11441,13055993,7619,170,7994
2741,2.739999,11442,13056992,5057,581,9309
2742,2.741000,11443,13057993,4086,935,9674
2743,2.742000,11444,13058993,2828,1554,9866
2744,2.743000,11445,13059993,1859,2052,9228
2745,2.744000,11446,13060993,-138,2133,6567
2746,2.745000,11447,13061993,-1848,1962,3077
2747,2.745999,11448,13062992,16,1725,1310
2748,2.746999,11449,13063992,1460,1680,1112
2749,2.748000,11450,13064993,453,1507,804
2750,2.749000,11451,13065993,-864,1149,317
2751,2.750000,11452,13066993,522,719,246
2752,2.751000,11453,13067993,3962,357,1158
2753,2.752000,11454,13068993,1734,666,2959
2754,2.752999,11455,13069992,-2602,1035,3511
2755,2.754000,11456,13070993,-335,304,1662
2756,2.754999,11457,13071992,1986,-369,1072
2757,2.756000,11458,13072993,3681,-139,3534
2758,2.757000,11459,13073993,5173,-304,5074
2759,2.757999,11460,13074992,6196,-2010,3171
2760,2.759000,11461,13075993,11813,-3557,1524
2761,2.760000,11462,13076993,9869,-3889,1633
2762,2.761000,11463,13077993,-3409,-3338,1689
2763,2.762000,11464,13078993,-12509,-2101,3314
2764,2.763000,11465,13079993,-18826,-919,6418
2765,2.763999,11466,13080992,-20582,-348,7526
2766,2.765000,11467,13081993,-16357,-609,5852
2767,2.765999,11468,13082992,-12983,-551,4585
2768,2.767000,11469,13083993,-4694,-135,5346
2769,2.768000,11470,13084993,4013,228,6420
2770,2.768999,11471,13085992,7445,459,6682
2771,2.769999,11472,13086992,9047,223,6688
2772,2.771000,11473,13087993,8090,178,7715
2773,2.772000,11474,13088993,5404,520,9145
2774,2.773000,11475,13089993,4241,847,9637
2775,2.773999,11476,13090992,3139,1451,9868
2776,2.774999,11477,13091992,2012,1965,9486
2777,2.776000,11478,13092993,239,2096,7120
2778,2.777000,11479,13093993,-1798,1976,3599
2779,2.778000,11480,13094993,-451,1720,1542
2780,2.778999,11481,13095992,1446,1718,1160
2781,2.779999,11482,13096992,1006,1555,883
2782,2.781000,11483,13097993,-830,1159,308
2783,2.782000,11484,13098993,57,794,139
2784,2.783000,11485,13099993,3939,327,820
2785,2.784000,11486,13100993,2439,568,2428
2786,2.785000,11487,13101993,-2538,1058,3424
2787,2.785999,11488,13102992,-1032,405,1852
2788,2.787000,11489,13103993,1985,-369,857
2789,2.788000,11490,13104993,3478,-220,3023
2790,2.789000,11491,13105993,5034,-196,4874
2791,2.790000,11492,13106993,5832,-1602,3600
2792,2.791000,11493,13107993,10271,-3302,1597
2793,2.792000,11494,13108993,11033,-3842,1355
2794,2.793000,11495,13109993,178,-3390,1809
2795,2.794000,11496,13110993,-10831,-2347,2928
2796,2.795000,11497,13111993,-18161,-1028,5757
2797,2.796000,11498,13112993,-20690,-290,7905
2798,2.796999,11499,13113992,-16865,-486,6801
2799,2.798000,11500,13114993,-13944,-501,4883
2800,2.799000,11501,13115993,-6720,-284,5172
2801,2.800000,11502,13116993,2707,118,6444
2802,2.800999,11503,13117992,7106,506,6960
2803,2.802000,11504,13118993,8682,316,6757
2804,2.803000,11505,13119993,8089,198,7309
2805,2.804000,11506,13120993,5680,456,8736
2806,2.804999,11507,13121992,4196,787,9443
2807,2.806000,11508,13122993,3181,1321,9689
2808,2.807000,11509,13123993,1873,1850,9467
2809,2.808000,11510,13124993,457,2091,7593
2810,2.808999,11511,13125992,-1506,2057,4382
2811,2.809999,11512,13126992,-739,1809,2002
2812,2.811000,11513,13127993,1464,1740,1282
2813,2.811999,11514,13128992,1552,1568,1054
2814,2.813000,11515,13129993,-421,1225,579
2815,2.814000,11516,13130993,-76,892,317
2816,2.815000,11517,13131993,3229,373,602
2817,2.816000,11518,13132993,2873,404,1940
2818,2.817000,11519,13133993,-1898,989,3385
