row,seconds,esp32_index,micros,ax,ay,az
0,0.000000,99,1714010,7538.3,-847.44,-2497.92
1,0.001000,100,1715010,1284.3,-721.44,-3016.92
2,0.002000,101,1716010,-2244.7,319.56,-4234.92
3,0.002999,102,1717009,3323.3,588.56,-5561.92
4,0.004000,103,1718010,11368.3,58.56,-5311.92
5,0.005000,104,1719010,18329.3,-311.44,-1631.92
6,0.006000,105,1720010,15746.3,-69.44,-265.9200000000001
7,0.006999,106,1721009,2956.3,620.56,-825.9200000000001
8,0.007999,107,1722009,-7717.7,946.56,1554.08
9,0.009000,108,1723010,-8443.7,80.56,3837.08
10,0.009999,109,1724009,-2673.7,-455.44,3322.08
11,0.011000,110,1725010,3657.3,-839.44,3529.08
12,0.012000,111,1726010,4625.3,-979.44,3602.08
13,0.013000,112,1727010,-1822.7,-289.44,1379.08
14,0.014000,113,1728010,-9931.7,-299.44,983.0799999999999
15,0.015000,114,1729010,-20583.7,-1235.44,2582.08
16,0.015999,115,1730009,-23701.7,-765.44,2330.08
17,0.017000,116,1731010,-19575.7,470.56,1064.08
18,0.018000,117,1732010,-8339.7,120.56,2552.08
19,0.019000,118,1733010,3966.3,-62.44,3634.08
20,0.020000,119,1734010,8399.3,-191.44,2408.08
21,0.020999,120,1735009,7703.3,312.56,382.0799999999999
22,0.021999,121,1736009,2859.3,1226.56,-2425.92
23,0.022999,122,1737009,3991.3,1437.56,-3936.92
24,0.024000,123,1738010,7830.3,736.56,-3614.92
25,0.025000,124,1739010,8404.3,-582.44,-2619.92
26,0.025999,125,1740009,3386.3,-802.44,-2874.92
27,0.027000,126,1741010,-2315.7,166.56,-4054.92
28,0.027999,127,1742009,932.3,603.56,-5141.92
29,0.029000,128,1743010,9187.3,173.56,-5751.92
30,0.030000,129,1744010,17629.3,-304.44,-2587.92
31,0.031000,130,1745010,17948.3,-213.44,52.07999999999993
32,0.032000,131,1746010,5960.3,474.56,-769.9200000000001
33,0.033000,132,1747010,-6167.7,810.56,915.0799999999999
34,0.033999,133,1748009,-9280.7,197.56,3541.08
35,0.035000,134,1749010,-4581.7,-235.44,3237.08
36,0.035999,135,1750009,2126.3,-766.44,3376.08
37,0.037000,136,1751010,5356.3,-1142.44,3919.08
38,0.038000,137,1752010,164.3,-380.44,1794.08
39,0.039000,138,1753010,-7288.7,-305.44,862.0799999999999
40,0.040000,139,1754010,-18731.7,-1024.44,2342.08
41,0.040999,140,1755009,-24623.7,-884.44,2452.08
42,0.042000,141,1756010,-21089.7,305.56,1322.08
43,0.043000,142,1757010,-11321.7,320.56,2113.08
44,0.044000,143,1758010,2027.3,-30.44,3514.08
45,0.045000,144,1759010,9105.3,-360.44,2877.08
46,0.046000,145,1760010,8737.3,156.56,797.0799999999999
47,0.047000,146,1761010,2775.3,1183.56,-2020.92
48,0.048000,147,1762010,3043.3,1348.56,-3744.92
49,0.049000,148,1763010,7059.3,995.56,-3722.92
50,0.050000,149,1764010,8371.3,-230.44,-2864.92
51,0.051000,150,1765010,5063.3,-879.44,-2695.92
52,0.052000,151,1766010,-1966.7,-98.44,-3681.92
53,0.052999,152,1767009,9.299999999999997,438.56,-4583.92
54,0.054000,153,1768010,7557.3,389.56,-5798.92
55,0.054999,154,1769009,15663.3,-185.44,-3538.92
56,0.056000,155,1770010,18728.3,-320.44,-299.9200000000001
57,0.056999,156,1771009,9018.3,433.56,-725.9200000000001
58,0.057999,157,1772009,-3654.7,736.56,250.07999999999993
59,0.059000,158,1773010,-8663.7,463.56,3182.08
60,0.060000,159,1774010,-6331.7,-55.44,3423.08
61,0.060999,160,1775009,528.3,-686.44,3237.08
62,0.062000,161,1776010,5373.3,-1216.44,4224.08
63,0.063000,162,1777010,1341.3,-580.44,2308.08
64,0.063999,163,1778009,-4409.7,-117.44,559.0799999999999
65,0.064999,164,1779009,-16856.7,-734.44,1916.08
66,0.066000,165,1780010,-25101.7,-1153.44,2583.08
67,0.066999,166,1781009,-21287.7,-59.44,1626.08
68,0.068000,167,1782010,-14195.7,459.56,1646.08
69,0.068999,168,1783009,-805.7,29.56,3430.08
70,0.070000,169,1784010,8159.3,-362.44,3433.08
71,0.070999,170,1785009,8795.3,67.56,1325.08
72,0.072000,171,1786010,3971.3,983.56,-1220.92
73,0.073000,172,1787010,3176.3,1247.56,-3418.92
74,0.074000,173,1788010,6372.3,1205.56,-3837.92
75,0.075000,174,1789010,7874.3,102.56,-3246.92
76,0.076000,175,1790010,6556.3,-1008.44,-2749.92
77,0.077000,176,1791010,-1583.7,-435.44,-3494.92
78,0.077999,177,1792009,-404.7,373.56,-4341.92
79,0.079000,178,1793010,6373.3,498.56,-5932.92
80,0.079999,179,1794009,13583.3,54.56,-4676.92
81,0.080999,180,1795009,19452.3,-369.44,-568.9200000000001
82,0.081999,181,1796009,11805.3,84.56,-304.9200000000001
83,0.082999,182,1797009,-941.7,776.56,-201.92000000000007
84,0.084000,183,1798010,-8763.7,615.56,2567.08
85,0.084999,184,1799009,-7717.7,-7.440000000000001,3601.08
86,0.086000,185,1800010,-883.7,-498.44,3332.08
87,0.086999,186,1801009,4834.3,-1144.44,4046.08
88,0.087999,187,1802009,3414.3,-784.44,2957.08
89,0.088999,188,1803009,-3417.7,-64.44,768.0799999999999
90,0.090000,189,1804010,-14144.7,-527.44,1634.08
91,0.091000,190,1805010,-25078.7,-1348.44,2683.08
92,0.092000,191,1806010,-23312.7,-288.44,1462.08
93,0.093000,192,1807010,-15894.7,412.56,1320.08
94,0.094000,193,1808010,-3254.7,41.56,3394.08
95,0.094999,194,1809009,7275.3,-158.44,3547.08
96,0.096000,195,1810010,8961.3,-11.440000000000001,1668.08
97,0.097000,196,1811010,5712.3,676.56,-547.9200000000001
98,0.097999,197,1812009,2994.3,1194.56,-3035.92
99,0.099000,198,1813010,5343.3,1463.56,-3962.92
100,0.100000,199,1814010,7840.3,398.56,-3367.92
101,0.101000,200,1815010,7374.3,-936.44,-2582.92
102,0.101999,201,1816009,134.3,-673.44,-3175.92
103,0.103000,202,1817010,-1226.7,234.56,-4274.92
104,0.103999,203,1818009,4514.3,581.56,-5971.92
105,0.104999,204,1819009,12104.3,126.56,-5174.92
106,0.106000,205,1820010,18947.3,-406.44,-1002.9200000000001
107,0.106999,206,1821009,14221.3,7.559999999999999,-256.9200000000001
108,0.108000,207,1822010,1152.3,789.56,-771.9200000000001
109,0.109000,208,1823010,-8210.7,747.56,2055.08
110,0.109999,209,1824009,-7920.7,-55.44,3755.08
111,0.111000,210,1825010,-1968.7,-447.44,3167.08
112,0.112000,211,1826010,4204.3,-977.44,3939.08
113,0.113000,212,1827010,4093.3,-1004.44,3508.08
114,0.114000,213,1828010,-3383.7,-85.44,851.0799999999999
115,0.114999,214,1829009,-11528.7,-348.44,1287.08
116,0.116000,215,1830010,-22817.7,-1395.44,2896.08
117,0.117000,216,1831010,-23797.7,-462.44,1988.08
118,0.117999,217,1832009,-17454.7,471.56,1216.08
119,0.119000,218,1833010,-5752.7,57.56,2979.08
120,0.120000,219,1834010,5071.3,41.56,3739.08
121,0.120999,220,1835009,8507.3,-121.44,2133.08
122,0.122000,221,1836010,7094.3,392.56,-126.92000000000007
123,0.123000,222,1837010,2829.3,1249.56,-2920.92
124,0.123999,223,1838009,4900.3,1454.56,-4053.92
125,0.124999,224,1839009,7706.3,574.56,-3523.92
126,0.126000,225,1840010,7931.3,-803.44,-2694.92
127,0.127000,226,1841010,2155.3,-818.44,-3128.92
128,0.127999,227,1842009,-2254.7,207.56,-4216.92
129,0.129000,228,1843010,2546.3,591.56,-5527.92
130,0.129999,229,1844009,10941.3,95.56,-5573.92
131,0.131000,230,1845010,18100.3,-349.44,-1847.92
132,0.132000,231,1846010,16614.3,-120.44,-12.920000000000073
133,0.133000,232,1847010,3711.3,596.56,-731.9200000000001
134,0.134000,233,1848010,-7472.7,906.56,1422.08
135,0.135000,234,1849010,-8701.7,93.56,3666.08
136,0.136000,235,1850010,-3388.7,-344.44,3205.08
137,0.137000,236,1851010,3499.3,-781.44,3743.08
138,0.138000,237,1852010,5053.3,-1079.44,3919.08
139,0.139000,238,1853010,-1586.7,-214.44,1398.08
140,0.139999,239,1854009,-9672.7,-231.44,1067.08
141,0.140999,240,1855009,-20924.7,-1391.44,2801.08
142,0.141999,241,1856009,-24692.7,-681.44,2242.08
143,0.142999,242,1857009,-20433.7,549.56,939.0799999999999
144,0.143999,243,1858009,-8552.7,130.56,2504.08
145,0.145000,244,1859010,3922.3,6.559999999999999,3727.08
146,0.145999,245,1860009,9099.3,-330.44,2599.08
147,0.146999,246,1861009,8536.3,220.56,424.0799999999999
148,0.147999,247,1862009,2628.3,1304.56,-2569.92
149,0.148999,248,1863009,3830.3,1442.56,-3964.92
150,0.149999,249,1864009,7688.3,738.56,-3622.92
151,0.151000,250,1865010,8264.3,-518.44,-2777.92
152,0.151999,251,1866009,3931.3,-852.44,-2983.92
153,0.152999,252,1867009,-1850.7,38.56,-4010.92
154,0.154000,253,1868010,1018.3,546.56,-5161.92
155,0.155000,254,1869010,9196.3,201.56,-5911.92
156,0.156000,255,1870010,17317.3,-338.44,-2652.92
157,0.157000,256,1871010,17792.3,-201.44,-24.920000000000073
158,0.157999,257,1872009,6176.3,551.56,-828.9200000000001
159,0.158999,258,1873009,-6021.7,876.56,879.0799999999999
160,0.160000,259,1874010,-9035.7,245.56,3643.08
161,0.161000,260,1875010,-4420.7,-245.44,3331.08
162,0.161999,261,1876009,2303.3,-727.44,3453.08
163,0.162999,262,1877009,5058.3,-1169.44,4036.08
164,0.164000,263,1878010,-471.7,-387.44,1719.08
165,0.164999,264,1879009,-7761.7,-207.44,828.0799999999999
166,0.165999,265,1880009,-19311.7,-1086.44,2412.08
167,0.167000,266,1881010,-24719.7,-892.44,2515.08
168,0.167999,267,1882009,-21450.7,413.56,1297.08
169,0.169000,268,1883010,-11285.7,315.56,2147.08
170,0.170000,269,1884010,2301.3,-138.44,3789.08
171,0.171000,270,1885010,9181.3,-346.44,3088.08
172,0.171999,271,1886009,9013.3,200.56,878.0799999999999
173,0.173000,272,1887010,2982.3,1235.56,-2121.92
174,0.174000,273,1888010,3458.3,1400.56,-3911.92
175,0.174999,274,1889009,7283.3,946.56,-3774.92
176,0.176000,275,1890010,8375.3,-242.44,-2892.92
177,0.176999,276,1891009,5132.3,-931.44,-2791.92
178,0.178000,277,1892010,-1965.7,-164.44,-3833.92
179,0.179000,278,1893010,206.3,466.56,-4807.92
180,0.180000,279,1894010,7933.3,331.56,-5985.92
181,0.180999,280,1895009,16196.3,-277.44,-3443.92
182,0.181999,281,1896009,18932.3,-322.44,-115.92000000000007
183,0.183000,282,1897010,8248.3,427.56,-670.9200000000001
184,0.184000,283,1898010,-4314.7,759.56,356.0799999999999
185,0.185000,284,1899010,-9161.7,441.56,3215.08
186,0.186000,285,1900010,-5993.7,-31.44,3359.08
187,0.186999,286,1901009,1327.3,-675.44,3358.08
188,0.187999,287,1902009,5505.3,-1202.44,4269.08
189,0.188999,288,1903009,1061.3,-490.44,2307.08
190,0.190000,289,1904010,-5450.7,-151.44,812.0799999999999
191,0.190999,290,1905009,-18220.7,-825.44,2149.08
192,0.192000,291,1906010,-25730.7,-1056.44,2525.08
193,0.193000,292,1907010,-21885.7,170.56,1359.08
194,0.193999,293,1908009,-13452.7,436.56,1769.08
195,0.194999,294,1909009,483.3,-31.44,3611.08
196,0.195999,295,1910009,9149.3,-371.44,3358.08
197,0.197000,296,1911010,9216.3,125.56,1157.08
198,0.198000,297,1912010,3630.3,1074.56,-1569.92
199,0.199000,298,1913010,3128.3,1252.56,-3543.92
200,0.200000,299,1914010,6270.3,1229.56,-3902.92
201,0.201000,300,1915010,8351.3,-22.44,-3113.92
202,0.202000,301,1916010,6268.3,-1029.44,-2730.92
203,0.203000,302,1917010,-1645.7,-260.44,-3761.92
204,0.204000,303,1918010,307.3,348.56,-4540.92
205,0.205000,304,1919010,6938.3,377.56,-6019.92
206,0.206000,305,1920010,14396.3,-8.440000000000001,-4345.92
207,0.207000,306,1921010,18979.3,-408.44,-424.9200000000001
208,0.207999,307,1922009,10363.3,241.56,-473.9200000000001
209,0.209000,308,1923010,-1849.7,806.56,58.07999999999993
210,0.210000,309,1924010,-8998.7,532.56,2871.08
211,0.210999,310,1925009,-6740.7,8.559999999999999,3565.08
212,0.212000,311,1926010,-252.7,-577.44,3319.08
213,0.212999,312,1927009,4711.3,-1184.44,4132.08
214,0.214000,313,1928010,2444.3,-729.44,2852.08
215,0.214999,314,1929009,-4415.7,-77.44,667.0799999999999
216,0.216000,315,1930010,-15641.7,-568.44,1763.08
217,0.216999,316,1931009,-25595.7,-1298.44,2671.08
218,0.218000,317,1932010,-22126.7,-195.44,1668.08
219,0.219000,318,1933010,-14923.7,489.56,1570.08
220,0.220000,319,1934010,-2078.7,61.56,3350.08
221,0.221000,320,1935010,7891.3,-298.44,3579.08
222,0.222000,321,1936010,8818.3,-2.4400000000000013,1453.08
223,0.223000,322,1937010,5306.3,836.56,-970.9200000000001
224,0.224000,323,1938010,3209.3,1226.56,-3340.92
225,0.225000,324,1939010,5926.3,1393.56,-4069.92
226,0.226000,325,1940010,7842.3,286.56,-3357.92
227,0.227000,326,1941010,6950.3,-1035.44,-2630.92
228,0.228000,327,1942010,-886.7,-596.44,-3437.92
229,0.229000,328,1943010,-505.7,305.56,-4334.92
230,0.230000,329,1944010,5989.3,585.56,-5824.92
231,0.231000,330,1945010,12859.3,38.56,-4956.92
232,0.232000,331,1946010,18947.3,-373.44,-807.9200000000001
233,0.233000,332,1947010,12510.3,80.56,-255.92000000000007
234,0.233999,333,1948009,-269.7,733.56,-467.9200000000001
235,0.234999,334,1949009,-8648.7,692.56,2252.08
236,0.236000,335,1950010,-7596.7,-29.44,3619.08
237,0.237000,336,1951010,-1286.7,-414.44,3182.08
238,0.238000,337,1952010,4913.3,-1071.44,4050.08
239,0.238999,338,1953009,3823.3,-878.44,3432.08
240,0.240000,339,1954010,-3483.7,9.559999999999999,856.0799999999999
241,0.241000,340,1955010,-13279.7,-420.44,1512.08
242,0.241999,341,1956009,-24660.7,-1403.44,2809.08
243,0.242999,342,1957009,-23384.7,-362.44,1766.08
244,0.243999,343,1958009,-16476.7,521.56,1353.08
245,0.244999,344,1959009,-4123.7,60.56,3223.08
246,0.246000,345,1960010,6479.3,-128.44,3619.08
247,0.246999,346,1961009,8834.3,-79.44,1833.08
248,0.248000,347,1962010,6151.3,523.56,-354.9200000000001
249,0.249000,348,1963010,2916.3,1265.56,-3032.92
250,0.250000,349,1964010,5200.3,1477.56,-4039.92
251,0.251000,350,1965010,7422.3,430.56,-3494.92
252,0.252000,351,1966010,7749.3,-941.44,-2650.92
253,0.253000,352,1967010,1026.3,-737.44,-3244.92
254,0.254000,353,1968010,-1542.7,275.56,-4367.92
255,0.255000,354,1969010,4073.3,519.56,-5739.92
256,0.256000,355,1970010,11769.3,93.56,-5320.92
257,0.256999,356,1971009,18395.3,-276.44,-1437.92
258,0.257999,357,1972009,15151.3,-3.4400000000000013,-229.92000000000007
259,0.259000,358,1973010,2320.3,678.56,-664.9200000000001
260,0.259999,359,1974009,-8025.7,847.56,1847.08
261,0.260999,360,1975009,-8206.7,10.559999999999999,3695.08
262,0.261999,361,1976009,-2280.7,-412.44,3274.08
263,0.263000,362,1977010,3740.3,-911.44,3950.08
264,0.264000,363,1978010,4381.3,-1002.44,3705.08
265,0.265000,364,1979010,-2798.7,-129.44,1114.08
266,0.266000,365,1980010,-10978.7,-286.44,1102.08
267,0.267000,366,1981010,-22102.7,-1413.44,2871.08
268,0.267999,367,1982009,-24304.7,-579.44,2193.08
269,0.269000,368,1983010,-18568.7,497.56,1116.08
270,0.270000,369,1984010,-6871.7,126.56,2784.08
271,0.270999,370,1985009,4691.3,75.56,3774.08
272,0.272000,371,1986010,8758.3,-241.44,2409.08
273,0.273000,372,1987010,7832.3,309.56,88.07999999999993
274,0.274000,373,1988010,2839.3,1273.56,-2866.92
275,0.275000,374,1989010,4485.3,1415.56,-4112.92
276,0.275999,375,1990009,7983.3,620.56,-3573.92
277,0.277000,376,1991010,7924.3,-660.44,-2793.92
278,0.278000,377,1992010,2771.3,-832.44,-3108.92
279,0.279000,378,1993010,-1993.7,126.56,-4042.92
280,0.280000,379,1994010,1932.3,624.56,-5432.92
281,0.280999,380,1995009,10646.3,176.56,-5635.92
282,0.282000,381,1996010,17744.3,-396.44,-1937.92
283,0.283000,382,1997010,17021.3,-138.44,-1.9200000000000728
284,0.284000,383,1998010,4656.3,574.56,-815.9200000000001
285,0.285000,384,1999010,-7427.7,862.56,1189.08
286,0.286000,385,2000010,-8748.7,196.56,3645.08
287,0.286999,386,2001009,-3964.7,-262.44,3160.08
288,0.288000,387,2002010,3283.3,-829.44,3639.08
289,0.289000,388,2003010,5294.3,-1189.44,4023.08
290,0.289999,389,2004009,-1339.7,-284.44,1404.08
291,0.291000,390,2005010,-8789.7,-262.44,1065.08
292,0.292000,391,2006010,-20963.7,-1304.44,2709.08
293,0.293000,392,2007010,-24915.7,-610.44,2225.08
294,0.294000,393,2008010,-20669.7,525.56,1024.08
295,0.295000,394,2009010,-9179.7,139.56,2357.08
296,0.296000,395,2010010,3728.3,3.5599999999999987,3829.08
297,0.297000,396,2011010,9179.3,-325.44,2859.08
298,0.298000,397,2012010,8854.3,252.56,623.0799999999999
299,0.299000,398,2013010,2536.3,1309.56,-2451.92
300,0.300000,399,2014010,3596.3,1438.56,-4025.92
301,0.300999,400,2015009,7501.3,826.56,-3642.92
302,0.301999,401,2016009,8264.3,-496.44,-2743.92
303,0.302999,402,2017009,4237.3,-905.44,-2973.92
304,0.304000,403,2018010,-1796.7,13.559999999999999,-4067.92
305,0.305000,404,2019010,955.3,514.56,-5101.92
306,0.306000,405,2020010,8872.3,192.56,-5968.92
307,0.307000,406,2021010,17343.3,-340.44,-2881.92
308,0.307999,407,2022009,17867.3,-242.44,-76.92000000000007
309,0.309000,408,2023010,6461.3,493.56,-769.9200000000001
310,0.309999,409,2024009,-5364.7,842.56,739.0799999999999
311,0.311000,410,2025010,-9003.7,313.56,3484.08
312,0.312000,411,2026010,-4301.7,-203.44,3528.08
313,0.312999,412,2027009,1742.3,-702.44,3392.08
314,0.314000,413,2028010,4917.3,-1148.44,3997.08
315,0.314999,414,2029009,-94.7,-462.44,2055.08
316,0.315999,415,2030009,-7253.7,-196.44,814.0799999999999
317,0.317000,416,2031010,-19019.7,-881.44,2285.08
318,0.317999,417,2032009,-24970.7,-974.44,2667.08
319,0.319000,418,2033010,-20966.7,225.56,1408.08
320,0.319999,419,2034009,-12046.7,393.56,1929.08
321,0.321000,420,2035010,1825.3,-53.44,3635.08
322,0.322000,421,2036010,8957.3,-372.44,3217.08
323,0.323000,422,2037010,9030.3,202.56,866.0799999999999
324,0.324000,423,2038010,3418.3,1156.56,-2017.92
325,0.325000,424,2039010,3259.3,1337.56,-3808.92
326,0.326000,425,2040010,7370.3,1062.56,-3907.92
327,0.327000,426,2041010,8382.3,-264.44,-3056.92
328,0.328000,427,2042010,5118.3,-929.44,-2900.92
329,0.329000,428,2043010,-1862.7,-148.44,-3816.92
330,0.330000,429,2044010,364.3,390.56,-4614.92
331,0.331000,430,2045010,7668.3,361.56,-5921.92
332,0.332000,431,2046010,15485.3,-177.44,-3772.92
333,0.332999,432,2047009,18633.3,-339.44,-191.92000000000007
334,0.334000,433,2048010,8818.3,380.56,-411.9200000000001
335,0.335000,434,2049010,-3803.7,784.56,372.0799999999999
336,0.336000,435,2050010,-9024.7,474.56,3090.08
337,0.336999,436,2051009,-6179.7,-46.44,3442.08
338,0.338000,437,2052010,662.3,-636.44,3325.08
339,0.339000,438,2053010,5421.3,-1126.44,4263.08
340,0.340000,439,2054010,1651.3,-613.44,2467.08
341,0.341000,440,2055010,-4543.7,-126.44,663.0799999999999
342,0.342000,441,2056010,-17343.7,-681.44,1939.08
343,0.343000,442,2057010,-25529.7,-1156.44,2492.08
344,0.343999,443,2058009,-21325.7,-18.44,1557.08
345,0.344999,444,2059009,-14153.7,397.56,1654.08
346,0.346000,445,2060010,-93.7,15.559999999999999,3449.08
347,0.347000,446,2061010,8243.3,-408.44,3342.08
348,0.348000,447,2062010,8890.3,55.56,1095.08
349,0.348999,448,2063009,4377.3,940.56,-1279.92
350,0.350000,449,2064010,2565.3,1205.56,-3536.92
351,0.351000,450,2065010,6399.3,1359.56,-3810.92
352,0.352000,451,2066010,7807.3,56.56,-2982.92
353,0.353000,452,2067010,6399.3,-1017.44,-2692.92
354,0.353999,453,2068009,-1205.7,-330.44,-3446.92
355,0.355000,454,2069010,-326.7,301.56,-4262.92
356,0.355999,455,2070009,6370.3,478.56,-5789.92
357,0.357000,456,2071010,13292.3,58.56,-4572.92
358,0.358000,457,2072010,18923.3,-337.44,-693.9200000000001
359,0.358999,458,2073009,11624.3,168.56,-496.9200000000001
360,0.360000,459,2074010,-786.7,708.56,-230.92000000000007
361,0.361000,460,2075010,-8514.7,662.56,2537.08
362,0.361999,461,2076009,-7250.7,-51.44,3570.08
363,0.363000,462,2077010,-1019.7,-545.44,3294.08
364,0.363999,463,2078009,4702.3,-1044.44,3993.08
365,0.365000,464,2079010,3224.3,-818.44,2967.08
366,0.365999,465,2080009,-3732.7,-28.44,634.0799999999999
367,0.367000,466,2081010,-13341.7,-476.44,1567.08
368,0.367999,467,2082009,-24470.7,-1344.44,2856.08
369,0.369000,468,2083010,-22965.7,-292.44,1797.08
370,0.370000,469,2084010,-15815.7,462.56,1339.08
371,0.370999,470,2085009,-3798.7,24.56,3156.08
372,0.371999,471,2086009,6739.3,-186.44,3672.08
373,0.372999,472,2087009,8674.3,-61.44,1780.08
374,0.374000,473,2088010,5654.3,685.56,-666.9200000000001
375,0.375000,474,2089010,3119.3,1270.56,-3085.92
376,0.376000,475,2090010,5227.3,1395.56,-3945.92
377,0.377000,476,2091010,7606.3,385.56,-3363.92
378,0.377999,477,2092009,7158.3,-939.44,-2689.92
379,0.378999,478,2093009,192.3,-716.44,-3284.92
380,0.379999,479,2094009,-951.7,227.56,-4143.92
381,0.381000,480,2095010,4826.3,622.56,-5881.92
382,0.382000,481,2096010,12430.3,121.56,-5347.92
383,0.383000,482,2097010,18570.3,-401.44,-1143.92
384,0.383999,483,2098009,14359.3,-6.440000000000001,-169.92000000000007
385,0.385000,484,2099010,1426.3,719.56,-667.9200000000001
386,0.385999,485,2100009,-8548.7,782.56,1906.08
387,0.387000,486,2101010,-7826.7,45.56,3800.08
388,0.388000,487,2102010,-2165.7,-404.44,3212.08
389,0.389000,488,2103010,4295.3,-942.44,3816.08
390,0.390000,489,2104010,4519.3,-965.44,3505.08
391,0.391000,490,2105010,-2747.7,-104.44,900.0799999999999
392,0.392000,491,2106010,-11177.7,-429.44,1388.08
393,0.392999,492,2107009,-23657.7,-1487.44,2881.08
394,0.394000,493,2108010,-24501.7,-414.44,1736.08
395,0.394999,494,2109009,-17988.7,428.56,1070.08
396,0.396000,495,2110010,-5842.7,12.559999999999999,2965.08
397,0.397000,496,2111010,5339.3,63.56,3657.08
398,0.398000,497,2112010,8836.3,-130.44,2194.08
399,0.398999,498,2113009,7530.3,404.56,92.07999999999993
400,0.399999,499,2114009,2614.3,1278.56,-2698.92
401,0.400999,500,2115009,4717.3,1494.56,-3960.92
402,0.402000,501,2116010,7549.3,623.56,-3579.92
403,0.403000,502,2117010,7867.3,-751.44,-2727.92
404,0.404000,503,2118010,2356.3,-785.44,-3091.92
405,0.405000,504,2119010,-1855.7,141.56,-4084.92
406,0.406000,505,2120010,2800.3,564.56,-5565.92
407,0.407000,506,2121010,10600.3,160.56,-5686.92
408,0.407999,507,2122009,18314.3,-385.44,-1642.92
409,0.409000,508,2123010,16402.3,-153.44,-44.92000000000007
410,0.409999,509,2124009,3673.3,691.56,-968.9200000000001
411,0.411000,510,2125010,-7255.7,851.56,1442.08
412,0.411999,511,2126009,-8758.7,44.56,3682.08
413,0.413000,512,2127010,-3114.7,-291.44,3184.08
414,0.413999,513,2128009,3112.3,-848.44,3649.08
415,0.415000,514,2129010,4954.3,-1108.44,3813.08
416,0.416000,515,2130010,-1823.7,-251.44,1328.08
417,0.417000,516,2131010,-9627.7,-249.44,1078.08
418,0.417999,517,2132009,-20732.7,-1310.44,2797.08
419,0.419000,518,2133010,-24598.7,-669.44,2297.08
420,0.420000,519,2134010,-19884.7,477.56,1233.08
421,0.421000,520,2135010,-8724.7,182.56,2526.08
422,0.422000,521,2136010,3621.3,34.56,3735.08
423,0.423000,522,2137010,8957.3,-288.44,2635.08
424,0.424000,523,2138010,8500.3,255.56,433.0799999999999
425,0.425000,524,2139010,2661.3,1233.56,-2513.92
426,0.426000,525,2140010,3975.3,1429.56,-4104.92
427,0.427000,526,2141010,7569.3,754.56,-3711.92
428,0.428000,527,2142010,8161.3,-554.44,-2777.92
429,0.429000,528,2143010,3786.3,-852.44,-3025.92
430,0.430000,529,2144010,-1956.7,12.559999999999999,-3964.92
431,0.431000,530,2145010,1369.3,592.56,-5145.92
432,0.431999,531,2146009,9431.3,181.56,-5959.92
433,0.432999,532,2147009,17382.3,-376.44,-2530.92
434,0.433999,533,2148009,17807.3,-201.44,64.07999999999993
435,0.435000,534,2149010,5888.3,506.56,-965.9200000000001
436,0.436000,535,2150010,-6222.7,919.56,793.0799999999999
437,0.436999,536,2151009,-8723.7,230.56,3669.08
438,0.438000,537,2152010,-4371.7,-202.44,3263.08
439,0.438999,538,2153009,2424.3,-697.44,3458.08
440,0.440000,539,2154010,5350.3,-1181.44,4131.08
441,0.441000,540,2155010,-449.7,-338.44,1693.08
442,0.442000,541,2156010,-7597.7,-249.44,942.0799999999999
443,0.443000,542,2157010,-19777.7,-1167.44,2618.08
444,0.443999,543,2158009,-25219.7,-791.44,2397.08
445,0.444999,544,2159009,-21588.7,401.56,1139.08
446,0.446000,545,2160010,-11442.7,293.56,2033.08
447,0.446999,546,2161009,2647.3,-49.44,3757.08
448,0.448000,547,2162010,9220.3,-407.44,3177.08
449,0.448999,548,2163009,9306.3,212.56,893.0799999999999
450,0.450000,549,2164010,3075.3,1211.56,-2025.92
451,0.451000,550,2165010,3217.3,1368.56,-3884.92
452,0.451999,551,2166009,7376.3,988.56,-3893.92
453,0.453000,552,2167010,8178.3,-317.44,-3060.92
454,0.454000,553,2168010,5080.3,-890.44,-3003.92
455,0.455000,554,2169010,-1748.7,-102.44,-3859.92
456,0.455999,555,2170009,783.3,411.56,-4828.92
457,0.456999,556,2171009,8086.3,338.56,-6239.92
458,0.458000,557,2172010,16326.3,-263.44,-3410.92
459,0.459000,558,2173010,18804.3,-329.44,89.07999999999993
460,0.460000,559,2174010,7774.3,487.56,-755.9200000000001
461,0.461000,560,2175010,-4230.7,838.56,502.0799999999999
462,0.461999,561,2176009,-9124.7,356.56,3362.08
463,0.463000,562,2177010,-5506.7,-122.44,3351.08
464,0.464000,563,2178010,1106.3,-665.44,3415.08
465,0.465000,564,2179010,5129.3,-1174.44,4187.08
466,0.465999,565,2180009,905.3,-520.44,2177.08
467,0.467000,566,2181010,-5807.7,-194.44,726.0799999999999
468,0.467999,567,2182009,-18116.7,-836.44,2275.08
469,0.468999,568,2183009,-25785.7,-1110.44,2604.08
470,0.469999,569,2184009,-21683.7,145.56,1378.08
471,0.471000,570,2185010,-13420.7,503.56,1867.08
472,0.472000,571,2186010,347.3,-37.44,3630.08
473,0.473000,572,2187010,9379.3,-391.44,3415.08
474,0.474000,573,2188010,9340.3,119.56,1162.08
475,0.474999,574,2189009,3787.3,1069.56,-1624.92
476,0.476000,575,2190010,3419.3,1268.56,-3553.92
477,0.477000,576,2191010,6204.3,1161.56,-4026.92
478,0.478000,577,2192010,8348.3,-10.440000000000001,-3255.92
479,0.479000,578,2193010,5798.3,-1024.44,-2781.92
480,0.479999,579,2194009,-1824.7,-271.44,-3706.92
481,0.481000,580,2195010,700.3,377.56,-4476.92
482,0.482000,581,2196010,7135.3,434.56,-6114.92
483,0.483000,582,2197010,14879.3,-135.44,-4113.92
484,0.484000,583,2198010,18977.3,-401.44,-267.9200000000001
485,0.485000,584,2199010,9856.3,339.56,-578.9200000000001
486,0.486000,585,2200010,-2796.7,762.56,-40.92000000000007
487,0.486999,586,2201009,-8698.7,520.56,2937.08
488,0.488000,587,2202010,-6799.7,-15.440000000000001,3541.08
489,0.489000,588,2203010,151.3,-578.44,3235.08
490,0.490000,589,2204010,5658.3,-1209.44,4377.08
491,0.491000,590,2205010,1940.3,-633.44,2721.08
492,0.492000,591,2206010,-4301.7,-75.44,724.0799999999999
493,0.493000,592,2207010,-16602.7,-693.44,2003.08
494,0.494000,593,2208010,-26111.7,-1181.44,2528.08
495,0.494999,594,2209009,-22354.7,-43.44,1455.08
496,0.496000,595,2210010,-14711.7,444.56,1638.08
497,0.496999,596,2211009,-1327.7,98.56,3514.08
498,0.498000,597,2212010,8388.3,-255.44,3569.08
499,0.498999,598,2213009,9084.3,0.5599999999999987,1518.08
500,0.500000,599,2214010,4836.3,867.56,-992.9200000000001
501,0.500999,600,2215009,3185.3,1248.56,-3322.92
502,0.502000,601,2216010,5519.3,1361.56,-4050.92
503,0.503000,602,2217010,7913.3,154.56,-3309.92
504,0.503999,603,2218009,6793.3,-1021.44,-2791.92
505,0.505000,604,2219010,-855.7,-491.44,-3627.92
506,0.506000,605,2220010,132.3,257.56,-4387.92
507,0.507000,606,2221010,6351.3,467.56,-6033.92
508,0.508000,607,2222010,13259.3,53.56,-4808.92
509,0.509000,608,2223010,18771.3,-359.44,-756.9200000000001
510,0.510000,609,2224010,12111.3,163.56,-386.9200000000001
511,0.511000,610,2225010,-449.7,763.56,-291.9200000000001
512,0.512000,611,2226010,-8526.7,636.56,2493.08
513,0.513000,612,2227010,-7496.7,-28.44,3659.08
514,0.514000,613,2228010,-1245.7,-518.44,3241.08
515,0.515000,614,2229010,4673.3,-1048.44,4120.08
516,0.515999,615,2230009,3145.3,-828.44,3194.08
517,0.517000,616,2231010,-3584.7,-33.44,791.0799999999999
518,0.517999,617,2232009,-13472.7,-515.44,1695.08
519,0.519000,618,2233010,-25212.7,-1341.44,2752.08
520,0.520000,619,2234010,-23416.7,-311.44,1766.08
521,0.521000,620,2235010,-16122.7,419.56,1444.08
522,0.521999,621,2236009,-3758.7,166.56,3180.08
523,0.523000,622,2237010,6887.3,-103.44,3635.08
524,0.524000,623,2238010,8958.3,-116.44,1750.08
525,0.525000,624,2239010,6512.3,646.56,-533.9200000000001
526,0.525999,625,2240009,3034.3,1241.56,-3127.92
527,0.527000,626,2241010,5232.3,1448.56,-4052.92
528,0.528000,627,2242010,7474.3,438.56,-3382.92
529,0.529000,628,2243010,6913.3,-931.44,-2791.92
530,0.530000,629,2244010,372.3,-701.44,-3338.92
531,0.531000,630,2245010,-620.7,231.56,-4164.92
532,0.532000,631,2246010,5360.3,567.56,-5835.92
533,0.533000,632,2247010,12244.3,59.56,-5274.92
534,0.534000,633,2248010,18477.3,-403.44,-1072.92
535,0.534999,634,2249009,13830.3,36.56,-371.9200000000001
536,0.535999,635,2250009,1012.3,739.56,-762.9200000000001
537,0.537000,636,2251010,-8136.7,721.56,2175.08
538,0.538000,637,2252010,-7721.7,-1.4400000000000013,3680.08
539,0.539000,638,2253010,-1943.7,-337.44,3128.08
540,0.539999,639,2254009,4340.3,-970.44,3978.08
541,0.540999,640,2255009,4414.3,-957.44,3583.08
542,0.541999,641,2256009,-3006.7,-23.44,1036.08
543,0.543000,642,2257010,-11560.7,-386.44,1535.08
544,0.544000,643,2258010,-23895.7,-1406.44,2867.08
545,0.545000,644,2259010,-24424.7,-394.44,1825.08
546,0.545999,645,2260009,-17509.7,445.56,1294.08
547,0.546999,646,2261009,-5932.7,41.56,2988.08
548,0.548000,647,2262010,5691.3,59.56,3724.08
549,0.549000,648,2263010,8833.3,-186.44,2294.08
550,0.550000,649,2264010,7093.3,373.56,-73.92000000000007
551,0.551000,650,2265010,3061.3,1251.56,-2895.92
552,0.552000,651,2266010,4320.3,1466.56,-4116.92
553,0.553000,652,2267010,7627.3,587.56,-3577.92
554,0.553999,653,2268009,7865.3,-826.44,-2750.92
555,0.555000,654,2269010,2065.3,-797.44,-3287.92
556,0.555999,655,2270009,-1402.7,170.56,-4244.92
557,0.556999,656,2271009,3288.3,498.56,-5572.92
558,0.558000,657,2272010,11186.3,165.56,-5615.92
559,0.559000,658,2273010,17761.3,-291.44,-1864.92
560,0.559999,659,2274009,16088.3,-104.44,-68.92000000000007
561,0.561000,660,2275010,3611.3,615.56,-760.9200000000001
562,0.562000,661,2276010,-7419.7,857.56,1518.08
563,0.562999,662,2277009,-8451.7,105.56,3732.08
564,0.564000,663,2278010,-3202.7,-349.44,3207.08
565,0.564999,664,2279009,3060.3,-782.44,3719.08
566,0.566000,665,2280010,5015.3,-1036.44,3873.08
567,0.567000,666,2281010,-1943.7,-283.44,1366.08
568,0.567999,667,2282009,-9757.7,-203.44,1105.08
569,0.568999,668,2283009,-21089.7,-1369.44,2831.08
570,0.570000,669,2284010,-25123.7,-714.44,2205.08
571,0.571000,670,2285010,-20044.7,536.56,1168.08
572,0.571999,671,2286009,-8611.7,204.56,2579.08
573,0.572999,672,2287009,4027.3,47.56,3679.08
574,0.574000,673,2288010,9303.3,-316.44,2612.08
575,0.574999,674,2289009,8742.3,212.56,362.0799999999999
576,0.576000,675,2290010,2759.3,1259.56,-2598.92
577,0.576999,676,2291009,4008.3,1436.56,-4048.92
578,0.577999,677,2292009,7454.3,769.56,-3779.92
579,0.579000,678,2293010,7854.3,-506.44,-2919.92
580,0.580000,679,2294010,3699.3,-912.44,-2988.92
581,0.580999,680,2295009,-1743.7,73.56,-3986.92
582,0.582000,681,2296010,2024.3,619.56,-5157.92
583,0.583000,682,2297010,9919.3,144.56,-5827.92
584,0.584000,683,2298010,17473.3,-387.44,-2391.92
585,0.585000,684,2299010,17172.3,-146.44,8.079999999999927
586,0.585999,685,2300009,5388.3,531.56,-999.9200000000001
587,0.586999,686,2301009,-6563.7,870.56,921.0799999999999
588,0.587999,687,2302009,-8797.7,190.56,3624.08
589,0.589000,688,2303010,-4062.7,-199.44,3186.08
590,0.590000,689,2304010,2693.3,-748.44,3525.08
591,0.590999,690,2305009,5343.3,-1279.44,4139.08
592,0.592000,691,2306010,-815.7,-381.44,1655.08
593,0.593000,692,2307010,-8185.7,-180.44,1016.0799999999999
594,0.593999,693,2308009,-20330.7,-1190.44,2565.08
595,0.595000,694,2309010,-25095.7,-801.44,2294.08
596,0.596000,695,2310010,-21289.7,515.56,1161.08
597,0.596999,696,2311009,-10607.7,228.56,2234.08
598,0.598000,697,2312010,3253.3,-35.44,3914.08
599,0.599000,698,2313010,9410.3,-343.44,3098.08
600,0.600000,699,2314010,8929.3,214.56,799.0799999999999
601,0.601000,700,2315010,2869.3,1243.56,-2155.92
602,0.602000,701,2316010,3361.3,1348.56,-3985.92
603,0.602999,702,2317009,7196.3,944.56,-3888.92
604,0.604000,703,2318010,8318.3,-388.44,-2911.92
605,0.605000,704,2319010,4780.3,-936.44,-3041.92
606,0.606000,705,2320010,-1558.7,-18.44,-4077.92
607,0.607000,706,2321010,1017.3,378.56,-4855.92
608,0.607999,707,2322009,8099.3,260.56,-6033.92
609,0.609000,708,2323010,16319.3,-189.44,-3294.92
610,0.610000,709,2324010,18307.3,-272.44,-27.920000000000073
611,0.611000,710,2325010,7629.3,453.56,-664.9200000000001
612,0.611999,711,2326009,-4288.7,774.56,553.0799999999999
613,0.613000,712,2327010,-9000.7,387.56,3305.08
614,0.614000,713,2328010,-5521.7,-47.44,3398.08
615,0.615000,714,2329010,1128.3,-679.44,3465.08
616,0.616000,715,2330010,5065.3,-1138.44,4167.08
617,0.617000,716,2331010,620.3,-492.44,2147.08
618,0.618000,717,2332010,-5963.7,-237.44,889.0799999999999
619,0.619000,718,2333010,-18490.7,-847.44,2291.08
620,0.620000,719,2334010,-25275.7,-1040.44,2545.08
621,0.620999,720,2335009,-21716.7,124.56,1452.08
622,0.622000,721,2336010,-13355.7,509.56,1741.08
623,0.623000,722,2337010,1043.3,-60.44,3586.08
624,0.623999,723,2338009,9144.3,-430.44,3326.08
625,0.625000,724,2339010,9572.3,160.56,999.0799999999999
626,0.625999,725,2340009,3778.3,1030.56,-1651.92
627,0.626999,726,2341009,3279.3,1275.56,-3675.92
628,0.627999,727,2342009,6514.3,1168.56,-3969.92
629,0.629000,728,2343010,7761.3,-45.44,-3282.92
630,0.630000,729,2344010,5914.3,-937.44,-2875.92
631,0.631000,730,2345010,-1601.7,-286.44,-3681.92
632,0.632000,731,2346010,882.3,350.56,-4488.92
633,0.633000,732,2347010,7561.3,454.56,-5983.92
634,0.634000,733,2348010,14424.3,-135.44,-4104.92
635,0.635000,734,2349010,18832.3,-342.44,-252.92000000000007
636,0.636000,735,2350010,9143.3,333.56,-548.9200000000001
637,0.637000,736,2351010,-2642.7,787.56,125.07999999999993
638,0.638000,737,2352010,-8475.7,493.56,2974.08
639,0.639000,738,2353010,-6631.7,13.559999999999999,3438.08
640,0.640000,739,2354010,403.3,-530.44,3365.08
641,0.641000,740,2355010,5043.3,-1224.44,4178.08
642,0.642000,741,2356010,1992.3,-671.44,2611.08
643,0.643000,742,2357010,-4806.7,-127.44,759.0799999999999
644,0.644000,743,2358010,-16526.7,-686.44,1907.08
645,0.645000,744,2359010,-25723.7,-1163.44,2494.08
646,0.645999,745,2360009,-22177.7,-34.44,1474.08
647,0.647000,746,2361010,-14036.7,448.56,1758.08
648,0.648000,747,2362010,-1220.7,46.56,3504.08
649,0.649000,748,2363010,8420.3,-318.44,3437.08
650,0.649999,749,2364009,8913.3,29.56,1391.08
651,0.650999,750,2365009,4651.3,908.56,-1089.92
652,0.652000,751,2366010,3160.3,1229.56,-3370.92
653,0.653000,752,2367010,5571.3,1381.56,-4076.92
654,0.654000,753,2368010,7885.3,160.56,-3250.92
655,0.655000,754,2369010,6727.3,-1090.44,-2669.92
656,0.655999,755,2370009,-646.7,-488.44,-3567.92
657,0.657000,756,2371010,-266.7,314.56,-4421.92
658,0.658000,757,2372010,6199.3,436.56,-5863.92
659,0.659000,758,2373010,13226.3,61.56,-4738.92
660,0.660000,759,2374010,18331.3,-253.44,-848.9200000000001
661,0.661000,760,2375010,12215.3,114.56,-255.92000000000007
662,0.662000,761,2376010,-282.7,707.56,-258.9200000000001
663,0.663000,762,2377010,-8489.7,689.56,2388.08
664,0.664000,763,2378010,-7337.7,-49.44,3693.08
665,0.665000,764,2379010,-1228.7,-534.44,3264.08
666,0.666000,765,2380010,4414.3,-1004.44,3949.08
667,0.666999,766,2381009,3306.3,-799.44,3098.08
668,0.667999,767,2382009,-3446.7,-56.44,888.0799999999999
669,0.669000,768,2383010,-13264.7,-455.44,1647.08
670,0.669999,769,2384009,-24376.7,-1299.44,2746.08
671,0.671000,770,2385010,-23154.7,-382.44,1865.08
672,0.672000,771,2386010,-16259.7,456.56,1414.08
673,0.672999,772,2387009,-3923.7,103.56,3120.08
674,0.674000,773,2388010,6478.3,-165.44,3629.08
675,0.675000,774,2389010,8473.3,-35.44,1711.08
676,0.675999,775,2390009,6770.3,603.56,-456.9200000000001
677,0.676999,776,2391009,2960.3,1148.56,-2969.92
678,0.677999,777,2392009,4847.3,1454.56,-4143.92
679,0.679000,778,2393010,7746.3,441.56,-3429.92
680,0.680000,779,2394010,7110.3,-982.44,-2700.92
681,0.681000,780,2395010,1123.3,-688.44,-3268.92
682,0.681999,781,2396009,-1206.7,236.56,-4238.92
683,0.683000,782,2397010,4535.3,522.56,-5736.92
684,0.684000,783,2398010,11814.3,143.56,-5273.92
685,0.685000,784,2399010,17938.3,-333.44,-1302.92
686,0.686000,785,2400010,14693.3,-7.440000000000001,-112.92000000000007
687,0.687000,786,2401010,1858.3,674.56,-633.9200000000001
688,0.687999,787,2402009,-7991.7,842.56,1832.08
689,0.689000,788,2403010,-7810.7,121.56,3710.08
690,0.689999,789,2404009,-2271.7,-485.44,3332.08
691,0.691000,790,2405010,3816.3,-896.44,3840.08
692,0.691999,791,2406009,4496.3,-942.44,3546.08
693,0.693000,792,2407010,-2906.7,-205.44,1088.08
694,0.693999,793,2408009,-10983.7,-381.44,1321.08
695,0.694999,794,2409009,-22677.7,-1384.44,2741.08
696,0.696000,795,2410010,-24507.7,-464.44,1808.08
697,0.697000,796,2411010,-18117.7,477.56,1240.08
698,0.698000,797,2412010,-6261.7,-1.4400000000000013,2963.08
699,0.699000,798,2413010,5118.3,23.56,3682.08
700,0.700000,799,2414010,8773.3,-122.44,2280.08
701,0.700999,800,2415009,7426.3,315.56,64.07999999999993
702,0.702000,801,2416010,2984.3,1288.56,-2718.92
703,0.702999,802,2417009,4303.3,1510.56,-4054.92
704,0.704000,803,2418010,7631.3,597.56,-3565.92
705,0.705000,804,2419010,8195.3,-722.44,-2623.92
706,0.706000,805,2420010,2582.3,-784.44,-3140.92
707,0.707000,806,2421010,-1925.7,173.56,-4179.92
708,0.708000,807,2422010,2157.3,532.56,-5323.92
709,0.708999,808,2423009,10134.3,118.56,-5670.92
710,0.710000,809,2424010,17785.3,-290.44,-2089.92
711,0.711000,810,2425010,16924.3,-129.44,69.07999999999993
712,0.711999,811,2426009,4492.3,583.56,-761.9200000000001
713,0.712999,812,2427009,-6985.7,892.56,1252.08
714,0.714000,813,2428010,-8732.7,98.56,3702.08
715,0.714999,814,2429009,-3611.7,-354.44,3271.08
716,0.715999,815,2430009,2844.3,-774.44,3533.08
717,0.717000,816,2431010,5093.3,-1127.44,3853.08
718,0.718000,817,2432010,-1395.7,-314.44,1445.08
719,0.719000,818,2433010,-8999.7,-208.44,964.0799999999999
720,0.720000,819,2434010,-19960.7,-1293.44,2734.08
721,0.721000,820,2435010,-24639.7,-765.44,2314.08
722,0.722000,821,2436010,-20561.7,482.56,1181.08
723,0.723000,822,2437010,-9328.7,189.56,2411.08
724,0.724000,823,2438010,3377.3,-10.440000000000001,3667.08
725,0.725000,824,2439010,9025.3,-290.44,2698.08
726,0.726000,825,2440010,8603.3,213.56,489.0799999999999
727,0.726999,826,2441009,2910.3,1249.56,-2384.92
728,0.727999,827,2442009,3437.3,1388.56,-3917.92
729,0.729000,828,2443010,7432.3,810.56,-3647.92
730,0.729999,829,2444009,8146.3,-424.44,-2806.92
731,0.731000,830,2445010,4063.3,-858.44,-2972.92
732,0.731999,831,2446009,-1570.7,42.56,-3879.92
733,0.733000,832,2447010,942.3,520.56,-4927.92
734,0.734000,833,2448010,8856.3,200.56,-5911.92
735,0.734999,834,2449009,16711.3,-284.44,-2896.92
736,0.736000,835,2450010,17856.3,-228.44,-61.92000000000007
737,0.737000,836,2451010,6828.3,442.56,-836.9200000000001
738,0.738000,837,2452010,-5367.7,828.56,721.0799999999999
739,0.739000,838,2453010,-8824.7,355.56,3551.08
740,0.740000,839,2454010,-4784.7,-163.44,3358.08
741,0.740999,840,2455009,1962.3,-747.44,3460.08
742,0.742000,841,2456010,5178.3,-1135.44,4106.08
743,0.743000,842,2457010,89.3,-399.44,1872.08
744,0.744000,843,2458010,-6727.7,-275.44,906.0799999999999
745,0.745000,844,2459010,-19001.7,-985.44,2362.08
746,0.746000,845,2460010,-25008.7,-906.44,2434.08
747,0.746999,846,2461009,-21282.7,287.56,1331.08
748,0.748000,847,2462010,-12329.7,376.56,1845.08
749,0.749000,848,2463010,1714.3,-67.44,3611.08
750,0.750000,849,2464010,9064.3,-400.44,3263.08
751,0.750999,850,2465009,8927.3,198.56,992.0799999999999
752,0.752000,851,2466010,3371.3,1185.56,-1876.92
753,0.753000,852,2467010,3225.3,1299.56,-3766.92
754,0.754000,853,2468010,6878.3,1089.56,-3831.92
755,0.755000,854,2469010,8278.3,-183.44,-3009.92
756,0.756000,855,2470010,5609.3,-921.44,-2850.92
757,0.756999,856,2471009,-1873.7,-121.44,-3831.92
758,0.758000,857,2472010,647.3,334.56,-4578.92
759,0.759000,858,2473010,7310.3,391.56,-6009.92
760,0.759999,859,2474009,15037.3,-96.44,-3889.92
761,0.761000,860,2475010,18983.3,-368.44,-138.92000000000007
762,0.762000,861,2476010,9161.3,338.56,-434.9200000000001
763,0.763000,862,2477010,-3012.7,763.56,221.07999999999993
764,0.764000,863,2478010,-9033.7,506.56,2996.08
765,0.764999,864,2479009,-6695.7,-12.440000000000001,3547.08
766,0.765999,865,2480009,292.3,-650.44,3336.08
767,0.767000,866,2481010,5215.3,-1200.44,4139.08
768,0.767999,867,2482009,1777.3,-606.44,2489.08
769,0.768999,868,2483009,-4456.7,-150.44,769.0799999999999
770,0.770000,869,2484010,-16667.7,-695.44,2046.08
771,0.771000,870,2485010,-25619.7,-1221.44,2551.08
772,0.772000,871,2486010,-21855.7,-107.44,1516.08
773,0.773000,872,2487010,-14218.7,456.56,1664.08
774,0.774000,873,2488010,-990.7,46.56,3439.08
775,0.774999,874,2489009,8567.3,-322.44,3416.08
776,0.776000,875,2490010,9071.3,17.56,1260.08
777,0.777000,876,2491010,4456.3,931.56,-1271.92
778,0.777999,877,2492009,3087.3,1256.56,-3360.92
779,0.779000,878,2493010,5710.3,1286.56,-3904.92
780,0.780000,879,2494010,7888.3,154.56,-3207.92
781,0.780999,880,2495009,6657.3,-983.44,-2660.92
782,0.782000,881,2496010,-1131.7,-474.44,-3437.92
783,0.782999,882,2497009,137.3,309.56,-4230.92
784,0.783999,883,2498009,6315.3,480.56,-5939.92
785,0.785000,884,2499010,13059.3,51.56,-4667.92
786,0.786000,885,2500010,18668.3,-394.44,-584.9200000000001
787,0.787000,886,2501010,11612.3,113.56,-393.9200000000001
788,0.788000,887,2502010,-748.7,752.56,-321.9200000000001
789,0.789000,888,2503010,-8596.7,622.56,2446.08
790,0.789999,889,2504009,-7138.7,-17.44,3622.08
791,0.790999,890,2505009,-920.7,-512.44,3219.08
792,0.791999,891,2506009,4942.3,-1098.44,4031.08
793,0.793000,892,2507010,3280.3,-832.44,3143.08
794,0.794000,893,2508010,-3964.7,-18.44,733.0799999999999
795,0.795000,894,2509010,-13554.7,-498.44,1675.08
796,0.796000,895,2510010,-25023.7,-1310.44,2653.08
797,0.797000,896,2511010,-22714.7,-258.44,1704.08
798,0.798000,897,2512010,-15455.7,382.56,1638.08
799,0.799000,898,2513010,-3400.7,139.56,3202.08
800,0.799999,899,2514009,6828.3,-125.44,3519.08
801,0.800999,900,2515009,8130.3,-96.44,1720.08
802,0.801999,901,2516009,5982.3,689.56,-508.9200000000001
803,0.803000,902,2517010,2727.3,1191.56,-3110.92
804,0.804000,903,2518010,5413.3,1451.56,-4106.92
805,0.805000,904,2519010,7786.3,392.56,-3279.92
806,0.806000,905,2520010,7044.3,-1013.44,-2665.92
807,0.807000,906,2521010,885.3,-615.44,-3425.92
808,0.808000,907,2522010,-1437.7,296.56,-4335.92
809,0.809000,908,2523010,4370.3,435.56,-5678.92
810,0.810000,909,2524010,12216.3,138.56,-5208.92
811,0.811000,910,2525010,18221.3,-227.44,-1323.92
812,0.812000,911,2526010,14598.3,47.56,-258.9200000000001
813,0.813000,912,2527010,1980.3,654.56,-582.9200000000001
814,0.814000,913,2528010,-8130.7,752.56,2070.08
815,0.814999,914,2529009,-8121.7,34.56,3680.08
816,0.816000,915,2530010,-2462.7,-404.44,3219.08
817,0.817000,916,2531010,3570.3,-845.44,3814.08
818,0.817999,917,2532009,4412.3,-944.44,3504.08
819,0.819000,918,2533010,-2578.7,-211.44,1051.08
820,0.819999,919,2534009,-10677.7,-295.44,1241.08
821,0.821000,920,2535010,-22384.7,-1383.44,2893.08
822,0.822000,921,2536010,-24350.7,-603.44,2067.08
823,0.822999,922,2537009,-18275.7,507.56,1093.08
824,0.824000,923,2538010,-6494.7,93.56,2685.08
825,0.824999,924,2539009,5137.3,-51.44,3674.08
826,0.825999,925,2540009,8802.3,-163.44,2240.08
827,0.827000,926,2541010,7694.3,397.56,-51.92000000000007
828,0.828000,927,2542010,2842.3,1235.56,-2772.92
829,0.828999,928,2543009,4175.3,1486.56,-4081.92
830,0.829999,929,2544009,7629.3,636.56,-3492.92
831,0.831000,930,2545010,7990.3,-689.44,-2589.92
832,0.832000,931,2546010,2426.3,-793.44,-3057.92
833,0.832999,932,2547009,-1930.7,159.56,-4051.92
834,0.834000,933,2548010,2489.3,577.56,-5400.92
835,0.834999,934,2549009,10516.3,120.56,-5647.92
836,0.836000,935,2550010,17886.3,-338.44,-1883.92
837,0.837000,936,2551010,16443.3,-95.44,-54.92000000000007
838,0.838000,937,2552010,4126.3,568.56,-934.9200000000001
839,0.839000,938,2553010,-7110.7,838.56,1374.08
840,0.840000,939,2554010,-8704.7,93.56,3693.08
841,0.840999,940,2555009,-3296.7,-326.44,3128.08
842,0.842000,941,2556010,2948.3,-831.44,3573.08
843,0.843000,942,2557010,5276.3,-1154.44,3964.08
844,0.844000,943,2558010,-1362.7,-296.44,1454.08
845,0.844999,944,2559009,-9510.7,-236.44,905.0799999999999
846,0.845999,945,2560009,-20157.7,-1212.44,2543.08
847,0.847000,946,2561010,-24362.7,-743.44,2269.08
848,0.848000,947,2562010,-20127.7,438.56,1366.08
849,0.848999,948,2563009,-9030.7,191.56,2544.08
850,0.849999,949,2564009,3338.3,21.56,3646.08
851,0.851000,950,2565010,8980.3,-283.44,2741.08
852,0.852000,951,2566010,8150.3,201.56,634.0799999999999
853,0.853000,952,2567010,2474.3,1313.56,-2440.92
854,0.853999,953,2568009,3986.3,1415.56,-3956.92
855,0.855000,954,2569010,7309.3,733.56,-3657.92
856,0.855999,955,2570009,8283.3,-436.44,-2785.92
857,0.856999,956,2571009,4119.3,-867.44,-2947.92
858,0.857999,957,2572009,-2121.7,3.5599999999999987,-4141.92
859,0.858999,958,2573009,1170.3,488.56,-4976.92
860,0.859999,959,2574009,8578.3,143.56,-5746.92
861,0.861000,960,2575010,17244.3,-322.44,-2913.92
862,0.862000,961,2576010,18150.3,-208.44,-133.92000000000007
863,0.863000,962,2577010,6437.3,500.56,-849.9200000000001
864,0.864000,963,2578010,-5140.7,825.56,798.0799999999999
865,0.864999,964,2579009,-9144.7,292.56,3536.08
866,0.865999,965,2580009,-4979.7,-150.44,3301.08
867,0.867000,966,2581010,1784.3,-676.44,3397.08
868,0.868000,967,2582010,5083.3,-1153.44,4104.08
869,0.869000,968,2583010,425.3,-426.44,1955.08
870,0.870000,969,2584010,-6208.7,-233.44,857.0799999999999
871,0.871000,970,2585010,-18683.7,-989.44,2370.08
872,0.872000,971,2586010,-24934.7,-983.44,2519.08
873,0.872999,972,2587009,-21616.7,240.56,1326.08
874,0.874000,973,2588010,-12753.7,473.56,1699.08
875,0.875000,974,2589010,1462.3,-84.44,3505.08
876,0.876000,975,2590010,8905.3,-463.44,3152.08
877,0.877000,976,2591010,9546.3,219.56,930.0799999999999
878,0.877999,977,2592009,3377.3,1113.56,-1795.92
879,0.878999,978,2593009,3096.3,1320.56,-3748.92
880,0.879999,979,2594009,6809.3,1112.56,-3774.92
881,0.881000,980,2595010,7836.3,-167.44,-2989.92
882,0.882000,981,2596010,5468.3,-889.44,-2769.92
883,0.882999,982,2597009,-1629.7,-103.44,-3671.92
884,0.884000,983,2598010,819.3,364.56,-4572.92
885,0.885000,984,2599010,7622.3,374.56,-6013.92
886,0.885999,985,2600009,15121.3,-178.44,-3767.92
887,0.887000,986,2601010,18658.3,-362.44,-234.92000000000007
888,0.887999,987,2602009,8952.3,400.56,-648.9200000000001
889,0.889000,988,2603010,-3373.7,785.56,235.07999999999993
890,0.889999,989,2604009,-8711.7,456.56,3000.08
891,0.890999,990,2605009,-6196.7,-77.44,3409.08
892,0.892000,991,2606010,383.3,-663.44,3229.08
893,0.893000,992,2607010,5349.3,-1198.44,4105.08
894,0.893999,993,2608009,1722.3,-615.44,2514.08
895,0.894999,994,2609009,-4762.7,-167.44,700.0799999999999
896,0.895999,995,2610009,-16664.7,-670.44,1866.08
897,0.896999,996,2611009,-25582.7,-1168.44,2457.08
898,0.898000,997,2612010,-21758.7,-70.44,1566.08
899,0.899000,998,2613010,-13809.7,466.56,1881.08
900,0.900000,999,2614010,-1060.7,93.56,3495.08
901,0.901000,1000,2615010,8382.3,-293.44,3354.08
902,0.902000,1001,2616010,8817.3,16.56,1421.08
903,0.903000,1002,2617010,4114.3,935.56,-1163.92
904,0.904000,1003,2618010,3363.3,1262.56,-3382.92
905,0.905000,1004,2619010,5798.3,1219.56,-3975.92
906,0.906000,1005,2620010,8081.3,128.56,-3269.92
907,0.907000,1006,2621010,6362.3,-1013.44,-2671.92
908,0.908000,1007,2622010,-1312.7,-456.44,-3510.92
909,0.909000,1008,2623010,21.299999999999997,382.56,-4315.92
910,0.909999,1009,2624009,6153.3,458.56,-5875.92
911,0.910999,1010,2625009,13610.3,14.559999999999999,-4584.92
912,0.912000,1011,2626010,18699.3,-345.44,-806.9200000000001
913,0.912999,1012,2627009,11978.3,166.56,-467.9200000000001
914,0.914000,1013,2628010,-725.7,764.56,-232.92000000000007
915,0.915000,1014,2629010,-8872.7,598.56,2473.08
916,0.915999,1015,2630009,-7365.7,22.56,3610.08
917,0.917000,1016,2631010,-1114.7,-479.44,3214.08
918,0.917999,1017,2632009,4691.3,-1103.44,4068.08
919,0.918999,1018,2633009,3644.3,-760.44,3163.08
920,0.919999,1019,2634009,-3359.7,-40.44,842.0799999999999
921,0.920999,1020,2635009,-13091.7,-490.44,1635.08
922,0.921999,1021,2636009,-24537.7,-1360.44,2767.08
923,0.922999,1022,2637009,-23425.7,-337.44,1705.08
924,0.924000,1023,2638010,-16068.7,480.56,1397.08
925,0.925000,1024,2639010,-4063.7,90.56,3177.08
926,0.926000,1025,2640010,6803.3,-147.44,3466.08
927,0.927000,1026,2641010,8846.3,-113.44,1759.08
928,0.928000,1027,2642010,6061.3,568.56,-497.9200000000001
929,0.929000,1028,2643010,2995.3,1255.56,-3059.92
930,0.930000,1029,2644010,4885.3,1428.56,-3951.92
931,0.931000,1030,2645010,7493.3,432.56,-3352.92
932,0.932000,1031,2646010,7322.3,-929.44,-2574.92
933,0.933000,1032,2647010,472.3,-694.44,-3174.92
934,0.934000,1033,2648010,-1018.7,305.56,-4240.92
935,0.934999,1034,2649009,4695.3,504.56,-5746.92
936,0.936000,1035,2650010,12091.3,52.56,-5183.92
937,0.937000,1036,2651010,18276.3,-322.44,-1284.92
938,0.938000,1037,2652010,14334.3,29.56,-301.9200000000001
939,0.938999,1038,2653009,1762.3,672.56,-686.9200000000001
940,0.939999,1039,2654009,-8012.7,812.56,1946.08
941,0.941000,1040,2655010,-8033.7,33.56,3751.08
942,0.942000,1041,2656010,-2346.7,-450.44,3164.08
943,0.943000,1042,2657010,4258.3,-935.44,3883.08
944,0.944000,1043,2658010,4398.3,-1010.44,3657.08
945,0.944999,1044,2659009,-2920.7,-143.44,983.0799999999999
946,0.945999,1045,2660009,-10709.7,-331.44,1205.08
947,0.947000,1046,2661010,-22503.7,-1383.44,2670.08
948,0.948000,1047,2662010,-23943.7,-489.44,2040.08
949,0.949000,1048,2663010,-18245.7,411.56,1365.08
950,0.950000,1049,2664010,-6441.7,119.56,2749.08
951,0.951000,1050,2665010,4872.3,82.56,3673.08
952,0.952000,1051,2666010,8248.3,-237.44,2286.08
953,0.953000,1052,2667010,7694.3,430.56,45.07999999999993
954,0.954000,1053,2668010,2729.3,1286.56,-2755.92
955,0.955000,1054,2669010,4404.3,1392.56,-4100.92
956,0.956000,1055,2670010,7830.3,651.56,-3508.92
957,0.956999,1056,2671009,7934.3,-711.44,-2637.92
958,0.957999,1057,2672009,2587.3,-794.44,-3138.92
959,0.959000,1058,2673010,-2262.7,224.56,-4143.92
960,0.960000,1059,2674010,2083.3,546.56,-5260.92
961,0.960999,1060,2675009,10408.3,96.56,-5557.92
962,0.962000,1061,2676010,17814.3,-318.44,-2024.92
963,0.963000,1062,2677010,16985.3,-80.44,-70.92000000000007
964,0.963999,1063,2678009,4498.3,579.56,-893.9200000000001
965,0.964999,1064,2679009,-7079.7,830.56,1313.08
966,0.966000,1065,2680010,-9020.7,151.56,3610.08
967,0.967000,1066,2681010,-3544.7,-242.44,3124.08
968,0.967999,1067,2682009,2774.3,-835.44,3588.08
969,0.969000,1068,2683010,5318.3,-1112.44,3959.08
970,0.969999,1069,2684009,-830.7,-297.44,1561.08
971,0.971000,1070,2685010,-8717.7,-259.44,925.0799999999999
972,0.972000,1071,2686010,-19920.7,-1213.44,2581.08
973,0.972999,1072,2687009,-24421.7,-787.44,2396.08
974,0.974000,1073,2688010,-20660.7,417.56,1266.08
975,0.975000,1074,2689010,-10100.7,290.56,2165.08
976,0.975999,1075,2690009,3344.3,-80.44,3533.08
977,0.976999,1076,2691009,9028.3,-412.44,2788.08
978,0.978000,1077,2692010,8850.3,277.56,606.0799999999999
979,0.979000,1078,2693010,2715.3,1224.56,-2261.92
980,0.980000,1079,2694010,3529.3,1419.56,-3886.92
981,0.981000,1080,2695010,7380.3,848.56,-3646.92
982,0.982000,1081,2696010,7908.3,-385.44,-2793.92
983,0.983000,1082,2697010,4364.3,-812.44,-2841.92
984,0.983999,1083,2698009,-1860.7,-6.440000000000001,-3891.92
985,0.985000,1084,2699010,924.3,527.56,-4972.92
986,0.986000,1085,2700010,8631.3,247.56,-5882.92
987,0.987000,1086,2701010,16740.3,-368.44,-2971.92
988,0.988000,1087,2702010,18367.3,-216.44,-166.92000000000007
989,0.988999,1088,2703009,6877.3,510.56,-869.9200000000001
990,0.990000,1089,2704010,-5119.7,824.56,705.0799999999999
991,0.991000,1090,2705010,-8665.7,310.56,3450.08
992,0.991999,1091,2706009,-5200.7,-138.44,3299.08
993,0.993000,1092,2707010,1712.3,-734.44,3468.08
994,0.993999,1093,2708009,5182.3,-1225.44,4174.08
995,0.994999,1094,2709009,247.3,-412.44,1887.08
996,0.996000,1095,2710010,-6438.7,-214.44,700.0799999999999
997,0.996999,1096,2711009,-18514.7,-917.44,2200.08
998,0.998000,1097,2712010,-24812.7,-991.44,2579.08
999,0.998999,1098,2713009,-21358.7,199.56,1515.08
1000,1.000000,1099,2714010,-12599.7,424.56,1855.08
1001,1.000999,1100,2715009,1109.3,1.5599999999999987,3560.08
1002,1.001999,1101,2716009,8926.3,-385.44,3230.08
1003,1.003000,1102,2717010,9006.3,154.56,1068.08
1004,1.003999,1103,2718009,3451.3,1149.56,-1745.92
1005,1.005000,1104,2719010,3136.3,1288.56,-3769.92
1006,1.006000,1105,2720010,6649.3,1066.56,-3908.92
1007,1.006999,1106,2721009,8313.3,-138.44,-3044.92
1008,1.008000,1107,2722010,5429.3,-956.44,-2855.92
1009,1.008999,1108,2723009,-1669.7,-151.44,-3784.92
1010,1.009999,1109,2724009,582.3,418.56,-4462.92
1011,1.011000,1110,2725010,7167.3,424.56,-5944.92
1012,1.012000,1111,2726010,15134.3,-109.44,-3956.92
1013,1.012999,1112,2727009,18762.3,-377.44,-349.9200000000001
1014,1.013999,1113,2728009,9549.3,337.56,-574.9200000000001
1015,1.014999,1114,2729009,-2749.7,735.56,227.07999999999993
1016,1.016000,1115,2730010,-9235.7,487.56,2936.08
1017,1.017000,1116,2731010,-6615.7,11.559999999999999,3438.08
1018,1.018000,1117,2732010,62.3,-617.44,3252.08
1019,1.018999,1118,2733009,5266.3,-1197.44,4149.08
1020,1.020000,1119,2734010,2417.3,-633.44,2694.08
1021,1.021000,1120,2735010,-4201.7,-132.44,762.0799999999999
1022,1.021999,1121,2736009,-16080.7,-628.44,1895.08
1023,1.023000,1122,2737010,-25684.7,-1228.44,2585.08
1024,1.023999,1123,2738009,-22224.7,-131.44,1530.08
1025,1.024999,1124,2739009,-14425.7,490.56,1629.08
1026,1.026000,1125,2740010,-1544.7,36.56,3379.08
1027,1.027000,1126,2741010,8443.3,-306.44,3394.08
1028,1.027999,1127,2742009,9085.3,-13.440000000000001,1439.08
1029,1.029000,1128,2743010,4467.3,850.56,-1048.92
1030,1.030000,1129,2744010,3097.3,1297.56,-3315.92
1031,1.031000,1130,2745010,5453.3,1346.56,-3948.92
1032,1.031999,1131,2746009,7924.3,189.56,-3226.92
1033,1.032999,1132,2747009,6627.3,-985.44,-2621.92
1034,1.034000,1133,2748010,-1022.7,-482.44,-3448.92
1035,1.035000,1134,2749010,15.299999999999997,262.56,-4271.92
1036,1.036000,1135,2750010,5902.3,510.56,-5926.92
1037,1.036999,1136,2751009,13116.3,102.56,-4721.92
1038,1.038000,1137,2752010,18708.3,-400.44,-746.9200000000001
1039,1.038999,1138,2753009,12189.3,110.56,-508.9200000000001
1040,1.039999,1139,2754009,-306.7,778.56,-446.9200000000001
1041,1.041000,1140,2755010,-8409.7,630.56,2399.08
1042,1.042000,1141,2756010,-7177.7,-67.44,3685.08
1043,1.042999,1142,2757009,-1304.7,-502.44,3198.08
1044,1.044000,1143,2758010,4641.3,-1041.44,4034.08
1045,1.045000,1144,2759010,3288.3,-839.44,3182.08
1046,1.046000,1145,2760010,-3766.7,15.559999999999999,750.0799999999999
1047,1.047000,1146,2761010,-12783.7,-445.44,1645.08
1048,1.048000,1147,2762010,-24165.7,-1399.44,2877.08
1049,1.049000,1148,2763010,-23053.7,-298.44,1889.08
1050,1.049999,1149,2764009,-15906.7,415.56,1480.08
1051,1.051000,1150,2765010,-4486.7,53.56,3118.08
1052,1.051999,1151,2766009,5971.3,-45.44,3556.08
1053,1.052999,1152,2767009,8566.3,-60.44,1858.08
1054,1.054000,1153,2768010,6157.3,546.56,-432.9200000000001
1055,1.054999,1154,2769009,3393.3,1183.56,-3006.92
1056,1.056000,1155,2770010,5145.3,1370.56,-4127.92
1057,1.057000,1156,2771010,7605.3,431.56,-3554.92
1058,1.058000,1157,2772010,7485.3,-889.44,-2693.92
1059,1.059000,1158,2773010,684.3,-724.44,-3395.92
1060,1.059999,1159,2774009,-1158.7,256.56,-4282.92
1061,1.061000,1160,2775010,3961.3,443.56,-5596.92
1062,1.062000,1161,2776010,11703.3,140.56,-5345.92
1063,1.063000,1162,2777010,18653.3,-235.44,-1317.92
1064,1.064000,1163,2778010,14785.3,-64.44,-92.92000000000007
1065,1.065000,1164,2779010,2191.3,805.56,-643.9200000000001
1066,1.066000,1165,2780010,-8098.7,805.56,1986.08
1067,1.067000,1166,2781010,-8320.7,19.56,3825.08
1068,1.068000,1167,2782010,-2370.7,-241.44,3212.08
1069,1.068999,1168,2783009,3544.3,-882.44,3789.08
1070,1.069999,1169,2784009,4665.3,-1055.44,3701.08
1071,1.071000,1170,2785010,-2344.7,-186.44,1158.08
1072,1.072000,1171,2786010,-10171.7,-339.44,1228.08
1073,1.073000,1172,2787010,-22145.7,-1438.44,2824.08
1074,1.074000,1173,2788010,-24476.7,-569.44,1950.08
1075,1.074999,1174,2789009,-18885.7,465.56,955.0799999999999
1076,1.076000,1175,2790010,-7184.7,90.56,2581.08
1077,1.077000,1176,2791010,4751.3,-29.44,3688.08
1078,1.078000,1177,2792010,9022.3,-253.44,2363.08
1079,1.079000,1178,2793010,8099.3,376.56,171.07999999999993
1080,1.079999,1179,2794009,2521.3,1245.56,-2729.92
1081,1.081000,1180,2795010,4384.3,1491.56,-4040.92
1082,1.082000,1181,2796010,7317.3,720.56,-3511.92
1083,1.083000,1182,2797010,7857.3,-650.44,-2657.92
1084,1.083999,1183,2798009,3076.3,-804.44,-2947.92
1085,1.084999,1184,2799009,-1957.7,107.56,-3975.92
1086,1.086000,1185,2800010,2096.3,538.56,-5260.92
1087,1.087000,1186,2801010,10045.3,170.56,-5735.92
1088,1.087999,1187,2802009,17546.3,-385.44,-2113.92
1089,1.088999,1188,2803009,16839.3,-118.44,-92.92000000000007
1090,1.090000,1189,2804010,4787.3,590.56,-873.9200000000001
1091,1.091000,1190,2805010,-6722.7,873.56,1278.08
1092,1.091999,1191,2806009,-8636.7,169.56,3641.08
1093,1.092999,1192,2807009,-3725.7,-316.44,3174.08
1094,1.094000,1193,2808010,2761.3,-803.44,3538.08
1095,1.094999,1194,2809009,4991.3,-1100.44,3949.08
1096,1.095999,1195,2810009,-1011.7,-303.44,1519.08
1097,1.096999,1196,2811009,-8506.7,-208.44,900.0799999999999
1098,1.098000,1197,2812010,-19800.7,-1150.44,2482.08
1099,1.098999,1198,2813009,-24116.7,-816.44,2460.08
1100,1.099999,1199,2814009,-20548.7,410.56,1384.08
1101,1.100999,1200,2815009,-10149.7,208.56,2311.08
1102,1.101999,1201,2816009,2913.3,-19.44,3690.08
1103,1.102999,1202,2817009,8793.3,-315.44,2746.08
1104,1.104000,1203,2818010,8517.3,213.56,587.0799999999999
1105,1.104999,1204,2819009,2671.3,1235.56,-2376.92
1106,1.106000,1205,2820010,3655.3,1337.56,-4003.92
1107,1.107000,1206,2821010,7398.3,827.56,-3662.92
1108,1.108000,1207,2822010,8345.3,-416.44,-2753.92
1109,1.109000,1208,2823010,4520.3,-876.44,-2927.92
1110,1.109999,1209,2824009,-2111.7,40.56,-3978.92
1111,1.111000,1210,2825010,668.3,479.56,-4746.92
1112,1.112000,1211,2826010,8282.3,320.56,-5859.92
1113,1.112999,1212,2827009,16826.3,-278.44,-3131.92
1114,1.114000,1213,2828010,18499.3,-277.44,-88.92000000000007
1115,1.115000,1214,2829010,7439.3,463.56,-666.9200000000001
1116,1.116000,1215,2830010,-4908.7,760.56,679.0799999999999
1117,1.117000,1216,2831010,-9129.7,388.56,3371.08
1118,1.118000,1217,2832010,-5480.7,-100.44,3307.08
1119,1.119000,1218,2833010,1314.3,-722.44,3342.08
1120,1.119999,1219,2834009,5394.3,-1174.44,4186.08
1121,1.121000,1220,2835010,899.3,-509.44,2099.08
1122,1.122000,1221,2836010,-5645.7,-262.44,708.0799999999999
1123,1.122999,1222,2837009,-18225.7,-921.44,2150.08
1124,1.123999,1223,2838009,-25320.7,-1083.44,2502.08
1125,1.125000,1224,2839010,-21959.7,189.56,1295.08
1126,1.126000,1225,2840010,-13211.7,497.56,1693.08
1127,1.126999,1226,2841009,1095.3,-86.44,3556.08
1128,1.127999,1227,2842009,9257.3,-443.44,3288.08
1129,1.129000,1228,2843010,9545.3,190.56,1155.08
1130,1.130000,1229,2844010,3417.3,1121.56,-1546.92
1131,1.130999,1230,2845009,2862.3,1291.56,-3581.92
1132,1.132000,1231,2846010,6428.3,1168.56,-3839.92
1133,1.133000,1232,2847010,7875.3,-18.44,-3033.92
1134,1.134000,1233,2848010,5938.3,-981.44,-2640.92
1135,1.134999,1234,2849009,-1758.7,-284.44,-3686.92
1136,1.136000,1235,2850010,434.3,412.56,-4592.92
1137,1.137000,1236,2851010,7089.3,439.56,-6031.92
1138,1.138000,1237,2852010,14425.3,-111.44,-4132.92
1139,1.138999,1238,2853009,19246.3,-380.44,-370.9200000000001
1140,1.140000,1239,2854010,9867.3,287.56,-623.9200000000001
1141,1.140999,1240,2855009,-2438.7,801.56,37.07999999999993
1142,1.142000,1241,2856010,-8673.7,497.56,2890.08
1143,1.143000,1242,2857010,-6728.7,-61.44,3471.08
1144,1.143999,1243,2858009,-75.7,-620.44,3262.08
1145,1.144999,1244,2859009,4987.3,-1181.44,4055.08
1146,1.145999,1245,2860009,2242.3,-594.44,2639.08
1147,1.147000,1246,2861010,-4488.7,-65.44,707.0799999999999
1148,1.148000,1247,2862010,-15439.7,-616.44,1877.08
1149,1.149000,1248,2863010,-25293.7,-1166.44,2659.08
1150,1.150000,1249,2864010,-22036.7,-200.44,1727.08
1151,1.151000,1250,2865010,-14093.7,426.56,1816.08
1152,1.152000,1251,2866010,-2184.7,150.56,3405.08
1153,1.153000,1252,2867010,7504.3,-237.44,3358.08
1154,1.154000,1253,2868010,8842.3,30.56,1455.08
1155,1.155000,1254,2869010,4630.3,811.56,-955.9200000000001
1156,1.156000,1255,2870010,3305.3,1207.56,-3310.92
1157,1.157000,1256,2871010,5830.3,1299.56,-3939.92
1158,1.158000,1257,2872010,7761.3,155.56,-3284.92
1159,1.159000,1258,2873010,6764.3,-1010.44,-2669.92
1160,1.160000,1259,2874010,-1090.7,-475.44,-3510.92
1161,1.160999,1260,2875009,-456.7,379.56,-4413.92
1162,1.162000,1261,2876010,5913.3,525.56,-5733.92
1163,1.163000,1262,2877010,13078.3,24.56,-4691.92
1164,1.163999,1263,2878009,18759.3,-308.44,-886.9200000000001
1165,1.165000,1264,2879010,12680.3,122.56,-311.9200000000001
1166,1.166000,1265,2880010,-55.7,702.56,-347.9200000000001
1167,1.167000,1266,2881010,-8714.7,749.56,2304.08
1168,1.168000,1267,2882010,-7619.7,-32.44,3725.08
1169,1.169000,1268,2883010,-1448.7,-509.44,3160.08
1170,1.169999,1269,2884009,4720.3,-976.44,3941.08
1171,1.171000,1270,2885010,3752.3,-899.44,3373.08
1172,1.172000,1271,2886010,-3024.7,-78.44,868.0799999999999
1173,1.173000,1272,2887010,-12365.7,-461.44,1424.08
1174,1.174000,1273,2888010,-24353.7,-1428.44,2662.08
1175,1.174999,1274,2889009,-23380.7,-380.44,1857.08
1176,1.175999,1275,2890009,-16877.7,420.56,1316.08
1177,1.177000,1276,2891010,-4566.7,107.56,2955.08
1178,1.178000,1277,2892010,6279.3,-87.44,3575.08
1179,1.179000,1278,2893010,8592.3,-173.44,1891.08
1180,1.180000,1279,2894010,6851.3,564.56,-207.92000000000007
1181,1.181000,1280,2895010,2538.3,1238.56,-2919.92
1182,1.181999,1281,2896009,4999.3,1456.56,-4064.92
1183,1.182999,1282,2897009,7610.3,521.56,-3327.92
1184,1.184000,1283,2898010,7331.3,-884.44,-2539.92
1185,1.185000,1284,2899010,1424.3,-750.44,-3082.92
1186,1.185999,1285,2900009,-1768.7,227.56,-4173.92
1187,1.187000,1286,2901010,3717.3,546.56,-5663.92
1188,1.188000,1287,2902010,11426.3,151.56,-5327.92
1189,1.189000,1288,2903010,18271.3,-357.44,-1388.92
1190,1.189999,1289,2904009,15279.3,-64.44,-300.9200000000001
1191,1.191000,1290,2905010,2753.3,667.56,-850.9200000000001
1192,1.191999,1291,2906009,-7738.7,785.56,1854.08
1193,1.193000,1292,2907010,-8322.7,35.56,3656.08
1194,1.194000,1293,2908010,-2597.7,-436.44,3136.08
1195,1.195000,1294,2909010,3206.3,-904.44,3696.08
1196,1.196000,1295,2910010,4831.3,-987.44,3554.08
1197,1.197000,1296,2911010,-2255.7,-219.44,1055.08
1198,1.197999,1297,2912009,-10182.7,-283.44,1064.08
1199,1.198999,1298,2913009,-20924.7,-1332.44,2814.08
1200,1.199999,1299,2914009,-23934.7,-665.44,2253.08
1201,1.200999,1300,2915009,-19067.7,489.56,1283.08
1202,1.202000,1301,2916010,-7790.7,140.56,2667.08
1203,1.203000,1302,2917010,4019.3,45.56,3661.08
1204,1.204000,1303,2918010,8603.3,-241.44,2468.08
1205,1.205000,1304,2919010,7902.3,287.56,250.07999999999993
1206,1.206000,1305,2920010,2546.3,1312.56,-2772.92
1207,1.207000,1306,2921010,4343.3,1424.56,-3989.92
1208,1.207999,1307,2922009,7587.3,663.56,-3487.92
1209,1.209000,1308,2923010,7929.3,-663.44,-2678.92
1210,1.209999,1309,2924009,3254.3,-786.44,-2957.92
1211,1.211000,1310,2925010,-2438.7,164.56,-4147.92
1212,1.212000,1311,2926010,1582.3,562.56,-5177.92
1213,1.213000,1312,2927010,9787.3,172.56,-5682.92
1214,1.213999,1313,2928009,17687.3,-385.44,-2457.92
1215,1.214999,1314,2929009,17669.3,-171.44,-85.92000000000007
1216,1.215999,1315,2930009,5335.3,520.56,-811.9200000000001
1217,1.217000,1316,2931010,-6513.7,897.56,1070.08
1218,1.218000,1317,2932010,-8969.7,248.56,3630.08
1219,1.219000,1318,2933010,-4252.7,-265.44,3262.08
1220,1.220000,1319,2934010,2589.3,-737.44,3507.08
1221,1.220999,1320,2935009,5509.3,-1117.44,4069.08
1222,1.222000,1321,2936010,-452.7,-362.44,1649.08
1223,1.223000,1322,2937010,-7442.7,-217.44,859.0799999999999
1224,1.224000,1323,2938010,-19367.7,-1187.44,2516.08
1225,1.225000,1324,2939010,-24655.7,-891.44,2408.08
1226,1.226000,1325,2940010,-21313.7,389.56,1304.08
1227,1.227000,1326,2941010,-11607.7,346.56,1973.08
1228,1.228000,1327,2942010,2717.3,-60.44,3566.08
1229,1.229000,1328,2943010,8919.3,-457.44,3051.08
1230,1.229999,1329,2944009,9210.3,236.56,756.0799999999999
1231,1.231000,1330,2945010,3023.3,1213.56,-2067.92
1232,1.232000,1331,2946010,3073.3,1320.56,-3875.92
1233,1.232999,1332,2947009,7518.3,1007.56,-3726.92
1234,1.233999,1333,2948009,7913.3,-281.44,-2849.92
1235,1.234999,1334,2949009,4760.3,-909.44,-2879.92
1236,1.236000,1335,2950010,-1991.7,15.559999999999999,-3871.92
1237,1.236999,1336,2951009,583.3,438.56,-4763.92
1238,1.237999,1337,2952009,8211.3,335.56,-5976.92
1239,1.239000,1338,2953010,16100.3,-221.44,-3379.92
1240,1.240000,1339,2954010,18862.3,-335.44,-154.92000000000007
1241,1.241000,1340,2955010,7987.3,476.56,-832.9200000000001
1242,1.242000,1341,2956010,-4458.7,789.56,487.0799999999999
1243,1.243000,1342,2957010,-8868.7,372.56,3335.08
1244,1.244000,1343,2958010,-5912.7,-80.44,3327.08
1245,1.245000,1344,2959010,958.3,-734.44,3314.08
1246,1.246000,1345,2960010,5244.3,-1237.44,4086.08
1247,1.247000,1346,2961010,923.3,-467.44,1955.08
1248,1.248000,1347,2962010,-4902.7,-210.44,658.0799999999999
1249,1.249000,1348,2963010,-17582.7,-805.44,2164.08
1250,1.250000,1349,2964010,-25141.7,-1027.44,2520.08
1251,1.250999,1350,2965009,-21318.7,9.559999999999999,1615.08
1252,1.251999,1351,2966009,-13716.7,444.56,1785.08
1253,1.252999,1352,2967009,152.3,40.56,3550.08
1254,1.254000,1353,2968010,8620.3,-389.44,3416.08
1255,1.255000,1354,2969010,9170.3,130.56,1127.08
1256,1.256000,1355,2970010,3716.3,1064.56,-1557.92
1257,1.257000,1356,2971010,3101.3,1214.56,-3610.92
1258,1.257999,1357,2972009,6450.3,1203.56,-3881.92
1259,1.258999,1358,2973009,7777.3,-18.44,-3118.92
1260,1.260000,1359,2974010,5750.3,-990.44,-2655.92
1261,1.260999,1360,2975009,-1839.7,-237.44,-3569.92
1262,1.262000,1361,2976010,351.3,325.56,-4369.92
1263,1.262999,1362,2977009,6707.3,525.56,-5958.92
1264,1.264000,1363,2978010,14486.3,-98.44,-4185.92
1265,1.264999,1364,2979009,19012.3,-443.44,-391.9200000000001
1266,1.266000,1365,2980010,10264.3,354.56,-735.9200000000001
1267,1.266999,1366,2981009,-1746.7,732.56,-76.92000000000007
1268,1.267999,1367,2982009,-8960.7,516.56,2808.08
1269,1.269000,1368,2983010,-6794.7,27.56,3485.08
1270,1.269999,1369,2984009,-388.7,-586.44,3168.08
1271,1.271000,1370,2985010,5072.3,-1149.44,4077.08
1272,1.271999,1371,2986009,3015.3,-659.44,2907.08
1273,1.273000,1372,2987010,-3540.7,-67.44,759.0799999999999
1274,1.274000,1373,2988010,-14150.7,-548.44,1770.08
1275,1.274999,1374,2989009,-25309.7,-1289.44,2549.08
1276,1.276000,1375,2990010,-22472.7,-293.44,1624.08
1277,1.276999,1376,2991009,-15259.7,407.56,1555.08
1278,1.278000,1377,2992010,-3190.7,92.56,3166.08
1279,1.279000,1378,2993010,7303.3,-239.44,3446.08
1280,1.280000,1379,2994010,8869.3,-99.44,1673.08
1281,1.280999,1380,2995009,5250.3,676.56,-655.9200000000001
1282,1.282000,1381,2996010,2954.3,1256.56,-3161.92
1283,1.283000,1382,2997010,5540.3,1394.56,-3925.92
1284,1.283999,1383,2998009,7295.3,271.56,-3260.92
1285,1.284999,1384,2999009,6946.3,-969.44,-2515.92
1286,1.286000,1385,3000010,-434.7,-567.44,-3242.92
1287,1.287000,1386,3001010,-1082.7,340.56,-4342.92
1288,1.288000,1387,3002010,5316.3,543.56,-5799.92
1289,1.289000,1388,3003010,12553.3,9.559999999999999,-4991.92
1290,1.290000,1389,3004010,18797.3,-340.44,-1122.92
1291,1.290999,1390,3005009,13714.3,89.56,-412.9200000000001
1292,1.292000,1391,3006010,1019.3,653.56,-515.9200000000001
1293,1.293000,1392,3007010,-8311.7,760.56,2181.08
1294,1.294000,1393,3008010,-7818.7,-64.44,3682.08
1295,1.294999,1394,3009009,-1993.7,-531.44,3109.08
1296,1.296000,1395,3010010,4082.3,-932.44,3846.08
1297,1.297000,1396,3011010,4009.3,-881.44,3407.08
1298,1.298000,1397,3012010,-2844.7,-78.44,831.0799999999999
1299,1.299000,1398,3013010,-10900.7,-372.44,1294.08
1300,1.300000,1399,3014010,-22676.7,-1394.44,2790.08
1301,1.301000,1400,3015010,-23435.7,-492.44,2115.08
1302,1.302000,1401,3016010,-17823.7,409.56,1428.08
1303,1.303000,1402,3017010,-6046.7,156.56,2847.08
1304,1.303999,1403,3018009,5136.3,18.56,3607.08
1305,1.305000,1404,3019010,8169.3,-200.44,1965.08
1306,1.306000,1405,3020010,7770.3,483.56,-125.92000000000007
1307,1.307000,1406,3021010,2526.3,1193.56,-2759.92
1308,1.308000,1407,3022010,4650.3,1408.56,-4053.92
1309,1.309000,1408,3023010,7737.3,620.56,-3369.92
1310,1.310000,1409,3024010,7264.3,-764.44,-2649.92
1311,1.311000,1410,3025010,2345.3,-750.44,-3029.92
1312,1.312000,1411,3026010,-2455.7,253.56,-4092.92
1313,1.313000,1412,3027010,2803.3,580.56,-5467.92
1314,1.314000,1413,3028010,11051.3,98.56,-5434.92
1315,1.314999,1414,3029009,17997.3,-417.44,-1707.92
1316,1.316000,1415,3030010,16498.3,-31.44,-181.92000000000007
1317,1.317000,1416,3031010,3562.3,617.56,-987.9200000000001
1318,1.317999,1417,3032009,-7468.7,788.56,1491.08
1319,1.319000,1418,3033010,-8595.7,141.56,3573.08
1320,1.320000,1419,3034010,-3229.7,-307.44,3019.08
1321,1.320999,1420,3035009,3011.3,-838.44,3614.08
1322,1.322000,1421,3036010,5359.3,-1054.44,3821.08
1323,1.323000,1422,3037010,-1148.7,-252.44,1332.08
1324,1.323999,1423,3038009,-8920.7,-332.44,1007.0799999999999
1325,1.325000,1424,3039010,-20214.7,-1291.44,2619.08
1326,1.326000,1425,3040010,-24231.7,-684.44,2261.08
1327,1.327000,1426,3041010,-20664.7,429.56,1229.08
1328,1.328000,1427,3042010,-9145.7,199.56,2410.08
1329,1.329000,1428,3043010,3732.3,-5.440000000000001,3615.08
1330,1.330000,1429,3044010,8691.3,-342.44,2604.08
1331,1.331000,1430,3045010,8637.3,275.56,573.0799999999999
1332,1.332000,1431,3046010,2182.3,1275.56,-2361.92
1333,1.333000,1432,3047010,3769.3,1434.56,-3840.92
1334,1.334000,1433,3048010,7411.3,720.56,-3480.92
1335,1.335000,1434,3049010,7726.3,-445.44,-2802.92
1336,1.336000,1435,3050010,4097.3,-729.44,-2876.92
1337,1.336999,1436,3051009,-2132.7,25.56,-3960.92
1338,1.338000,1437,3052010,1256.3,544.56,-5031.92
1339,1.339000,1438,3053010,8798.3,243.56,-5813.92
1340,1.339999,1439,3054009,17167.3,-439.44,-2839.92
1341,1.341000,1440,3055010,18131.3,-134.44,-222.92000000000007
1342,1.341999,1441,3056009,6464.3,546.56,-880.9200000000001
1343,1.343000,1442,3057010,-5106.7,685.56,894.0799999999999
1344,1.343999,1443,3058009,-8776.7,307.56,3465.08
1345,1.344999,1444,3059009,-5170.7,-164.44,3298.08
1346,1.346000,1445,3060010,1636.3,-763.44,3417.08
1347,1.347000,1446,3061010,5079.3,-1079.44,3933.08
1348,1.347999,1447,3062009,121.3,-327.44,1648.08
1349,1.349000,1448,3063010,-5761.7,-291.44,796.0799999999999
1350,1.350000,1449,3064010,-18183.7,-999.44,2470.08
1351,1.351000,1450,3065010,-24581.7,-949.44,2541.08
1352,1.352000,1451,3066010,-21244.7,196.56,1485.08
1353,1.353000,1452,3067010,-13102.7,356.56,1815.08
1354,1.354000,1453,3068010,1027.3,14.559999999999999,3421.08
1355,1.355000,1454,3069010,8914.3,-385.44,3193.08
1356,1.356000,1455,3070010,8941.3,123.56,942.0799999999999
1357,1.357000,1456,3071010,3874.3,1165.56,-1702.92
1358,1.357999,1457,3072009,3141.3,1242.56,-3584.92
1359,1.359000,1458,3073010,6523.3,1089.56,-3922.92
1360,1.360000,1459,3074010,7935.3,-80.44,-3017.92
1361,1.361000,1460,3075010,5105.3,-927.44,-2714.92
1362,1.362000,1461,3076010,-1816.7,-136.44,-3629.92
1363,1.363000,1462,3077010,606.3,377.56,-4413.92
1364,1.364000,1463,3078010,7700.3,437.56,-5978.92
1365,1.364999,1464,3079009,15057.3,-70.44,-3913.92
1366,1.365999,1465,3080009,18838.3,-414.44,-161.92000000000007
1367,1.366999,1466,3081009,9228.3,385.56,-582.9200000000001
1368,1.368000,1467,3082010,-3045.7,825.56,140.07999999999993
1369,1.368999,1468,3083009,-8880.7,423.56,3026.08
1370,1.369999,1469,3084009,-6329.7,-43.44,3407.08
1371,1.371000,1470,3085010,225.3,-610.44,3243.08
1372,1.372000,1471,3086010,5282.3,-1214.44,4132.08
1373,1.372999,1472,3087009,2383.3,-627.44,2511.08
1374,1.374000,1473,3088010,-4439.7,-74.44,611.0799999999999
1375,1.375000,1474,3089010,-15875.7,-744.44,1982.08
1376,1.376000,1475,3090010,-25565.7,-1227.44,2435.08
1377,1.377000,1476,3091010,-22142.7,-66.44,1393.08
1378,1.377999,1477,3092009,-14277.7,381.56,1801.08
1379,1.379000,1478,3093010,-1476.7,78.56,3406.08
1380,1.380000,1479,3094010,8250.3,-268.44,3374.08
1381,1.380999,1480,3095009,8849.3,-9.440000000000001,1369.08
1382,1.382000,1481,3096010,4430.3,882.56,-1003.9200000000001
1383,1.383000,1482,3097010,2872.3,1235.56,-3214.92
1384,1.384000,1483,3098010,5806.3,1361.56,-3893.92
1385,1.385000,1484,3099010,7667.3,183.56,-3163.92
1386,1.386000,1485,3100010,6476.3,-1008.44,-2551.92
1387,1.386999,1486,3101009,-852.7,-433.44,-3468.92
1388,1.387999,1487,3102009,-385.7,337.56,-4454.92
1389,1.389000,1488,3103010,6091.3,457.56,-5883.92
1390,1.389999,1489,3104009,13136.3,29.56,-4754.92
1391,1.390999,1490,3105009,18654.3,-322.44,-843.9200000000001
1392,1.392000,1491,3106010,12382.3,119.56,-551.9200000000001
1393,1.392999,1492,3107009,94.3,747.56,-416.9200000000001
1394,1.394000,1493,3108010,-8685.7,673.56,2504.08
1395,1.395000,1494,3109010,-7526.7,-77.44,3691.08
1396,1.395999,1495,3110009,-1419.7,-485.44,3207.08
1397,1.397000,1496,3111010,4103.3,-925.44,3848.08
1398,1.398000,1497,3112010,3882.3,-811.44,3191.08
1399,1.398999,1498,3113009,-3279.7,-56.44,834.0799999999999
1400,1.400000,1499,3114010,-11961.7,-428.44,1595.08
1401,1.401000,1500,3115010,-23734.7,-1370.44,2859.08
1402,1.402000,1501,3116010,-23513.7,-384.44,1831.08
1403,1.403000,1502,3117010,-16492.7,406.56,1422.08
1404,1.404000,1503,3118010,-4982.7,91.56,2987.08
1405,1.404999,1504,3119009,6119.3,-50.44,3520.08
1406,1.405999,1505,3120009,8711.3,-156.44,1867.08
1407,1.407000,1506,3121010,6637.3,492.56,-449.9200000000001
1408,1.408000,1507,3122010,3023.3,1261.56,-3040.92
1409,1.409000,1508,3123010,4883.3,1365.56,-3981.92
1410,1.410000,1509,3124010,7217.3,439.56,-3356.92
1411,1.411000,1510,3125010,6984.3,-794.44,-2589.92
1412,1.411999,1511,3126009,1020.3,-680.44,-3122.92
1413,1.413000,1512,3127010,-1156.7,280.56,-4133.92
1414,1.414000,1513,3128010,4370.3,561.56,-5603.92
1415,1.414999,1514,3129009,12003.3,90.56,-5269.92
1416,1.416000,1515,3130010,18190.3,-407.44,-1352.92
1417,1.416999,1516,3131009,14611.3,17.56,-302.9200000000001
1418,1.418000,1517,3132010,1983.3,737.56,-766.9200000000001
1419,1.419000,1518,3133010,-8012.7,768.56,1843.08
1420,1.419999,1519,3134009,-7894.7,-9.440000000000001,3609.08
1421,1.421000,1520,3135010,-2477.7,-380.44,3003.08
1422,1.422000,1521,3136010,3750.3,-850.44,3720.08
1423,1.423000,1522,3137010,4830.3,-1035.44,3699.08
1424,1.424000,1523,3138010,-1984.7,-177.44,1145.08
1425,1.425000,1524,3139010,-10141.7,-301.44,1259.08
1426,1.426000,1525,3140010,-21882.7,-1387.44,2721.08
1427,1.427000,1526,3141010,-24240.7,-552.44,1971.08
1428,1.428000,1527,3142010,-18936.7,447.56,1307.08
1429,1.429000,1528,3143010,-7529.7,73.56,2767.08
1430,1.429999,1529,3144009,4632.3,54.56,3576.08
1431,1.431000,1530,3145010,8808.3,-240.44,2380.08
1432,1.431999,1531,3146009,7644.3,268.56,310.0799999999999
1433,1.433000,1532,3147010,2777.3,1269.56,-2498.92
1434,1.433999,1533,3148009,3763.3,1444.56,-4013.92
1435,1.435000,1534,3149010,7444.3,690.56,-3564.92
1436,1.436000,1535,3150010,7994.3,-574.44,-2561.92
1437,1.437000,1536,3151010,2882.3,-817.44,-2951.92
1438,1.438000,1537,3152010,-1866.7,191.56,-4113.92
1439,1.438999,1538,3153009,1904.3,513.56,-5243.92
1440,1.440000,1539,3154010,9944.3,111.56,-5627.92
1441,1.441000,1540,3155010,17850.3,-315.44,-2311.92
1442,1.442000,1541,3156010,16969.3,-144.44,-224.92000000000007
1443,1.442999,1542,3157009,5059.3,586.56,-965.9200000000001
1444,1.443999,1543,3158009,-6107.7,793.56,1156.08
1445,1.445000,1544,3159010,-8990.7,162.56,3547.08
1446,1.446000,1545,3160010,-4007.7,-267.44,3169.08
1447,1.447000,1546,3161010,2183.3,-799.44,3560.08
1448,1.447999,1547,3162009,4955.3,-1061.44,3885.08
1449,1.449000,1548,3163010,-383.7,-341.44,1594.08
1450,1.449999,1549,3164009,-7720.7,-302.44,974.0799999999999
1451,1.451000,1550,3165010,-18895.7,-1105.44,2508.08
1452,1.452000,1551,3166010,-24450.7,-869.44,2482.08
1453,1.453000,1552,3167010,-21357.7,338.56,1372.08
1454,1.454000,1553,3168010,-11078.7,370.56,2148.08
1455,1.454999,1554,3169009,2327.3,-7.440000000000001,3561.08
1456,1.455999,1555,3170009,8980.3,-389.44,2780.08
1457,1.457000,1556,3171010,9228.3,241.56,689.0799999999999
1458,1.458000,1557,3172010,2933.3,1183.56,-2157.92
1459,1.458999,1558,3173009,3620.3,1289.56,-3776.92
1460,1.460000,1559,3174010,6898.3,966.56,-3806.92
1461,1.461000,1560,3175010,7854.3,-330.44,-3008.92
1462,1.462000,1561,3176010,4695.3,-885.44,-2818.92
1463,1.462999,1562,3177009,-1923.7,-22.44,-3872.92
1464,1.464000,1563,3178010,1142.3,507.56,-4791.92
1465,1.464999,1564,3179009,8314.3,313.56,-5883.92
1466,1.466000,1565,3180010,16385.3,-359.44,-3170.92
1467,1.467000,1566,3181010,18314.3,-209.44,-167.92000000000007
1468,1.468000,1567,3182010,7401.3,517.56,-832.9200000000001
1469,1.469000,1568,3183010,-4582.7,706.56,480.0799999999999
1470,1.470000,1569,3184010,-8800.7,348.56,3321.08
1471,1.470999,1570,3185009,-5520.7,-66.44,3320.08
1472,1.471999,1571,3186009,1267.3,-652.44,3306.08
1473,1.473000,1572,3187010,5214.3,-1168.44,4171.08
1474,1.474000,1573,3188010,902.3,-516.44,2079.08
1475,1.474999,1574,3189009,-5193.7,-267.44,816.0799999999999
1476,1.476000,1575,3190010,-17899.7,-889.44,2229.08
1477,1.477000,1576,3191010,-25319.7,-973.44,2375.08
1478,1.477999,1577,3192009,-21687.7,127.56,1400.08
1479,1.479000,1578,3193010,-13393.7,370.56,1805.08
1480,1.479999,1579,3194009,681.3,14.559999999999999,3499.08
1481,1.480999,1580,3195009,8960.3,-404.44,3324.08
1482,1.482000,1581,3196010,9005.3,93.56,1210.08
1483,1.483000,1582,3197010,3659.3,1126.56,-1441.92
1484,1.484000,1583,3198010,2815.3,1281.56,-3604.92
1485,1.485000,1584,3199010,6439.3,1178.56,-3911.92
1486,1.486000,1585,3200010,7971.3,19.56,-3044.92
1487,1.486999,1586,3201009,5847.3,-1003.44,-2714.92
1488,1.488000,1587,3202010,-1334.7,-306.44,-3609.92
1489,1.489000,1588,3203010,215.3,353.56,-4482.92
1490,1.490000,1589,3204010,6957.3,449.56,-6008.92
1491,1.491000,1590,3205010,14280.3,-25.44,-4263.92
1492,1.491999,1591,3206009,18771.3,-419.44,-515.9200000000001
1493,1.493000,1592,3207010,10514.3,306.56,-594.9200000000001
1494,1.493999,1593,3208009,-1627.7,737.56,67.07999999999993
1495,1.494999,1594,3209009,-8899.7,494.56,2769.08
1496,1.495999,1595,3210009,-6986.7,34.56,3471.08
1497,1.497000,1596,3211010,-777.7,-554.44,3319.08
1498,1.498000,1597,3212010,4803.3,-1101.44,4050.08
1499,1.499000,1598,3213010,2968.3,-671.44,2760.08
1500,1.500000,1599,3214010,-3797.7,-97.44,744.0799999999999
1501,1.501000,1600,3215010,-14501.7,-583.44,1934.08
1502,1.502000,1601,3216010,-24835.7,-1284.44,2740.08
1503,1.503000,1602,3217010,-22551.7,-256.44,1653.08
1504,1.504000,1603,3218010,-15460.7,495.56,1528.08
1505,1.505000,1604,3219010,-2627.7,89.56,3312.08
1506,1.506000,1605,3220010,7378.3,-262.44,3394.08
1507,1.507000,1606,3221010,9039.3,-4.440000000000001,1366.08
1508,1.508000,1607,3222010,5343.3,752.56,-839.9200000000001
1509,1.509000,1608,3223010,3158.3,1200.56,-3170.92
1510,1.510000,1609,3224010,5287.3,1385.56,-3998.92
1511,1.511000,1610,3225010,7200.3,286.56,-3375.92
1512,1.512000,1611,3226010,6908.3,-943.44,-2579.92
1513,1.513000,1612,3227010,-287.7,-556.44,-3297.92
1514,1.513999,1613,3228009,-152.7,313.56,-4176.92
1515,1.514999,1614,3229009,5604.3,570.56,-5733.92
1516,1.516000,1615,3230010,12482.3,45.56,-4959.92
1517,1.516999,1616,3231009,18323.3,-329.44,-918.9200000000001
1518,1.518000,1617,3232010,12743.3,113.56,-427.9200000000001
1519,1.519000,1618,3233010,794.3,683.56,-535.9200000000001
1520,1.519999,1619,3234009,-8192.7,654.56,2338.08
1521,1.521000,1620,3235010,-7667.7,11.559999999999999,3678.08
1522,1.522000,1621,3236010,-1655.7,-396.44,3087.08
1523,1.523000,1622,3237010,4090.3,-1026.44,3832.08
1524,1.523999,1623,3238009,4140.3,-926.44,3389.08
1525,1.525000,1624,3239010,-3065.7,-121.44,951.0799999999999
1526,1.525999,1625,3240009,-11713.7,-463.44,1437.08
1527,1.527000,1626,3241010,-23309.7,-1366.44,2699.08
1528,1.528000,1627,3242010,-23830.7,-392.44,1754.08
1529,1.529000,1628,3243010,-17119.7,433.56,1340.08
1530,1.530000,1629,3244010,-5190.7,20.56,3043.08
1531,1.530999,1630,3245009,5725.3,-28.44,3584.08
1532,1.532000,1631,3246010,8741.3,-85.44,2037.08
1533,1.532999,1632,3247009,6796.3,419.56,-118.92000000000007
1534,1.533999,1633,3248009,2685.3,1255.56,-2883.92
1535,1.535000,1634,3249010,4626.3,1516.56,-4081.92
1536,1.536000,1635,3250010,7186.3,479.56,-3434.92
1537,1.537000,1636,3251010,7838.3,-822.44,-2521.92
1538,1.537999,1637,3252009,1837.3,-756.44,-3145.92
1539,1.539000,1638,3253010,-1864.7,219.56,-4255.92
1540,1.540000,1639,3254010,3283.3,530.56,-5476.92
1541,1.540999,1640,3255009,10933.3,50.56,-5468.92
1542,1.542000,1641,3256010,17910.3,-268.44,-1746.92
1543,1.543000,1642,3257010,15837.3,-41.44,-156.92000000000007
1544,1.544000,1643,3258010,3537.3,597.56,-811.9200000000001
1545,1.544999,1644,3259009,-7263.7,875.56,1618.08
1546,1.546000,1645,3260010,-8604.7,27.56,3719.08
1547,1.546999,1646,3261009,-3172.7,-388.44,3159.08
1548,1.548000,1647,3262010,2872.3,-751.44,3602.08
1549,1.548999,1648,3263009,4927.3,-977.44,3762.08
1550,1.550000,1649,3264010,-1448.7,-273.44,1373.08
1551,1.550999,1650,3265009,-9313.7,-248.44,1049.08
1552,1.552000,1651,3266010,-20296.7,-1308.44,2765.08
1553,1.552999,1652,3267009,-24242.7,-744.44,2265.08
1554,1.554000,1653,3268010,-20037.7,453.56,1195.08
1555,1.555000,1654,3269010,-8921.7,201.56,2420.08
1556,1.556000,1655,3270010,3738.3,25.56,3496.08
1557,1.557000,1656,3271010,8727.3,-328.44,2448.08
1558,1.557999,1657,3272009,8580.3,262.56,335.0799999999999
1559,1.558999,1658,3273009,2613.3,1273.56,-2520.92
1560,1.560000,1659,3274010,4031.3,1342.56,-3936.92
1561,1.561000,1660,3275010,7424.3,756.56,-3633.92
1562,1.562000,1661,3276010,7666.3,-460.44,-2801.92
1563,1.563000,1662,3277010,3936.3,-829.44,-2815.92
1564,1.563999,1663,3278009,-2131.7,119.56,-3991.92
1565,1.565000,1664,3279010,1713.3,574.56,-5054.92
1566,1.565999,1665,3280009,9222.3,190.56,-5746.92
1567,1.567000,1666,3281010,17208.3,-397.44,-2564.92
1568,1.568000,1667,3282010,17588.3,-136.44,-34.92000000000007
1569,1.568999,1668,3283009,5707.3,562.56,-975.9200000000001
1570,1.570000,1669,3284010,-5753.7,841.56,980.0799999999999
1571,1.571000,1670,3285010,-8895.7,233.56,3632.08
1572,1.572000,1671,3286010,-4388.7,-167.44,3208.08
1573,1.573000,1672,3287010,2048.3,-750.44,3406.08
1574,1.574000,1673,3288010,5241.3,-1248.44,3950.08
1575,1.575000,1674,3289010,35.3,-378.44,1679.08
1576,1.576000,1675,3290010,-7121.7,-258.44,893.0799999999999
1577,1.576999,1676,3291009,-18875.7,-1068.44,2405.08
1578,1.578000,1677,3292010,-24708.7,-844.44,2271.08
1579,1.579000,1678,3293010,-21396.7,281.56,1276.08
1580,1.579999,1679,3294009,-11655.7,268.56,2131.08
1581,1.581000,1680,3295010,2354.3,-28.44,3673.08
1582,1.581999,1681,3296009,9070.3,-367.44,3032.08
1583,1.583000,1682,3297010,8849.3,224.56,848.0799999999999
1584,1.583999,1683,3298009,3047.3,1217.56,-1913.92
1585,1.584999,1684,3299009,2981.3,1327.56,-3819.92
1586,1.586000,1685,3300010,7137.3,1008.56,-3832.92
1587,1.587000,1686,3301010,7914.3,-240.44,-2909.92
1588,1.587999,1687,3302009,5117.3,-920.44,-2695.92
1589,1.589000,1688,3303010,-1930.7,-67.44,-3772.92
1590,1.590000,1689,3304010,296.3,446.56,-4754.92
1591,1.591000,1690,3305010,7832.3,366.56,-5905.92
1592,1.592000,1691,3306010,15601.3,-228.44,-3595.92
1593,1.593000,1692,3307010,19092.3,-335.44,-219.92000000000007
1594,1.594000,1693,3308010,8522.3,420.56,-675.9200000000001
1595,1.595000,1694,3309010,-3544.7,702.56,298.0799999999999
1596,1.596000,1695,3310010,-8881.7,411.56,3071.08
1597,1.596999,1696,3311009,-6357.7,-63.44,3367.08
1598,1.598000,1697,3312010,439.3,-705.44,3325.08
1599,1.599000,1698,3313010,5135.3,-1070.44,3988.08
1600,1.600000,1699,3314010,1690.3,-526.44,2294.08
1601,1.600999,1700,3315009,-4516.7,-220.44,774.0799999999999
1602,1.601999,1701,3316009,-16428.7,-669.44,2096.08
1603,1.603000,1702,3317010,-25238.7,-1143.44,2619.08
1604,1.604000,1703,3318010,-21939.7,-67.44,1548.08
1605,1.605000,1704,3319010,-14261.7,501.56,1785.08
1606,1.606000,1705,3320010,-873.7,15.559999999999999,3421.08
1607,1.607000,1706,3321010,8442.3,-362.44,3251.08
1608,1.608000,1707,3322010,9219.3,84.56,1206.08
1609,1.609000,1708,3323010,4235.3,913.56,-1272.92
1610,1.610000,1709,3324010,3233.3,1210.56,-3355.92
1611,1.610999,1710,3325009,5913.3,1260.56,-3929.92
1612,1.612000,1711,3326010,7543.3,138.56,-3271.92
1613,1.613000,1712,3327010,6168.3,-972.44,-2586.92
1614,1.614000,1713,3328010,-1391.7,-390.44,-3422.92
1615,1.614999,1714,3329009,246.3,378.56,-4391.92
1616,1.616000,1715,3330010,6674.3,488.56,-5903.92
1617,1.617000,1716,3331010,13588.3,-46.44,-4448.92
1618,1.618000,1717,3332010,18769.3,-340.44,-603.9200000000001
1619,1.619000,1718,3333010,11267.3,232.56,-541.9200000000001
1620,1.619999,1719,3334009,-1043.7,738.56,-219.92000000000007
1621,1.621000,1720,3335010,-8619.7,590.56,2632.08
1622,1.621999,1721,3336009,-7314.7,-15.440000000000001,3594.08
1623,1.623000,1722,3337010,-839.7,-533.44,3219.08
1624,1.624000,1723,3338010,4797.3,-1131.44,3993.08
1625,1.625000,1724,3339010,3434.3,-775.44,2993.08
1626,1.626000,1725,3340010,-3572.7,-66.44,738.0799999999999
1627,1.627000,1726,3341010,-13562.7,-501.44,1585.08
1628,1.628000,1727,3342010,-24492.7,-1276.44,2646.08
1629,1.629000,1728,3343010,-23049.7,-299.44,1690.08
1630,1.630000,1729,3344010,-15562.7,444.56,1555.08
1631,1.630999,1730,3345009,-3420.7,55.56,3305.08
1632,1.631999,1731,3346009,6861.3,-136.44,3498.08
1633,1.632999,1732,3347009,8622.3,2.5599999999999987,1730.08
1634,1.634000,1733,3348010,5660.3,611.56,-486.9200000000001
1635,1.635000,1734,3349010,2969.3,1252.56,-3056.92
1636,1.636000,1735,3350010,4918.3,1417.56,-4060.92
1637,1.637000,1736,3351010,7484.3,381.56,-3389.92
1638,1.637999,1737,3352009,7376.3,-985.44,-2491.92
1639,1.638999,1738,3353009,450.3,-673.44,-3221.92
1640,1.639999,1739,3354009,-1472.7,372.56,-4317.92
1641,1.641000,1740,3355010,4175.3,469.56,-5670.92
1642,1.642000,1741,3356010,11951.3,47.56,-5094.92
1643,1.642999,1742,3357009,18340.3,-280.44,-1339.92
1644,1.643999,1743,3358009,14805.3,23.56,-298.9200000000001
1645,1.644999,1744,3359009,2065.3,658.56,-648.9200000000001
1646,1.646000,1745,3360010,-8153.7,797.56,1844.08
1647,1.646999,1746,3361009,-8216.7,25.56,3699.08
1648,1.648000,1747,3362010,-2662.7,-448.44,3106.08
1649,1.649000,1748,3363010,3879.3,-861.44,3775.08
1650,1.649999,1749,3364009,4427.3,-903.44,3542.08
1651,1.650999,1750,3365009,-2252.7,-191.44,1078.08
1652,1.652000,1751,3366010,-10029.7,-335.44,1332.08
1653,1.652999,1752,3367009,-21788.7,-1392.44,2751.08
1654,1.654000,1753,3368010,-23466.7,-597.44,2174.08
1655,1.655000,1754,3369010,-18966.7,457.56,1246.08
1656,1.656000,1755,3370010,-7214.7,145.56,2595.08
1657,1.657000,1756,3371010,4617.3,22.56,3541.08
1658,1.658000,1757,3372010,8539.3,-246.44,2138.08
1659,1.658999,1758,3373009,8207.3,385.56,53.07999999999993
1660,1.660000,1759,3374010,2500.3,1238.56,-2676.92
1661,1.660999,1760,3375009,4313.3,1394.56,-3921.92
1662,1.662000,1761,3376010,7170.3,692.56,-3451.92
1663,1.663000,1762,3377010,7553.3,-661.44,-2663.92
1664,1.663999,1763,3378009,2915.3,-774.44,-2995.92
1665,1.665000,1764,3379010,-2082.7,259.56,-4088.92
1666,1.666000,1765,3380010,2483.3,542.56,-5188.92
1667,1.667000,1766,3381010,10184.3,100.56,-5507.92
1668,1.668000,1767,3382010,17478.3,-290.44,-2156.92
1669,1.669000,1768,3383010,16673.3,-53.44,-156.92000000000007
1670,1.670000,1769,3384010,4584.3,587.56,-861.9200000000001
1671,1.671000,1770,3385010,-6530.7,857.56,1320.08
1672,1.672000,1771,3386010,-8658.7,174.56,3638.08
1673,1.672999,1772,3387009,-3506.7,-294.44,3179.08
1674,1.674000,1773,3388010,2479.3,-835.44,3491.08
1675,1.675000,1774,3389010,4977.3,-1046.44,3807.08
1676,1.676000,1775,3390010,-698.7,-350.44,1525.08
1677,1.676999,1776,3391009,-8300.7,-326.44,835.0799999999999
1678,1.678000,1777,3392010,-19270.7,-1151.44,2434.08
1679,1.679000,1778,3393010,-24059.7,-862.44,2340.08
1680,1.680000,1779,3394010,-20638.7,341.56,1359.08
1681,1.681000,1780,3395010,-10610.7,309.56,2256.08
1682,1.681999,1781,3396009,2806.3,-19.44,3517.08
1683,1.683000,1782,3397010,8743.3,-368.44,2820.08
1684,1.683999,1783,3398009,8675.3,246.56,716.0799999999999
1685,1.685000,1784,3399010,2952.3,1224.56,-2100.92
1686,1.686000,1785,3400010,3421.3,1373.56,-3815.92
1687,1.687000,1786,3401010,7384.3,843.56,-3665.92
1688,1.688000,1787,3402010,7728.3,-327.44,-2806.92
1689,1.689000,1788,3403010,4376.3,-826.44,-2766.92
1690,1.689999,1789,3404009,-1926.7,-47.44,-3892.92
1691,1.690999,1790,3405009,756.3,472.56,-4781.92
1692,1.692000,1791,3406010,8184.3,325.56,-5779.92
1693,1.693000,1792,3407010,16267.3,-300.44,-3328.92
1694,1.694000,1793,3408010,18516.3,-206.44,-220.92000000000007
1695,1.695000,1794,3409010,7571.3,483.56,-735.9200000000001
1696,1.696000,1795,3410010,-4380.7,704.56,518.0799999999999
1697,1.696999,1796,3411009,-8928.7,387.56,3234.08
1698,1.698000,1797,3412010,-5520.7,-115.44,3415.08
1699,1.699000,1798,3413010,865.3,-701.44,3354.08
1700,1.700000,1799,3414010,5122.3,-1083.44,3953.08
1701,1.701000,1800,3415010,1406.3,-529.44,2156.08
1702,1.702000,1801,3416010,-5050.7,-224.44,703.0799999999999
1703,1.702999,1802,3417009,-17183.7,-790.44,2156.08
1704,1.704000,1803,3418010,-24979.7,-1192.44,2632.08
1705,1.705000,1804,3419010,-21538.7,50.56,1384.08
1706,1.705999,1805,3420009,-13688.7,491.56,1706.08
1707,1.707000,1806,3421010,-134.7,-23.44,3385.08
1708,1.708000,1807,3422010,8847.3,-394.44,3161.08
1709,1.709000,1808,3423010,9092.3,107.56,1080.08
1710,1.710000,1809,3424010,3674.3,1053.56,-1523.92
1711,1.711000,1810,3425010,3270.3,1268.56,-3370.92
1712,1.712000,1811,3426010,6124.3,1215.56,-3804.92
1713,1.712999,1812,3427009,7779.3,3.5599999999999987,-3113.92
1714,1.714000,1813,3428010,5754.3,-979.44,-2557.92
1715,1.714999,1814,3429009,-1795.7,-195.44,-3605.92
1716,1.715999,1815,3430009,745.3,376.56,-4380.92
1717,1.717000,1816,3431010,6767.3,436.56,-5897.92
1718,1.718000,1817,3432010,14080.3,-21.44,-4267.92
1719,1.719000,1818,3433010,19075.3,-380.44,-430.9200000000001
1720,1.719999,1819,3434009,10242.3,239.56,-634.9200000000001
1721,1.720999,1820,3435009,-1949.7,840.56,-155.92000000000007
1722,1.721999,1821,3436009,-8634.7,525.56,2857.08
1723,1.723000,1822,3437010,-6760.7,-115.44,3671.08
1724,1.724000,1823,3438010,-567.7,-506.44,3157.08
1725,1.724999,1824,3439009,4885.3,-1133.44,3970.08
1726,1.725999,1825,3440009,2881.3,-785.44,2779.08
1727,1.727000,1826,3441010,-3801.7,-80.44,625.0799999999999
1728,1.728000,1827,3442010,-14119.7,-543.44,1715.08
1729,1.729000,1828,3443010,-24668.7,-1292.44,2648.08
1730,1.730000,1829,3444010,-22224.7,-255.44,1694.08
1731,1.731000,1830,3445010,-15123.7,426.56,1576.08
1732,1.731999,1831,3446009,-3062.7,114.56,3209.08
1733,1.733000,1832,3447010,7081.3,-239.44,3499.08
1734,1.733999,1833,3448009,8529.3,-48.44,1602.08
1735,1.735000,1834,3449010,5336.3,816.56,-768.9200000000001
1736,1.735999,1835,3450009,2908.3,1206.56,-3159.92
1737,1.736999,1836,3451009,5469.3,1344.56,-4028.92
1738,1.738000,1837,3452010,7408.3,375.56,-3299.92
1739,1.739000,1838,3453010,6821.3,-934.44,-2463.92
1740,1.740000,1839,3454010,0.29999999999999716,-593.44,-3179.92
1741,1.741000,1840,3455010,-1236.7,350.56,-4235.92
1742,1.742000,1841,3456010,5064.3,521.56,-5695.92
1743,1.742999,1842,3457009,12427.3,54.56,-4945.92
1744,1.744000,1843,3458010,18587.3,-350.44,-1033.92
1745,1.745000,1844,3459010,13787.3,65.56,-372.9200000000001
1746,1.746000,1845,3460010,1127.3,654.56,-635.9200000000001
1747,1.747000,1846,3461010,-8416.7,675.56,2073.08
1748,1.748000,1847,3462010,-8149.7,43.56,3570.08
1749,1.749000,1848,3463010,-1960.7,-470.44,3104.08
1750,1.749999,1849,3464009,3930.3,-973.44,3765.08
1751,1.750999,1850,3465009,4592.3,-863.44,3380.08
1752,1.752000,1851,3466010,-2407.7,-109.44,1037.08
1753,1.753000,1852,3467010,-10754.7,-348.44,1384.08
1754,1.754000,1853,3468010,-21999.7,-1407.44,2836.08
1755,1.755000,1854,3469010,-23824.7,-532.44,1945.08
1756,1.756000,1855,3470010,-18112.7,474.56,1227.08
1757,1.756999,1856,3471009,-6374.7,86.56,2887.08
1758,1.757999,1857,3472009,4937.3,-4.440000000000001,3520.08
1759,1.759000,1858,3473010,8700.3,-191.44,2073.08
1760,1.760000,1859,3474010,7306.3,367.56,-14.920000000000073
1761,1.761000,1860,3475010,2628.3,1213.56,-2735.92
1762,1.762000,1861,3476010,4407.3,1427.56,-3908.92
1763,1.763000,1862,3477010,6941.3,606.56,-3473.92
1764,1.764000,1863,3478010,7782.3,-703.44,-2527.92
1765,1.764999,1864,3479009,2437.3,-721.44,-2935.92
1766,1.765999,1865,3480009,-2152.7,274.56,-4214.92
1767,1.766999,1866,3481009,2825.3,538.56,-5324.92
1768,1.767999,1867,3482009,10574.3,86.56,-5425.92
1769,1.769000,1868,3483010,17813.3,-264.44,-1963.92
1770,1.769999,1869,3484009,16330.3,-52.44,-182.92000000000007
1771,1.771000,1870,3485010,4121.3,582.56,-885.9200000000001
1772,1.772000,1871,3486010,-6702.7,861.56,1405.08
1773,1.772999,1872,3487009,-8501.7,88.56,3688.08
1774,1.774000,1873,3488010,-3489.7,-352.44,3125.08
1775,1.775000,1874,3489010,2726.3,-796.44,3534.08
1776,1.776000,1875,3490010,4850.3,-1073.44,3830.08
1777,1.777000,1876,3491010,-1039.7,-316.44,1365.08
1778,1.778000,1877,3492010,-8644.7,-282.44,843.0799999999999
1779,1.779000,1878,3493010,-19392.7,-1255.44,2552.08
1780,1.780000,1879,3494010,-23852.7,-823.44,2366.08
1781,1.781000,1880,3495010,-20723.7,452.56,1262.08
1782,1.781999,1881,3496009,-9900.7,284.56,2313.08
1783,1.783000,1882,3497010,2905.3,-10.440000000000001,3544.08
1784,1.784000,1883,3498010,8931.3,-309.44,2704.08
1785,1.785000,1884,3499010,8522.3,238.56,650.0799999999999
1786,1.786000,1885,3500010,2808.3,1258.56,-2239.92
1787,1.786999,1886,3501009,3536.3,1373.56,-3869.92
1788,1.787999,1887,3502009,7133.3,833.56,-3666.92
1789,1.788999,1888,3503009,8148.3,-321.44,-2755.92
1790,1.790000,1889,3504010,4072.3,-823.44,-2868.92
1791,1.790999,1890,3505009,-1996.7,22.56,-3912.92
1792,1.792000,1891,3506010,622.3,492.56,-4798.92
1793,1.793000,1892,3507010,8365.3,298.56,-5821.92
1794,1.794000,1893,3508010,16956.3,-309.44,-3035.92
1795,1.795000,1894,3509010,18196.3,-276.44,-161.92000000000007
1796,1.795999,1895,3510009,7222.3,488.56,-835.9200000000001
1797,1.796999,1896,3511009,-4659.7,757.56,667.0799999999999
1798,1.798000,1897,3512010,-9206.7,328.56,3354.08
1799,1.798999,1898,3513009,-5387.7,-107.44,3276.08
1800,1.800000,1899,3514010,1332.3,-728.44,3319.08
1801,1.801000,1900,3515010,5232.3,-1162.44,3972.08
1802,1.801999,1901,3516009,1030.3,-423.44,1959.08
1803,1.802999,1902,3517009,-5376.7,-291.44,821.0799999999999
1804,1.804000,1903,3518010,-17850.7,-891.44,2260.08
1805,1.805000,1904,3519010,-24835.7,-993.44,2510.08
1806,1.806000,1905,3520010,-21413.7,83.56,1463.08
1807,1.807000,1906,3521010,-13347.7,434.56,1778.08
1808,1.808000,1907,3522010,751.3,9.559999999999999,3453.08
1809,1.809000,1908,3523010,8840.3,-422.44,3236.08
1810,1.810000,1909,3524010,9023.3,184.56,1054.08
1811,1.811000,1910,3525010,3477.3,1115.56,-1568.92
1812,1.812000,1911,3526010,2918.3,1232.56,-3463.92
1813,1.813000,1912,3527010,6414.3,1192.56,-3757.92
1814,1.814000,1913,3528010,7898.3,-68.44,-2978.92
1815,1.814999,1914,3529009,5744.3,-923.44,-2565.92
1816,1.815999,1915,3530009,-1872.7,-189.44,-3592.92
1817,1.816999,1916,3531009,353.3,310.56,-4486.92
1818,1.818000,1917,3532010,6913.3,433.56,-5964.92
1819,1.818999,1918,3533009,14304.3,-101.44,-4202.92
1820,1.820000,1919,3534010,19126.3,-375.44,-422.9200000000001
1821,1.821000,1920,3535010,10101.3,304.56,-625.9200000000001
1822,1.822000,1921,3536010,-1938.7,764.56,-6.920000000000073
1823,1.823000,1922,3537010,-8663.7,520.56,2898.08
1824,1.823999,1923,3538009,-6699.7,-75.44,3630.08
1825,1.824999,1924,3539009,-374.7,-613.44,3264.08
1826,1.826000,1925,3540010,4778.3,-1103.44,3987.08
1827,1.827000,1926,3541010,2583.3,-697.44,2763.08
1828,1.828000,1927,3542010,-4130.7,-131.44,609.0799999999999
1829,1.829000,1928,3543010,-14456.7,-558.44,1656.08
1830,1.830000,1929,3544010,-24748.7,-1287.44,2729.08
1831,1.831000,1930,3545010,-22150.7,-318.44,1792.08
1832,1.832000,1931,3546010,-14694.7,427.56,1618.08
1833,1.833000,1932,3547010,-2858.7,110.56,3209.08
1834,1.833999,1933,3548009,7110.3,-248.44,3395.08
1835,1.834999,1934,3549009,8657.3,-32.44,1564.08
1836,1.836000,1935,3550010,4947.3,786.56,-861.9200000000001
1837,1.837000,1936,3551010,3174.3,1274.56,-3229.92
1838,1.838000,1937,3552010,5650.3,1309.56,-3886.92
1839,1.839000,1938,3553010,7639.3,272.56,-3243.92
1840,1.840000,1939,3554010,7021.3,-933.44,-2530.92
1841,1.841000,1940,3555010,-453.7,-563.44,-3325.92
1842,1.842000,1941,3556010,-1130.7,305.56,-4243.92
1843,1.843000,1942,3557010,4956.3,507.56,-5630.92
1844,1.844000,1943,3558010,12418.3,112.56,-5009.92
1845,1.845000,1944,3559010,18717.3,-329.44,-1075.92
1846,1.845999,1945,3560009,13613.3,23.56,-261.9200000000001
1847,1.846999,1946,3561009,1054.3,652.56,-533.9200000000001
1848,1.848000,1947,3562010,-8503.7,744.56,2047.08
1849,1.849000,1948,3563010,-8104.7,-12.440000000000001,3687.08
1850,1.850000,1949,3564010,-1837.7,-471.44,3183.08
1851,1.851000,1950,3565010,4197.3,-894.44,3772.08
1852,1.852000,1951,3566010,4269.3,-910.44,3323.08
1853,1.852999,1952,3567009,-2584.7,-94.44,883.0799999999999
1854,1.854000,1953,3568010,-10973.7,-328.44,1331.08
1855,1.855000,1954,3569010,-22758.7,-1460.44,2901.08
1856,1.856000,1955,3570010,-23507.7,-454.44,1955.08
1857,1.856999,1956,3571009,-17510.7,479.56,1194.08
1858,1.858000,1957,3572010,-5997.7,24.56,2878.08
1859,1.859000,1958,3573010,5225.3,38.56,3518.08
1860,1.860000,1959,3574010,8582.3,-158.44,2079.08
1861,1.860999,1960,3575009,7011.3,408.56,-117.92000000000007
1862,1.862000,1961,3576010,2630.3,1310.56,-2832.92
1863,1.863000,1962,3577010,4526.3,1421.56,-3893.92
1864,1.864000,1963,3578010,7297.3,504.56,-3351.92
1865,1.865000,1964,3579010,7657.3,-707.44,-2507.92
1866,1.865999,1965,3580009,2173.3,-676.44,-3022.92
1867,1.867000,1966,3581010,-1791.7,282.56,-4138.92
1868,1.867999,1967,3582009,2415.3,502.56,-5353.92
1869,1.869000,1968,3583010,10720.3,102.56,-5488.92
1870,1.870000,1969,3584010,17986.3,-289.44,-1974.92
1871,1.871000,1970,3585010,15914.3,-88.44,-213.92000000000007
1872,1.872000,1971,3586010,4096.3,637.56,-781.9200000000001
1873,1.873000,1972,3587010,-6875.7,864.56,1492.08
1874,1.874000,1973,3588010,-8501.7,91.56,3755.08
1875,1.875000,1974,3589010,-3271.7,-360.44,3224.08
1876,1.876000,1975,3590010,2722.3,-775.44,3527.08
1877,1.877000,1976,3591010,4704.3,-1051.44,3791.08
1878,1.878000,1977,3592010,-1342.7,-273.44,1376.08
1879,1.878999,1978,3593009,-8674.7,-243.44,861.0799999999999
1880,1.880000,1979,3594010,-19503.7,-1257.44,2615.08
1881,1.881000,1980,3595010,-23332.7,-814.44,2490.08
1882,1.882000,1981,3596010,-20277.7,456.56,1253.08
1883,1.883000,1982,3597010,-10061.7,265.56,2200.08
1884,1.884000,1983,3598010,3248.3,-60.44,3591.08
1885,1.885000,1984,3599010,8344.3,-367.44,2686.08
1886,1.886000,1985,3600010,8696.3,308.56,457.0799999999999
1887,1.887000,1986,3601010,2844.3,1195.56,-2343.92
1888,1.887999,1987,3602009,3523.3,1344.56,-3855.92
1889,1.888999,1988,3603009,7619.3,882.56,-3553.92
1890,1.890000,1989,3604010,7627.3,-458.44,-2736.92
1891,1.891000,1990,3605010,4033.3,-740.44,-2845.92
1892,1.891999,1991,3606009,-2035.7,83.56,-3818.92
1893,1.892999,1992,3607009,821.3,451.56,-4730.92
1894,1.894000,1993,3608010,8767.3,339.56,-5721.92
1895,1.895000,1994,3609010,16779.3,-307.44,-3010.92
1896,1.895999,1995,3610009,17912.3,-255.44,-138.92000000000007
1897,1.896999,1996,3611009,6667.3,535.56,-845.9200000000001
1898,1.897999,1997,3612009,-4983.7,676.56,725.0799999999999
1899,1.899000,1998,3613010,-8967.7,328.56,3350.08
1900,1.899999,1999,3614009,-5240.7,-140.44,3289.08
1901,1.901000,2000,3615010,1437.3,-805.44,3297.08
1902,1.902000,2001,3616010,5399.3,-1100.44,3889.08
1903,1.902999,2002,3617009,848.3,-431.44,2037.08
1904,1.904000,2003,3618010,-5496.7,-261.44,746.0799999999999
1905,1.905000,2004,3619010,-17557.7,-863.44,2175.08
1906,1.905999,2005,3620009,-24488.7,-1073.44,2572.08
1907,1.906999,2006,3621009,-21120.7,186.56,1379.08
1908,1.908000,2007,3622010,-13237.7,429.56,1744.08
1909,1.909000,2008,3623010,757.3,-119.44,3444.08
1910,1.910000,2009,3624010,8795.3,-401.44,3194.08
1911,1.910999,2010,3625009,8703.3,176.56,971.0799999999999
1912,1.912000,2011,3626010,3340.3,1130.56,-1718.92
1913,1.913000,2012,3627010,2976.3,1262.56,-3447.92
1914,1.914000,2013,3628010,6350.3,1179.56,-3694.92
1915,1.915000,2014,3629010,7925.3,-24.44,-2915.92
1916,1.915999,2015,3630009,5555.3,-916.44,-2512.92
1917,1.917000,2016,3631010,-1779.7,-224.44,-3542.92
1918,1.918000,2017,3632010,153.3,354.56,-4385.92
1919,1.918999,2018,3633009,6771.3,425.56,-5840.92
1920,1.920000,2019,3634010,14181.3,-21.44,-4258.92
1921,1.920999,2020,3635009,18711.3,-373.44,-546.9200000000001
1922,1.922000,2021,3636010,10352.3,273.56,-627.9200000000001
1923,1.922999,2022,3637009,-1692.7,756.56,-44.92000000000007
1924,1.924000,2023,3638010,-8637.7,490.56,2839.08
1925,1.925000,2024,3639010,-6899.7,-57.44,3597.08
1926,1.926000,2025,3640010,-497.7,-581.44,3181.08
1927,1.927000,2026,3641010,4716.3,-1069.44,3919.08
1928,1.927999,2027,3642009,2874.3,-661.44,2814.08
1929,1.928999,2028,3643009,-3875.7,-70.44,609.0799999999999
1930,1.930000,2029,3644010,-13773.7,-545.44,1563.08
1931,1.931000,2030,3645010,-23931.7,-1301.44,2771.08
1932,1.932000,2031,3646010,-21870.7,-346.44,1783.08
1933,1.932999,2032,3647009,-15069.7,390.56,1559.08
1934,1.934000,2033,3648010,-3260.7,67.56,3207.08
1935,1.935000,2034,3649010,6581.3,-201.44,3224.08
1936,1.936000,2035,3650010,8220.3,-29.44,1374.08
1937,1.936999,2036,3651009,5234.3,731.56,-809.9200000000001
1938,1.938000,2037,3652010,2927.3,1229.56,-3151.92
1939,1.939000,2038,3653010,5765.3,1320.56,-3776.92
1940,1.940000,2039,3654010,7418.3,371.56,-3214.92
1941,1.941000,2040,3655010,7117.3,-891.44,-2429.92
1942,1.941999,2041,3656009,-19.700000000000003,-623.44,-3102.92
1943,1.943000,2042,3657010,-1792.7,414.56,-4282.92
1944,1.943999,2043,3658009,4767.3,560.56,-5473.92
1945,1.944999,2044,3659009,12138.3,41.56,-4976.92
1946,1.945999,2045,3660009,18507.3,-276.44,-1213.92
1947,1.947000,2046,3661010,14020.3,11.559999999999999,-188.92000000000007
1948,1.947999,2047,3662009,1230.3,624.56,-564.9200000000001
1949,1.949000,2048,3663010,-8327.7,781.56,1956.08
1950,1.950000,2049,3664010,-8147.7,12.559999999999999,3695.08
1951,1.951000,2050,3665010,-2179.7,-505.44,3203.08
1952,1.952000,2051,3666010,3920.3,-865.44,3628.08
1953,1.952999,2052,3667009,4768.3,-937.44,3451.08
1954,1.953999,2053,3668009,-2331.7,-226.44,1029.08
1955,1.955000,2054,3669010,-10399.7,-323.44,1023.0799999999999
1956,1.956000,2055,3670010,-21276.7,-1420.44,2770.08
1957,1.957000,2056,3671010,-23387.7,-598.44,2068.08
1958,1.958000,2057,3672010,-18296.7,470.56,1205.08
1959,1.959000,2058,3673010,-6610.7,26.56,2730.08
1960,1.960000,2059,3674010,4643.3,27.56,3275.08
1961,1.961000,2060,3675010,8357.3,-205.44,2043.08
1962,1.961999,2061,3676009,7161.3,324.56,14.079999999999927
1963,1.963000,2062,3677010,2544.3,1324.56,-2671.92
1964,1.964000,2063,3678010,4220.3,1464.56,-3741.92
1965,1.965000,2064,3679010,7271.3,612.56,-3298.92
1966,1.966000,2065,3680010,7841.3,-639.44,-2407.92
1967,1.966999,2066,3681009,2575.3,-719.44,-2802.92
1968,1.968000,2067,3682010,-2257.7,242.56,-4049.92
1969,1.968999,2068,3683009,1652.3,569.56,-5053.92
1970,1.970000,2069,3684010,9885.3,70.56,-5438.92
1971,1.971000,2070,3685010,17631.3,-292.44,-2395.92
1972,1.972000,2071,3686010,16798.3,-97.44,-243.92000000000007
1973,1.972999,2072,3687009,4809.3,553.56,-872.9200000000001
1974,1.974000,2073,3688010,-6211.7,808.56,1194.08
1975,1.974999,2074,3689009,-8718.7,114.56,3662.08
1976,1.976000,2075,3690010,-3971.7,-329.44,3189.08
1977,1.977000,2076,3691010,2274.3,-769.44,3349.08
1978,1.977999,2077,3692009,4959.3,-1037.44,3839.08
1979,1.979000,2078,3693010,-466.7,-343.44,1523.08
1980,1.980000,2079,3694010,-7256.7,-295.44,652.0799999999999
1981,1.980999,2080,3695009,-18150.7,-1057.44,2442.08
1982,1.982000,2081,3696010,-23471.7,-981.44,2593.08
1983,1.982999,2082,3697009,-20235.7,314.56,1348.08
1984,1.984000,2083,3698010,-11301.7,232.56,2113.08
1985,1.985000,2084,3699010,2079.3,-76.44,3263.08
1986,1.985999,2085,3700009,8203.3,-225.44,2678.08
1987,1.986999,2086,3701009,7961.3,188.56,723.0799999999999
1988,1.988000,2087,3702010,3155.3,1182.56,-2134.92
1989,1.988999,2088,3703009,3204.3,1300.56,-3639.92
1990,1.990000,2089,3704010,7202.3,903.56,-3486.92
1991,1.991000,2090,3705010,8069.3,-297.44,-2715.92
1992,1.991999,2091,3706009,4223.3,-776.44,-2686.92
1993,1.993000,2092,3707010,-2156.7,30.56,-3743.92
1994,1.993999,2093,3708009,480.3,439.56,-4482.92
1995,1.995000,2094,3709010,7845.3,323.56,-5628.92
1996,1.995999,2095,3710009,15845.3,-92.44,-3668.92
1997,1.997000,2096,3711010,18506.3,-337.44,-244.92000000000007
1998,1.997999,2097,3712009,8250.3,340.56,-571.9200000000001
1999,1.999000,2098,3713010,-3548.7,819.56,300.0799999999999
2000,2.000000,2099,3714010,-9039.7,391.56,3045.08
2001,2.000999,2100,3715009,-6078.7,-89.44,3397.08
2002,2.002000,2101,3716010,597.3,-636.44,3277.08
2003,2.003000,2102,3717010,5117.3,-1120.44,3918.08
2004,2.004000,2103,3718010,2124.3,-544.44,2291.08
2005,2.005000,2104,3719010,-4214.7,-236.44,613.0799999999999
2006,2.006000,2105,3720010,-15891.7,-725.44,1858.08
2007,2.007000,2106,3721010,-24542.7,-1183.44,2601.08
2008,2.007999,2107,3722009,-21296.7,-165.44,1454.08
2009,2.009000,2108,3723010,-13982.7,443.56,1702.08
2010,2.010000,2109,3724010,-1212.7,25.56,3349.08
2011,2.011000,2110,3725010,7642.3,-325.44,3073.08
2012,2.012000,2111,3726010,8730.3,107.56,1259.08
2013,2.013000,2112,3727010,4161.3,939.56,-1087.92
2014,2.014000,2113,3728010,2742.3,1242.56,-3221.92
2015,2.015000,2114,3729010,6061.3,1297.56,-3618.92
2016,2.016000,2115,3730010,7408.3,151.56,-3081.92
2017,2.017000,2116,3731010,6320.3,-866.44,-2388.92
2018,2.018000,2117,3732010,-1191.7,-427.44,-3177.92
2019,2.019000,2118,3733010,-539.7,375.56,-4305.92
2020,2.020000,2119,3734010,6023.3,512.56,-5537.92
2021,2.021000,2120,3735010,12729.3,15.559999999999999,-4625.92
2022,2.022000,2121,3736010,18677.3,-304.44,-909.9200000000001
2023,2.022999,2122,3737009,12180.3,101.56,-415.9200000000001
2024,2.024000,2123,3738010,-42.7,707.56,-412.9200000000001
2025,2.024999,2124,3739009,-8308.7,661.56,2358.08
2026,2.026000,2125,3740010,-7649.7,-115.44,3695.08
2027,2.027000,2126,3741010,-1451.7,-538.44,3137.08
2028,2.028000,2127,3742010,4236.3,-998.44,3655.08
2029,2.029000,2128,3743010,3755.3,-838.44,3058.08
2030,2.030000,2129,3744010,-3204.7,-102.44,730.0799999999999
2031,2.030999,2130,3745009,-11484.7,-414.44,1273.08
2032,2.032000,2131,3746010,-22240.7,-1366.44,2961.08
2033,2.033000,2132,3747010,-22577.7,-498.44,2012.08
2034,2.034000,2133,3748010,-16535.7,443.56,1276.08
2035,2.034999,2134,3749009,-5213.7,26.56,2970.08
2036,2.036000,2135,3750010,5271.3,9.559999999999999,3332.08
2037,2.037000,2136,3751010,7962.3,-103.44,1795.08
2038,2.038000,2137,3752010,6351.3,520.56,-383.9200000000001
2039,2.039000,2138,3753010,2932.3,1219.56,-2833.92
2040,2.040000,2139,3754010,4760.3,1343.56,-3793.92
2041,2.041000,2140,3755010,7255.3,511.56,-3317.92
2042,2.042000,2141,3756010,7189.3,-758.44,-2476.92
2043,2.042999,2142,3757009,1644.3,-666.44,-2991.92
2044,2.044000,2143,3758010,-1732.7,279.56,-4025.92
2045,2.045000,2144,3759010,2734.3,584.56,-5326.92
2046,2.046000,2145,3760010,11206.3,140.56,-5366.92
2047,2.047000,2146,3761010,17922.3,-315.44,-1741.92
2048,2.047999,2147,3762009,15564.3,-102.44,-81.92000000000007
2049,2.048999,2148,3763009,3495.3,638.56,-799.9200000000001
2050,2.050000,2149,3764010,-7450.7,816.56,1476.08
2051,2.051000,2150,3765010,-8459.7,79.56,3755.08
2052,2.051999,2151,3766009,-2992.7,-429.44,3179.08
2053,2.053000,2152,3767010,3135.3,-808.44,3475.08
2054,2.054000,2153,3768010,4833.3,-994.44,3605.08
2055,2.054999,2154,3769009,-1043.7,-327.44,1256.08
2056,2.055999,2155,3770009,-8689.7,-325.44,991.0799999999999
2057,2.057000,2156,3771010,-19839.7,-1343.44,2717.08
2058,2.057999,2157,3772009,-23516.7,-786.44,2191.08
2059,2.059000,2158,3773010,-19972.7,531.56,982.0799999999999
2060,2.060000,2159,3774010,-9295.7,93.56,2413.08
2061,2.061000,2160,3775010,3618.3,-72.44,3449.08
2062,2.061999,2161,3776009,8485.3,-268.44,2572.08
2063,2.063000,2162,3777010,7838.3,304.56,533.0799999999999
2064,2.064000,2163,3778010,2610.3,1297.56,-2320.92
2065,2.064999,2164,3779009,3708.3,1323.56,-3690.92
2066,2.066000,2165,3780010,7268.3,828.56,-3532.92
2067,2.067000,2166,3781010,7569.3,-441.44,-2689.92
2068,2.068000,2167,3782010,3967.3,-769.44,-2710.92
2069,2.068999,2168,3783009,-2030.7,128.56,-3820.92
2070,2.070000,2169,3784010,672.3,503.56,-4942.92
2071,2.071000,2170,3785010,8868.3,207.56,-5735.92
2072,2.072000,2171,3786010,16813.3,-275.44,-2918.92
2073,2.073000,2172,3787010,17990.3,-192.44,-81.92000000000007
2074,2.074000,2173,3788010,6875.3,472.56,-649.9200000000001
2075,2.075000,2174,3789010,-5241.7,804.56,599.0799999999999
2076,2.076000,2175,3790010,-8676.7,301.56,3350.08
2077,2.076999,2176,3791009,-5087.7,-342.44,3469.08
2078,2.078000,2177,3792010,1137.3,-738.44,3232.08
2079,2.079000,2178,3793010,5203.3,-1019.44,3670.08
2080,2.080000,2179,3794010,540.3,-473.44,1723.08
2081,2.081000,2180,3795010,-5530.7,-298.44,756.0799999999999
2082,2.082000,2181,3796010,-17420.7,-813.44,2235.08
2083,2.083000,2182,3797010,-24153.7,-1028.44,2516.08
2084,2.084000,2183,3798010,-20952.7,85.56,1400.08
2085,2.085000,2184,3799010,-13120.7,394.56,1958.08
2086,2.086000,2185,3800010,790.3,30.56,3492.08
2087,2.087000,2186,3801010,8400.3,-330.44,3044.08
2088,2.088000,2187,3802010,8854.3,145.56,984.0799999999999
2089,2.089000,2188,3803010,3488.3,1103.56,-1629.92
2090,2.090000,2189,3804010,3069.3,1211.56,-3375.92
2091,2.091000,2190,3805010,6410.3,1113.56,-3714.92
2092,2.092000,2191,3806010,7703.3,-70.44,-3097.92
2093,2.093000,2192,3807010,5352.3,-865.44,-2615.92
2094,2.094000,2193,3808010,-2094.7,-176.44,-3489.92
2095,2.095000,2194,3809010,430.3,398.56,-4417.92
2096,2.096000,2195,3810010,7223.3,442.56,-5919.92
2097,2.096999,2196,3811009,14611.3,-84.44,-4072.92
2098,2.098000,2197,3812010,18750.3,-350.44,-351.9200000000001
2099,2.099000,2198,3813010,9771.3,331.56,-603.9200000000001
2100,2.099999,2199,3814009,-2437.7,752.56,-28.920000000000073
2101,2.100999,2200,3815009,-8538.7,506.56,2870.08
2102,2.102000,2201,3816010,-6684.7,-72.44,3593.08
2103,2.103000,2202,3817010,-339.7,-569.44,3178.08
2104,2.104000,2203,3818010,5274.3,-1072.44,3981.08
2105,2.104999,2204,3819009,2533.3,-667.44,2619.08
2106,2.106000,2205,3820010,-3382.7,-147.44,675.0799999999999
2107,2.107000,2206,3821010,-14543.7,-625.44,1778.08
2108,2.108000,2207,3822010,-24920.7,-1236.44,2540.08
2109,2.109000,2208,3823010,-21917.7,-275.44,1594.08
2110,2.109999,2209,3824009,-15056.7,359.56,1607.08
2111,2.111000,2210,3825010,-2648.7,63.56,3273.08
2112,2.112000,2211,3826010,7205.3,-196.44,3268.08
2113,2.113000,2212,3827010,8500.3,-60.44,1493.08
2114,2.113999,2213,3828009,4891.3,790.56,-759.9200000000001
2115,2.115000,2214,3829010,3190.3,1222.56,-3047.92
2116,2.116000,2215,3830010,5423.3,1326.56,-3775.92
2117,2.116999,2216,3831009,7477.3,338.56,-3228.92
2118,2.117999,2217,3832009,6809.3,-910.44,-2498.92
2119,2.119000,2218,3833010,-563.7,-562.44,-3208.92
2120,2.120000,2219,3834010,-705.7,378.56,-4130.92
2121,2.121000,2220,3835010,4847.3,486.56,-5683.92
2122,2.122000,2221,3836010,12384.3,113.56,-5070.92
2123,2.123000,2222,3837010,18933.3,-304.44,-1028.92
2124,2.124000,2223,3838010,13467.3,-23.44,-289.9200000000001
2125,2.125000,2224,3839010,1174.3,820.56,-526.9200000000001
2126,2.125999,2225,3840009,-8256.7,726.56,2121.08
2127,2.127000,2226,3841010,-7801.7,-132.44,3723.08
2128,2.128000,2227,3842010,-1920.7,-453.44,3221.08
2129,2.128999,2228,3843009,3696.3,-935.44,3612.08
2130,2.130000,2229,3844010,4208.3,-914.44,3231.08
2131,2.130999,2230,3845009,-2756.7,-159.44,871.0799999999999
2132,2.131999,2231,3846009,-10743.7,-412.44,1170.08
2133,2.133000,2232,3847010,-22010.7,-1381.44,2958.08
2134,2.133999,2233,3848009,-23655.7,-539.44,2081.08
2135,2.135000,2234,3849010,-17949.7,512.56,1041.08
2136,2.135999,2235,3850009,-6056.7,54.56,2976.08
2137,2.137000,2236,3851010,5098.3,-46.44,3649.08
2138,2.138000,2237,3852010,8591.3,-75.44,2008.08
2139,2.139000,2238,3853010,7237.3,434.56,-48.92000000000007
2140,2.139999,2239,3854009,2659.3,1219.56,-2752.92
2141,2.141000,2240,3855010,4628.3,1478.56,-3916.92
2142,2.142000,2241,3856010,7095.3,548.56,-3472.92
2143,2.143000,2242,3857010,7619.3,-738.44,-2580.92
2144,2.143999,2243,3858009,2261.3,-707.44,-2912.92
2145,2.145000,2244,3859010,-2193.7,221.56,-4069.92
2146,2.145999,2245,3860009,2390.3,612.56,-5398.92
2147,2.147000,2246,3861010,10385.3,70.56,-5497.92
2148,2.148000,2247,3862010,17971.3,-398.44,-1875.92
2149,2.149000,2248,3863010,16289.3,-68.44,-182.92000000000007
2150,2.150000,2249,3864010,4068.3,586.56,-965.9200000000001
2151,2.151000,2250,3865010,-6826.7,801.56,1417.08
2152,2.151999,2251,3866009,-8671.7,154.56,3669.08
2153,2.153000,2252,3867010,-3363.7,-313.44,3087.08
2154,2.154000,2253,3868010,2977.3,-809.44,3566.08
2155,2.155000,2254,3869010,5012.3,-1035.44,3812.08
2156,2.156000,2255,3870010,-856.7,-237.44,1355.08
2157,2.156999,2256,3871009,-8322.7,-276.44,954.0799999999999
2158,2.158000,2257,3872010,-19453.7,-1226.44,2611.08
2159,2.158999,2258,3873009,-23710.7,-755.44,2295.08
2160,2.160000,2259,3874010,-20463.7,409.56,1264.08
2161,2.160999,2260,3875009,-10186.7,169.56,2261.08
2162,2.162000,2261,3876010,3110.3,-39.44,3456.08
2163,2.162999,2262,3877009,8783.3,-322.44,2639.08
2164,2.163999,2263,3878009,8099.3,223.56,483.0799999999999
2165,2.165000,2264,3879010,2767.3,1314.56,-2278.92
2166,2.166000,2265,3880010,3448.3,1395.56,-3689.92
2167,2.167000,2266,3881010,7095.3,808.56,-3490.92
2168,2.168000,2267,3882010,8053.3,-356.44,-2704.92
2169,2.169000,2268,3883010,4178.3,-775.44,-2773.92
2170,2.170000,2269,3884010,-2046.7,89.56,-3821.92
2171,2.171000,2270,3885010,821.3,491.56,-4748.92
2172,2.172000,2271,3886010,8449.3,253.56,-5833.92
2173,2.173000,2272,3887010,16643.3,-211.44,-3242.92
2174,2.174000,2273,3888010,18365.3,-241.44,-170.92000000000007
2175,2.175000,2274,3889010,7226.3,463.56,-754.9200000000001
2176,2.176000,2275,3890010,-4325.7,799.56,668.0799999999999
2177,2.177000,2276,3891010,-8987.7,277.56,3348.08
2178,2.178000,2277,3892010,-5527.7,-196.44,3334.08
2179,2.178999,2278,3893009,1037.3,-702.44,3395.08
2180,2.179999,2279,3894009,5071.3,-1086.44,3917.08
2181,2.180999,2280,3895009,1145.3,-441.44,1896.08
2182,2.182000,2281,3896010,-5164.7,-252.44,693.0799999999999
2183,2.182999,2282,3897009,-17087.7,-914.44,2300.08
2184,2.184000,2283,3898010,-24912.7,-1086.44,2611.08
2185,2.185000,2284,3899010,-21949.7,110.56,1364.08
2186,2.186000,2285,3900010,-13684.7,396.56,1858.08
2187,2.187000,2286,3901010,198.3,6.559999999999999,3469.08
2188,2.187999,2287,3902009,8881.3,-417.44,3148.08
2189,2.189000,2288,3903010,9315.3,172.56,1038.08
2190,2.190000,2289,3904010,3680.3,1146.56,-1578.92
2191,2.190999,2290,3905009,3229.3,1203.56,-3339.92
2192,2.191999,2291,3906009,6139.3,1213.56,-3797.92
2193,2.192999,2292,3907009,7687.3,-13.440000000000001,-3059.92
2194,2.194000,2293,3908010,5632.3,-995.44,-2550.92
2195,2.195000,2294,3909010,-1879.7,-156.44,-3579.92
2196,2.196000,2295,3910010,444.3,374.56,-4478.92
2197,2.196999,2296,3911009,7347.3,444.56,-6077.92
2198,2.197999,2297,3912009,14726.3,-128.44,-4136.92
2199,2.199000,2298,3913010,18952.3,-415.44,-394.9200000000001
2200,2.199999,2299,3914009,9986.3,367.56,-758.9200000000001
2201,2.201000,2300,3915010,-2562.7,741.56,-91.92000000000007
2202,2.202000,2301,3916010,-8854.7,494.56,2895.08
2203,2.202999,2302,3917009,-6584.7,-26.44,3545.08
2204,2.204000,2303,3918010,-96.7,-616.44,3208.08
2205,2.205000,2304,3919010,5421.3,-1130.44,4103.08
2206,2.205999,2305,3920009,2602.3,-637.44,2683.08
2207,2.206999,2306,3921009,-3802.7,-123.44,676.0799999999999
2208,2.208000,2307,3922010,-15209.7,-636.44,1845.08
2209,2.208999,2308,3923009,-25418.7,-1258.44,2583.08
2210,2.210000,2309,3924010,-22465.7,-177.44,1576.08
2211,2.210999,2310,3925009,-15037.7,421.56,1672.08
2212,2.212000,2311,3926010,-2111.7,58.56,3364.08
2213,2.213000,2312,3927010,7619.3,-267.44,3442.08
2214,2.214000,2313,3928010,8780.3,-1.4400000000000013,1563.08
2215,2.215000,2314,3929010,4806.3,818.56,-760.9200000000001
2216,2.215999,2315,3930009,3051.3,1243.56,-3116.92
2217,2.217000,2316,3931010,5576.3,1343.56,-3858.92
2218,2.217999,2317,3932009,7520.3,236.56,-3240.92
2219,2.218999,2318,3933009,6792.3,-952.44,-2651.92
2220,2.220000,2319,3934010,-592.7,-523.44,-3398.92
2221,2.221000,2320,3935010,-480.7,313.56,-4360.92
2222,2.222000,2321,3936010,5817.3,508.56,-5950.92
2223,2.222999,2322,3937009,12844.3,12.559999999999999,-4916.92
2224,2.224000,2323,3938010,18907.3,-350.44,-857.9200000000001
2225,2.225000,2324,3939010,13015.3,114.56,-433.9200000000001
2226,2.226000,2325,3940010,242.3,742.56,-493.9200000000001
2227,2.226999,2326,3941009,-8426.7,654.56,2321.08
2228,2.227999,2327,3942009,-7900.7,-20.44,3639.08
2229,2.229000,2328,3943010,-1768.7,-412.44,3187.08
2230,2.230000,2329,3944010,4270.3,-980.44,3867.08
2231,2.231000,2330,3945010,3845.3,-888.44,3221.08
2232,2.232000,2331,3946010,-2779.7,-97.44,885.0799999999999
2233,2.233000,2332,3947010,-11569.7,-460.44,1582.08
2234,2.234000,2333,3948010,-23627.7,-1444.44,3002.08
2235,2.235000,2334,3949010,-23883.7,-415.44,1874.08
2236,2.236000,2335,3950010,-17357.7,449.56,1192.08
2237,2.236999,2336,3951009,-5147.7,51.56,3029.08
2238,2.238000,2337,3952010,5729.3,1.5599999999999987,3497.08
2239,2.238999,2338,3953009,8908.3,-149.44,1924.08
2240,2.240000,2339,3954010,7054.3,432.56,-192.92000000000007
2241,2.241000,2340,3955010,2756.3,1237.56,-2975.92
2242,2.242000,2341,3956010,4851.3,1417.56,-3927.92
2243,2.242999,2342,3957009,6875.3,529.56,-3471.92
2244,2.244000,2343,3958010,7409.3,-815.44,-2667.92
2245,2.245000,2344,3959010,1451.3,-680.44,-3056.92
2246,2.245999,2345,3960009,-1299.7,254.56,-4079.92
2247,2.246999,2346,3961009,4110.3,559.56,-5580.92
2248,2.248000,2347,3962010,11429.3,47.56,-5400.92
2249,2.249000,2348,3963010,18267.3,-344.44,-1429.92
2250,2.250000,2349,3964010,14989.3,-11.440000000000001,-284.9200000000001
2251,2.251000,2350,3965010,2490.3,672.56,-916.9200000000001
2252,2.251999,2351,3966009,-7641.7,773.56,1741.08
2253,2.252999,2352,3967009,-8145.7,-9.440000000000001,3621.08
2254,2.254000,2353,3968010,-2484.7,-300.44,2982.08
2255,2.254999,2354,3969009,3403.3,-823.44,3651.08
2256,2.256000,2355,3970010,4798.3,-989.44,3759.08
2257,2.257000,2356,3971010,-2012.7,-234.44,1244.08
2258,2.257999,2357,3972009,-9681.7,-330.44,1143.08
2259,2.259000,2358,3973010,-21366.7,-1323.44,2712.08
2260,2.260000,2359,3974010,-24253.7,-632.44,2148.08
2261,2.260999,2360,3975009,-19413.7,426.56,1344.08
2262,2.262000,2361,3976010,-8138.7,180.56,2665.08
2263,2.263000,2362,3977010,4259.3,62.56,3664.08
2264,2.264000,2363,3978010,8524.3,-312.44,2516.08
2265,2.265000,2364,3979010,8048.3,289.56,340.0799999999999
2266,2.265999,2365,3980009,2553.3,1245.56,-2526.92
2267,2.267000,2366,3981010,4015.3,1408.56,-3985.92
2268,2.268000,2367,3982010,7522.3,726.56,-3608.92
2269,2.268999,2368,3983009,7873.3,-628.44,-2688.92
2270,2.270000,2369,3984010,3322.3,-800.44,-3026.92
2271,2.271000,2370,3985010,-1854.7,93.56,-4093.92
