row,seconds,esp32_index,micros,ax,ay,az
0,0.000000,99,1714009,2073.92,-375.95,1651.87
1,0.001001,100,1715010,5128.92,-464.95,1816.87
2,0.002001,101,1716010,373.92,-1090.95,2489.87
3,0.003000,102,1717009,-5343.08,-3192.95,5346.87
4,0.004001,103,1718010,-11149.08,-3628.95,7939.87
5,0.005001,104,1719010,-24790.08,-880.95,2246.87
6,0.006000,105,1720009,-27459.08,2134.05,-4531.13
7,0.007001,106,1721010,-20871.08,2457.05,-4305.13
8,0.008001,107,1722010,-7232.08,868.05,2449.87
9,0.009001,108,1723010,8553.92,-228.95,7568.87
10,0.010001,109,1724010,14698.92,155.05,6539.87
11,0.011000,110,1725009,18708.92,908.05,2293.87
12,0.012000,111,1726009,13626.92,1306.05,-2594.13
13,0.013001,112,1727010,5381.92,1032.05,-4404.13
14,0.014000,113,1728009,628.92,775.05,-5590.13
15,0.015000,114,1729009,-1943.08,673.05,-6589.13
16,0.016000,115,1730009,-3431.08,-572.95,-6427.13
17,0.017001,116,1731010,980.92,-1790.95,-6117.13
18,0.018001,117,1732010,8234.92,8.049999999999997,-7336.13
19,0.019001,118,1733010,13884.92,1019.05,-6473.13
20,0.020001,119,1734010,15706.92,-526.95,-619.1300000000001
21,0.021000,120,1735009,10669.92,-1626.95,5413.87
22,0.022001,121,1736010,869.92,-322.95,6353.87
23,0.023001,122,1737010,-6608.08,1115.05,3459.87
24,0.024001,123,1738010,-8234.08,489.05,1413.87
25,0.025000,124,1739009,-2529.08,91.05,1299.87
26,0.026000,125,1740009,2865.92,-423.95,1585.87
27,0.027001,126,1741010,4335.92,-438.95,1863.87
28,0.028001,127,1742010,-509.08,-1503.95,2605.87
29,0.029001,128,1743010,-6868.08,-3479.95,6271.87
30,0.030001,129,1744010,-12703.08,-3185.95,7514.87
31,0.031001,130,1745010,-26742.08,-282.95,274.8699999999999
32,0.032000,131,1746009,-26901.08,2470.05,-5282.13
33,0.033001,132,1747010,-18392.08,2013.05,-2944.13
34,0.034001,133,1748010,-3149.08,717.05,4297.87
35,0.035001,134,1749010,9450.92,-74.95,8073.87
36,0.036000,135,1750009,15974.92,134.05,5836.87
37,0.037001,136,1751010,18201.92,1250.05,1011.8699999999999
38,0.038001,137,1752010,12117.92,1030.05,-3369.13
39,0.039001,138,1753010,4343.92,927.05,-4668.13
40,0.040001,139,1754010,-1075.08,837.05,-5740.13
41,0.041001,140,1755010,-1277.08,374.05,-6856.13
42,0.042000,141,1756009,-4019.08,-643.95,-6656.13
43,0.043001,142,1757010,2116.92,-1710.95,-6039.13
44,0.044001,143,1758010,9192.92,404.05,-7723.13
45,0.045000,144,1759009,15302.92,1062.05,-5522.13
46,0.046001,145,1760010,16097.92,-925.95,1362.87
47,0.047001,146,1761010,9463.92,-1679.95,6133.87
48,0.048000,147,1762009,-699.08,181.05,6018.87
49,0.049000,148,1763009,-8723.08,1480.05,2359.87
50,0.050001,149,1764010,-7515.08,138.05,1079.87
51,0.051000,150,1765009,-1627.08,-82.95,1659.87
52,0.052001,151,1766010,3496.92,-302.95,1525.87
53,0.053001,152,1767010,4196.92,-694.95,1919.87
54,0.054001,153,1768010,-1510.08,-1944.95,3318.87
55,0.055001,154,1769010,-6802.08,-3634.95,6809.87
56,0.056001,155,1770010,-16548.08,-2728.95,6652.87
57,0.057001,156,1771010,-28443.08,375.05,-1207.13
58,0.058000,157,1772009,-24526.08,2493.05,-5521.13
59,0.059001,158,1773010,-16702.08,1880.05,-1673.13
60,0.060001,159,1774010,-609.08,689.05,5221.87
61,0.061001,160,1775010,11378.92,-130.95,8031.87
62,0.062001,161,1776010,17147.92,289.05,5280.87
63,0.063000,162,1777009,17834.92,1405.05,-97.13000000000011
64,0.064001,163,1778010,11033.92,813.05,-3313.13
65,0.065001,164,1779010,2766.92,876.05,-4748.13
66,0.066000,165,1780009,-1336.08,1078.05,-5990.13
67,0.067001,166,1781010,-1953.08,4.049999999999997,-6970.13
68,0.068000,167,1782009,-3067.08,-837.95,-7080.13
69,0.069000,168,1783009,3008.92,-1576.95,-5816.13
70,0.070000,169,1784009,10103.92,472.05,-7753.13
71,0.071001,170,1785010,15705.92,1181.05,-4899.13
72,0.072001,171,1786010,15386.92,-1395.95,2484.87
73,0.073001,172,1787010,7882.92,-1410.95,6275.87
74,0.074001,173,1788010,-2813.08,383.05,5847.87
75,0.075001,174,1789010,-8442.08,1331.05,1817.87
76,0.076000,175,1790009,-6473.08,333.05,1383.87
77,0.077000,176,1791009,-668.08,-463.95,2162.87
78,0.078001,177,1792010,3900.92,-353.95,1374.87
79,0.079001,178,1793010,3725.92,-611.95,2053.87
80,0.080000,179,1794009,-2342.08,-2313.95,3658.87
81,0.081001,180,1795010,-8225.08,-3625.95,7116.87
82,0.082001,181,1796010,-20036.08,-2031.95,5403.87
83,0.083001,182,1797010,-27886.08,413.05,-2238.13
84,0.084001,183,1798010,-23318.08,2481.05,-5240.13
85,0.085001,184,1799010,-14870.08,1937.05,-652.1300000000001
86,0.086001,185,1800010,1801.92,413.05,5720.87
87,0.087000,186,1801009,13010.92,-240.95,7871.87
88,0.088001,187,1802010,18785.92,426.05,4403.87
89,0.089000,188,1803009,16975.92,1578.05,-972.1300000000001
90,0.090001,189,1804010,8819.92,796.05,-3103.13
91,0.091000,190,1805009,1417.92,1059.05,-5421.13
92,0.092001,191,1806010,-1304.08,910.05,-6313.13
93,0.093001,192,1807010,-1843.08,-369.95,-6455.13
94,0.094001,193,1808010,-2448.08,-1147.95,-6600.13
95,0.095001,194,1809010,4742.92,-948.95,-6062.13
96,0.096001,195,1810010,11795.92,509.05,-7683.13
97,0.097001,196,1811010,15703.92,644.05,-3856.13
98,0.098001,197,1812010,13711.92,-1224.95,3368.87
99,0.099001,198,1813010,4989.92,-1279.95,6324.87
100,0.100001,199,1814010,-3737.08,596.05,5138.87
101,0.101001,200,1815010,-8479.08,1041.05,1563.87
102,0.102000,201,1816009,-5238.08,69.05,1494.87
103,0.103000,202,1817009,360.92,-180.95,1818.87
104,0.104001,203,1818010,4585.92,-258.95,1350.87
105,0.105001,204,1819010,2998.92,-987.95,2226.87
106,0.106000,205,1820009,-4324.08,-2619.95,4814.87
107,0.107001,206,1821010,-9765.08,-3794.95,7877.87
108,0.108001,207,1822010,-22359.08,-1605.95,3716.87
109,0.109000,208,1823009,-26865.08,1607.05,-3559.13
110,0.110001,209,1824010,-22868.08,2548.05,-4906.13
111,0.111001,210,1825010,-11867.08,1344.05,723.8699999999999
112,0.112001,211,1826010,5168.92,80.05,7072.87
113,0.113001,212,1827010,13842.92,-170.95,7423.87
114,0.114001,213,1828010,19200.92,747.05,3462.87
115,0.115000,214,1829009,15146.92,1235.05,-1548.13
116,0.116000,215,1830009,7361.92,934.05,-4435.13
117,0.117000,216,1831009,914.92,923.05,-5307.13
118,0.118000,217,1832009,-997.08,579.05,-6291.13
119,0.119000,218,1833009,-2915.08,-265.95,-6908.13
120,0.120001,219,1834010,-1775.08,-1235.95,-6421.13
121,0.121000,220,1835009,6251.92,-793.95,-6671.13
122,0.122001,221,1836010,12955.92,843.05,-7145.13
123,0.123001,222,1837010,15203.92,478.05,-2395.13
124,0.124001,223,1838010,13459.92,-1645.95,4685.87
125,0.125001,224,1839010,4057.92,-883.95,6629.87
126,0.126001,225,1840010,-5137.08,1060.05,4215.87
127,0.127001,226,1841010,-8761.08,781.05,1535.87
128,0.128001,227,1842010,-4883.08,4.049999999999997,1610.87
129,0.129001,228,1843010,1817.92,-167.95,1407.87
130,0.130001,229,1844010,3983.92,-353.95,1487.87
131,0.131001,230,1845010,2096.92,-1434.95,2273.87
132,0.132001,231,1846010,-5784.08,-2867.95,4964.87
133,0.133001,232,1847010,-10713.08,-3544.95,7800.87
134,0.134001,233,1848010,-23316.08,-1508.95,2661.87
135,0.135001,234,1849010,-27667.08,2154.05,-4155.13
136,0.136001,235,1850010,-22033.08,2681.05,-4453.13
137,0.137000,236,1851009,-7898.08,984.05,2004.87
138,0.138001,237,1852010,7507.92,-133.95,7669.87
139,0.139001,238,1853010,14933.92,-18.950000000000003,6965.87
140,0.140001,239,1854010,18994.92,1189.05,2685.87
141,0.141001,240,1855010,13734.92,1265.05,-2261.13
142,0.142001,241,1856010,6563.92,703.05,-4474.13
143,0.143001,242,1857010,-383.08,975.05,-5395.13
144,0.144000,243,1858009,-1094.08,642.05,-6714.13
145,0.145001,244,1859010,-3379.08,-597.95,-6966.13
146,0.146001,245,1860010,73.92,-1727.95,-5915.13
147,0.147001,246,1861010,7574.92,-145.95,-7327.13
148,0.148001,247,1862010,13671.92,1015.05,-6814.13
149,0.149001,248,1863010,16078.92,-279.95,-769.1300000000001
150,0.150001,249,1864010,11062.92,-1718.95,5189.87
151,0.151001,250,1865010,1439.92,-474.95,6311.87
152,0.152001,251,1866010,-6285.08,1331.05,3627.87
153,0.153000,252,1867009,-8163.08,503.05,1235.87
154,0.154001,253,1868010,-2984.08,157.05,1501.87
155,0.155000,254,1869009,2778.92,-282.95,1889.87
156,0.156000,255,1870009,3819.92,-517.95,1804.87
157,0.157001,256,1871010,472.92,-1460.95,2743.87
158,0.158001,257,1872010,-6059.08,-3306.95,6001.87
159,0.159001,258,1873010,-12157.08,-3137.95,7314.87
160,0.160001,259,1874010,-26443.08,-558.95,675.8699999999999
161,0.161001,260,1875010,-27464.08,2393.05,-5093.13
162,0.162001,261,1876010,-19377.08,2091.05,-3202.13
163,0.163001,262,1877010,-4188.08,644.05,3622.87
164,0.164001,263,1878010,9436.92,-239.95,7940.87
165,0.165000,264,1879009,15403.92,258.05,5851.87
166,0.166000,265,1880009,18452.92,1398.05,1346.87
167,0.167001,266,1881010,12455.92,976.05,-2717.13
168,0.168001,267,1882010,5133.92,913.05,-4616.13
169,0.169001,268,1883010,-1000.08,848.05,-5502.13
170,0.170000,269,1884009,-1407.08,559.05,-6846.13
171,0.171000,270,1885009,-3771.08,-622.95,-6724.13
172,0.172001,271,1886010,1894.92,-1729.95,-5756.13
173,0.173001,272,1887010,8825.92,159.05,-7427.13
174,0.174001,273,1888010,14310.92,1032.05,-6043.13
175,0.175000,274,1889009,15722.92,-745.95,426.8699999999999
176,0.176001,275,1890010,10075.92,-1877.95,5964.87
177,0.177000,276,1891009,4.920000000000002,79.05,5957.87
178,0.178000,277,1892009,-8169.08,1304.05,2606.87
179,0.179001,278,1893010,-7348.08,251.05,1303.87
180,0.180000,279,1894009,-2398.08,13.049999999999997,1716.87
181,0.181001,280,1895010,3915.92,-367.95,1593.87
182,0.182001,281,1896010,4025.92,-474.95,1550.87
183,0.183001,282,1897010,-819.08,-1830.95,3226.87
184,0.184000,283,1898009,-6509.08,-3670.95,6758.87
185,0.185001,284,1899010,-15456.08,-2855.95,7007.87
186,0.186001,285,1900010,-27470.08,240.05,-665.1300000000001
187,0.187001,286,1901010,-26495.08,2524.05,-5474.13
188,0.188001,287,1902010,-17065.08,1979.05,-2414.13
189,0.189000,288,1903009,-1473.08,457.05,4953.87
190,0.190001,289,1904010,10838.92,-200.95,8311.869999999999
191,0.191001,290,1905010,17214.92,334.05,5269.87
192,0.192000,291,1906009,17521.92,1237.05,400.8699999999999
193,0.193000,292,1907009,11547.92,962.05,-3335.13
194,0.194001,293,1908010,3457.92,1038.05,-4967.13
195,0.195001,294,1909010,-1680.08,904.05,-5791.13
196,0.196001,295,1910010,-1647.08,72.05,-6824.13
197,0.197001,296,1911010,-3805.08,-871.95,-6744.13
198,0.198000,297,1912009,2997.92,-1401.95,-6011.13
199,0.199001,298,1913010,9995.92,400.05,-7619.13
200,0.200001,299,1914010,15653.92,963.05,-5319.13
201,0.201001,300,1915010,16025.92,-1093.95,2086.87
202,0.202000,301,1916009,7717.92,-1387.95,6436.87
203,0.203001,302,1917010,-1749.08,396.05,5479.87
204,0.204001,303,1918010,-8325.08,1302.05,2142.87
205,0.205000,304,1919009,-6844.08,27.049999999999997,1477.87
206,0.206000,305,1920009,-1106.08,-311.95,2193.87
207,0.207001,306,1921010,3912.92,-235.95,1436.87
208,0.208000,307,1922009,3819.92,-834.95,1703.87
209,0.209001,308,1923010,-2310.08,-1992.95,3337.87
210,0.210001,309,1924010,-7797.08,-3723.95,6799.87
211,0.211001,310,1925010,-18909.08,-2342.95,5885.87
212,0.212001,311,1926010,-27954.08,564.05,-1755.13
213,0.213001,312,1927010,-23901.08,2436.05,-5285.13
214,0.214001,313,1928010,-15662.08,1996.05,-923.1300000000001
215,0.215001,314,1929010,1728.92,450.05,5799.87
216,0.216001,315,1930010,12296.92,-181.95,8039.87
217,0.217001,316,1931010,18257.92,498.05,4702.87
218,0.218001,317,1932010,17147.92,1355.05,-444.1300000000001
219,0.219000,318,1933009,9365.92,662.05,-3444.13
220,0.220001,319,1934010,2338.92,1140.05,-4974.13
221,0.221001,320,1935010,-1759.08,878.05,-6546.13
222,0.222001,321,1936010,-1339.08,-124.95,-7221.13
223,0.223001,322,1937010,-3844.08,-853.95,-6236.13
224,0.224001,323,1938010,4264.92,-1454.95,-6052.13
225,0.225001,324,1939010,11911.92,601.05,-7937.13
226,0.226001,325,1940010,15199.92,945.05,-3898.13
227,0.227001,326,1941010,14961.92,-1414.95,3243.87
228,0.228001,327,1942010,5645.92,-1359.95,6158.87
229,0.229001,328,1943010,-3369.08,536.05,5510.87
230,0.230001,329,1944010,-8228.08,997.05,2123.87
231,0.231001,330,1945010,-6112.08,342.05,1050.87
232,0.232001,331,1946010,39.92,-204.95,1427.87
233,0.233000,332,1947009,4311.92,-384.95,1584.87
234,0.234001,333,1948010,3466.92,-883.95,2268.87
235,0.235000,334,1949009,-3402.08,-2655.95,4353.87
236,0.236001,335,1950010,-9284.08,-3603.95,7857.87
237,0.237001,336,1951010,-21576.08,-1902.95,4472.87
238,0.238001,337,1952010,-26827.08,1110.05,-3337.13
239,0.239001,338,1953010,-23424.08,2779.05,-5383.13
240,0.240001,339,1954010,-13015.08,1483.05,76.86999999999989
241,0.241001,340,1955010,3551.92,158.05,6678.87
242,0.242001,341,1956010,13654.92,-99.95,8029.87
243,0.243000,342,1957009,19578.92,516.05,3847.87
244,0.244000,343,1958009,15597.92,1342.05,-1573.13
245,0.245001,344,1959010,8315.92,1089.05,-3932.13
246,0.246001,345,1960010,607.92,888.05,-5189.13
247,0.247000,346,1961009,-761.08,671.05,-5968.13
248,0.248001,347,1962010,-2501.08,-220.95,-6671.13
249,0.249001,348,1963010,-2458.08,-1202.95,-6736.13
250,0.250001,349,1964010,5447.92,-827.95,-6734.13
251,0.251001,350,1965010,13173.92,571.05,-7145.13
252,0.252001,351,1966010,15492.92,529.05,-2821.13
253,0.253001,352,1967010,13217.92,-1518.95,4205.87
254,0.254001,353,1968010,4255.92,-1023.95,6408.87
255,0.255000,354,1969009,-4915.08,1026.05,4285.87
256,0.256001,355,1970010,-8072.08,1035.05,1481.87
257,0.257001,356,1971010,-5478.08,-40.95,1563.87
258,0.258001,357,1972010,1408.92,-359.95,2062.87
259,0.259001,358,1973010,4402.92,-256.95,1628.87
260,0.260001,359,1974010,2748.92,-1225.95,2154.87
261,0.261001,360,1975010,-4627.08,-2790.95,4950.87
262,0.262001,361,1976010,-10799.08,-3408.95,7450.87
263,0.263001,362,1977010,-22894.08,-1627.95,3210.87
264,0.264001,363,1978010,-27440.08,1593.05,-3708.13
265,0.265000,364,1979009,-22062.08,2846.05,-4698.13
266,0.266001,365,1980010,-10455.08,1118.05,1707.87
267,0.267001,366,1981010,6954.92,-82.95,7191.87
268,0.268000,367,1982009,14892.92,-160.95,7116.87
269,0.269001,368,1983010,19020.92,824.05,2847.87
270,0.270001,369,1984010,14349.92,1538.05,-2187.13
271,0.271000,370,1985009,5645.92,743.05,-4100.13
272,0.272001,371,1986010,451.92,880.05,-5430.13
273,0.273000,372,1987009,-760.08,781.05,-6658.13
274,0.274001,373,1988010,-3186.08,-526.95,-6669.13
275,0.275001,374,1989010,-387.08,-1562.95,-5829.13
276,0.276001,375,1990010,7314.92,-335.95,-6922.13
277,0.277001,376,1991010,13374.92,1039.05,-7040.13
278,0.278001,377,1992010,15458.92,-7.950000000000003,-1476.13
279,0.279000,378,1993009,11668.92,-1783.95,4815.87
280,0.280001,379,1994010,3050.92,-566.95,6460.87
281,0.281001,380,1995010,-6210.08,1202.05,3862.87
282,0.282001,381,1996010,-8414.08,480.05,1230.87
283,0.283001,382,1997010,-3510.08,98.05,1538.87
284,0.284001,383,1998010,2357.92,-147.95,1518.87
285,0.285001,384,1999010,4374.92,-476.95,1675.87
286,0.286000,385,2000009,378.92,-1412.95,2804.87
287,0.287001,386,2001010,-6216.08,-3285.95,5682.87
288,0.288001,387,2002010,-10929.08,-3399.95,7445.87
289,0.289001,388,2003010,-25613.08,-680.95,1448.87
290,0.290000,389,2004009,-26773.08,2153.05,-4716.13
291,0.291001,390,2005010,-20480.08,2329.05,-3444.13
292,0.292001,391,2006010,-6469.08,832.05,2958.87
293,0.293000,392,2007009,9211.92,-274.95,7554.87
294,0.294001,393,2008010,14465.92,393.05,6473.87
295,0.295001,394,2009010,18763.92,1217.05,1895.87
296,0.296001,395,2010010,13275.92,878.05,-2242.13
297,0.297000,396,2011009,5915.92,1081.05,-4571.13
298,0.298001,397,2012010,-293.08,870.05,-5771.13
299,0.299001,398,2013010,-1318.08,409.05,-6763.13
300,0.300001,399,2014010,-4300.08,-573.95,-6792.13
301,0.301001,400,2015010,1173.92,-1613.95,-5972.13
302,0.302001,401,2016010,8153.92,-39.95,-7429.13
303,0.303001,402,2017010,13751.92,1111.05,-6468.13
304,0.304001,403,2018010,16746.92,-568.95,-209.1300000000001
305,0.305001,404,2019010,10354.92,-1890.95,5797.87
306,0.306001,405,2020010,1130.92,-83.95,6074.87
307,0.307001,406,2021010,-7604.08,1263.05,3108.87
308,0.308001,407,2022010,-8074.08,594.05,1576.87
309,0.309000,408,2023009,-3211.08,-31.950000000000003,1810.87
310,0.310001,409,2024010,3446.92,-525.95,1572.87
311,0.311001,410,2025010,4994.92,-513.95,1562.87
312,0.312001,411,2026010,-906.08,-1467.95,2709.87
313,0.313001,412,2027010,-6520.08,-3408.95,6154.87
314,0.314001,413,2028010,-13322.08,-3219.95,7302.87
315,0.315000,414,2029009,-27312.08,-232.95,474.8699999999999
316,0.316000,415,2030009,-26910.08,2375.05,-5071.13
317,0.317001,416,2031010,-18002.08,2228.05,-3257.13
318,0.318001,417,2032010,-3068.08,730.05,4091.87
319,0.319001,418,2033010,10679.92,-287.95,8210.869999999999
320,0.320001,419,2034010,15644.92,140.05,5738.87
321,0.321001,420,2035010,17844.92,1272.05,764.8699999999999
322,0.322001,421,2036010,11952.92,1034.05,-3158.13
323,0.323001,422,2037010,4255.92,1015.05,-4826.13
324,0.324001,423,2038010,-671.08,903.05,-5526.13
325,0.325001,424,2039010,-1832.08,128.05,-6475.13
326,0.326001,425,2040010,-3207.08,-630.95,-6942.13
327,0.327000,426,2041009,2147.92,-1505.95,-6002.13
328,0.328001,427,2042010,9133.92,238.05,-7719.13
329,0.329001,428,2043010,15087.92,1014.05,-5537.13
330,0.330001,429,2044010,15810.92,-900.95,1344.87
331,0.331001,430,2045010,8500.92,-1682.95,5902.87
332,0.332000,431,2046009,-950.08,241.05,5989.87
333,0.333000,432,2047009,-7883.08,1420.05,2468.87
334,0.334001,433,2048010,-7356.08,-87.95,1424.87
335,0.335001,434,2049010,-1452.08,-110.95,1894.87
336,0.336000,435,2050009,3694.92,-218.95,1459.87
337,0.337001,436,2051010,3701.92,-698.95,1801.87
338,0.338000,437,2052009,-1687.08,-1866.95,3173.87
339,0.339001,438,2053010,-6433.08,-3765.95,7034.87
340,0.340001,439,2054010,-17294.08,-2556.95,6395.87
341,0.341000,440,2055009,-28032.08,482.05,-1358.13
342,0.342001,441,2056010,-24727.08,2472.05,-5505.13
343,0.343001,442,2057010,-16217.08,1962.05,-1717.13
344,0.344001,443,2058010,242.92000000000002,417.05,5541.87
345,0.345001,444,2059010,11029.92,-225.95,8096.87
346,0.346000,445,2060009,17491.92,528.05,4985.87
347,0.347001,446,2061010,17251.92,1300.05,-76.13000000000011
348,0.348001,447,2062010,10737.92,799.05,-3503.13
349,0.349001,448,2063010,2907.92,982.05,-4991.13
350,0.350001,449,2064010,-1549.08,956.05,-6191.13
351,0.351000,450,2065009,-1282.08,133.05,-6951.13
352,0.352000,451,2066009,-3929.08,-940.95,-6505.13
353,0.353001,452,2067010,3348.92,-1437.95,-5783.13
354,0.354001,453,2068010,10505.92,506.05,-7775.13
355,0.355000,454,2069009,15452.92,835.05,-4744.13
356,0.356001,455,2070010,15353.92,-1040.95,2826.87
357,0.357001,456,2071010,7059.92,-1395.95,6350.87
358,0.358001,457,2072010,-2136.08,240.05,5455.87
359,0.359000,458,2073009,-8719.08,1299.05,1996.87
360,0.360001,459,2074010,-6484.08,147.05,1200.87
361,0.361001,460,2075010,-639.08,-70.95,1627.87
362,0.362001,461,2076010,3829.92,-365.95,1373.87
363,0.363001,462,2077010,4668.92,-1105.95,2110.87
364,0.364001,463,2078010,-3032.08,-2159.95,4158.87
365,0.365001,464,2079010,-8484.08,-3721.95,7328.87
366,0.366001,465,2080010,-20250.08,-2099.95,4954.87
367,0.367001,466,2081010,-27441.08,990.05,-2533.13
368,0.368001,467,2082010,-22864.08,2372.05,-5238.13
369,0.369000,468,2083009,-15262.08,1711.05,-491.1300000000001
370,0.370001,469,2084010,2143.92,435.05,6130.87
371,0.371001,470,2085010,13084.92,-187.95,7704.87
372,0.372000,471,2086009,19094.92,576.05,4352.87
373,0.373001,472,2087010,16305.92,1234.05,-753.1300000000001
374,0.374000,473,2088009,9033.92,727.05,-3788.13
375,0.375001,474,2089010,1684.92,1170.05,-5089.13
376,0.376001,475,2090010,-1596.08,817.05,-6213.13
377,0.377001,476,2091010,-1808.08,-198.95,-6854.13
378,0.378001,477,2092010,-3291.08,-1119.95,-6238.13
379,0.379001,478,2093010,4639.92,-1001.95,-6356.13
380,0.380001,479,2094010,12401.92,561.05,-7499.13
381,0.381000,480,2095009,15869.92,630.05,-3525.13
382,0.382000,481,2096009,14044.92,-1251.95,3389.87
383,0.383001,482,2097010,5032.92,-1390.95,6606.87
384,0.384001,483,2098010,-3956.08,754.05,4818.87
385,0.385000,484,2099009,-8497.08,1215.05,1328.87
386,0.386000,485,2100009,-5655.08,110.05,1313.87
387,0.387001,486,2101010,596.92,-415.95,2039.87
388,0.388001,487,2102010,4275.92,-457.95,1744.87
389,0.389001,488,2103010,3652.92,-956.95,2108.87
390,0.390000,489,2104009,-4089.08,-2424.95,4446.87
391,0.391001,490,2105010,-9898.08,-3561.95,7555.87
392,0.392001,491,2106010,-21929.08,-1938.95,3801.87
393,0.393001,492,2107010,-27150.08,1420.05,-3290.13
394,0.394001,493,2108010,-23296.08,2671.05,-4799.13
395,0.395000,494,2109009,-11869.08,1294.05,784.8699999999999
396,0.396001,495,2110010,5074.92,264.05,6836.87
397,0.397000,496,2111009,14285.92,-326.95,7377.87
398,0.398001,497,2112010,19843.92,547.05,3427.87
399,0.399001,498,2113010,14084.92,1631.05,-1744.13
400,0.400001,499,2114010,7303.92,970.05,-3942.13
401,0.401000,500,2115009,526.92,711.05,-5420.13
402,0.402000,501,2116009,-994.08,920.05,-6510.13
403,0.403001,502,2117010,-2986.08,-225.95,-6540.13
404,0.404001,503,2118010,-1239.08,-1603.95,-6240.13
405,0.405001,504,2119010,7116.92,-629.95,-6606.13
406,0.406001,505,2120010,12706.92,782.05,-7114.13
407,0.407001,506,2121010,15475.92,369.05,-2392.13
408,0.408001,507,2122010,12421.92,-1546.95,4518.87
409,0.409000,508,2123009,3694.92,-965.95,6126.87
410,0.410000,509,2124009,-5199.08,980.05,4143.87
411,0.411001,510,2125010,-8489.08,903.05,1416.87
412,0.412000,511,2126009,-4773.08,-22.950000000000003,1384.87
413,0.413000,512,2127009,1830.92,-204.95,1568.87
414,0.414001,513,2128010,4606.92,-330.95,1460.87
415,0.415001,514,2129010,1887.92,-1345.95,2664.87
416,0.416000,515,2130009,-5452.08,-2940.95,5214.87
417,0.417001,516,2131010,-10911.08,-3534.95,7715.87
418,0.418001,517,2132010,-23544.08,-1311.95,2672.87
419,0.419001,518,2133010,-26919.08,1922.05,-4277.13
420,0.420001,519,2134010,-21854.08,2766.05,-4584.13
421,0.421001,520,2135010,-8766.08,919.05,2234.87
422,0.422001,521,2136010,7591.92,-211.95,7472.87
423,0.423001,522,2137010,14487.92,92.05,6900.87
424,0.424001,523,2138010,19254.92,936.05,2743.87
425,0.425001,524,2139010,13523.92,1338.05,-2504.13
426,0.426001,525,2140010,5696.92,964.05,-4045.13
427,0.427000,526,2141009,855.92,697.05,-5527.13
428,0.428001,527,2142010,-1063.08,612.05,-6641.13
429,0.429001,528,2143010,-3823.08,-331.95,-6560.13
430,0.430001,529,2144010,194.92000000000002,-1578.95,-6301.13
431,0.431001,530,2145010,7576.92,-281.95,-7098.13
432,0.432001,531,2146010,13480.92,925.05,-6628.13
433,0.433000,532,2147009,15747.92,-116.95,-1268.13
434,0.434000,533,2148009,11469.92,-1760.95,5350.87
435,0.435001,534,2149010,2240.92,-409.95,6259.87
436,0.436000,535,2150009,-6713.08,1096.05,3673.87
437,0.437001,536,2151010,-8761.08,703.05,1405.87
438,0.438001,537,2152010,-2883.08,7.049999999999997,1471.87
439,0.439001,538,2153010,2440.92,-530.95,1880.87
440,0.440001,539,2154010,4054.92,-178.95,1248.87
441,0.441000,540,2155009,629.92,-1492.95,2631.87
442,0.442000,541,2156009,-5795.08,-3330.95,5901.87
443,0.443001,542,2157010,-12070.08,-3254.95,7411.87
444,0.444001,543,2158010,-25982.08,-669.95,1378.87
445,0.445001,544,2159010,-27044.08,2255.05,-4733.13
446,0.446001,545,2160010,-19219.08,2346.05,-3680.13
447,0.447000,546,2161009,-4902.08,703.05,3495.87
448,0.448001,547,2162010,8982.92,-195.95,7725.87
449,0.449001,548,2163010,15248.92,127.05,6084.87
450,0.450001,549,2164010,17698.92,1140.05,1611.87
451,0.451001,550,2165010,12912.92,1177.05,-3042.13
452,0.452001,551,2166010,4961.92,929.05,-4387.13
453,0.453000,552,2167009,-339.08,899.05,-5547.13
454,0.454001,553,2168010,-838.08,443.05,-6708.13
455,0.455000,554,2169009,-4188.08,-444.95,-6740.13
456,0.456001,555,2170010,1208.92,-1755.95,-5769.13
457,0.457001,556,2171010,8651.92,38.05,-7303.13
458,0.458000,557,2172009,14443.92,1244.05,-5952.13
459,0.459001,558,2173010,15811.92,-740.95,402.8699999999999
460,0.460000,559,2174009,10628.92,-1775.95,5630.87
461,0.461001,560,2175010,-224.07999999999998,-102.95,6047.87
462,0.462001,561,2176010,-7429.08,1454.05,2570.87
463,0.463001,562,2177010,-8235.08,388.05,1259.87
464,0.464000,563,2178009,-2774.08,-126.95,1787.87
465,0.465001,564,2179010,4335.92,-330.95,1564.87
466,0.466001,565,2180010,3817.92,-610.95,1778.87
467,0.467000,566,2181009,70.92,-1761.95,3021.87
468,0.468001,567,2182010,-7194.08,-3404.95,6218.87
469,0.469001,568,2183010,-13954.08,-2793.95,6913.87
470,0.470001,569,2184010,-27500.08,-167.95,-105.13000000000011
471,0.471001,570,2185010,-26532.08,2498.05,-5378.13
472,0.472000,571,2186009,-16919.08,2105.05,-2426.13
473,0.473001,572,2187010,-2224.08,483.05,4661.87
474,0.474000,573,2188009,11044.92,-62.95,8072.87
475,0.475001,574,2189010,15532.92,223.05,5373.87
476,0.476001,575,2190010,18564.92,1283.05,576.8699999999999
477,0.477001,576,2191010,10802.92,983.05,-3020.13
478,0.478001,577,2192010,3514.92,833.05,-4899.13
479,0.479000,578,2193009,-1230.08,1146.05,-5981.13
480,0.480001,579,2194010,-1583.08,111.05,-6735.13
481,0.481000,580,2195009,-2273.08,-919.95,-6647.13
482,0.482001,581,2196010,1985.92,-1496.95,-5638.13
483,0.483001,582,2197010,9049.92,364.05,-7505.13
484,0.484001,583,2198010,14148.92,1071.05,-5349.13
485,0.485001,584,2199010,15528.92,-1139.95,1408.87
486,0.486001,585,2200010,8698.92,-1438.95,5855.87
487,0.487001,586,2201010,-1099.08,170.05,6079.87
488,0.488001,587,2202010,-7726.08,1132.05,2423.87
489,0.489001,588,2203010,-7413.08,418.05,1222.87
490,0.490001,589,2204010,-1279.08,-185.95,1892.87
491,0.491001,590,2205010,4041.92,-298.95,1410.87
492,0.492000,591,2206009,3549.92,-652.95,1714.87
493,0.493001,592,2207010,-517.08,-2036.95,3353.87
494,0.494001,593,2208010,-6969.08,-3495.95,6624.87
495,0.495000,594,2209009,-16570.08,-2642.95,6392.87
496,0.496000,595,2210009,-27518.08,286.05,-1131.13
497,0.497001,596,2211010,-24898.08,2622.05,-5305.13
498,0.498001,597,2212010,-15759.08,1816.05,-1719.13
499,0.499001,598,2213010,-322.08,274.05,5132.87
500,0.500001,599,2214010,11510.92,-273.95,8064.87
501,0.501001,600,2215010,16251.92,435.05,4620.87
502,0.502001,601,2216010,16592.92,1514.05,-347.1300000000001
503,0.503001,602,2217010,9874.92,853.05,-3296.13
504,0.504000,603,2218009,3175.92,1062.05,-4823.13
505,0.505000,604,2219009,-1002.08,834.05,-5497.13
506,0.506000,605,2220009,-952.08,-93.95,-6518.13
507,0.507001,606,2221010,-3000.08,-692.95,-6434.13
508,0.508000,607,2222009,2165.92,-1296.95,-5366.13
509,0.509001,608,2223010,9847.92,312.05,-7466.13
510,0.510001,609,2224010,15032.92,1046.05,-4877.13
511,0.511001,610,2225010,15256.92,-1016.95,2162.87
512,0.512001,611,2226010,7531.92,-1584.95,5778.87
513,0.513001,612,2227010,-1921.08,398.05,5283.87
514,0.514001,613,2228010,-8265.08,1279.05,2072.87
515,0.515001,614,2229010,-6623.08,-25.950000000000003,1321.87
516,0.516001,615,2230010,-1046.08,-229.95,1848.87
517,0.517001,616,2231010,4265.92,-311.95,1344.87
518,0.518001,617,2232010,4655.92,-903.95,1950.87
519,0.519001,618,2233010,-2038.08,-2025.95,3806.87
520,0.520001,619,2234010,-7600.08,-3692.95,6855.87
521,0.521001,620,2235010,-18867.08,-2368.95,5566.87
522,0.522001,621,2236010,-27410.08,702.05,-1902.13
523,0.523001,622,2237010,-24025.08,2496.05,-5441.13
524,0.524001,623,2238010,-15561.08,1806.05,-1046.13
525,0.525000,624,2239009,1148.92,297.05,5883.87
526,0.526001,625,2240010,11796.92,-219.95,7760.87
527,0.527001,626,2241010,18588.92,721.05,4351.87
528,0.528000,627,2242009,16379.92,1346.05,-455.1300000000001
529,0.529001,628,2243010,9284.92,738.05,-3142.13
530,0.530000,629,2244009,2276.92,1115.05,-4892.13
531,0.531000,630,2245009,-1463.08,826.05,-6071.13
532,0.532000,631,2246009,-1964.08,-94.95,-6529.13
533,0.533001,632,2247010,-3731.08,-1019.95,-6444.13
534,0.534001,633,2248010,4323.92,-976.95,-6092.13
535,0.535001,634,2249010,11691.92,446.05,-7589.13
536,0.536001,635,2250010,15846.92,660.05,-4082.13
537,0.537000,636,2251009,14897.92,-1201.95,3127.87
538,0.538001,637,2252010,6259.92,-1367.95,6006.87
539,0.539001,638,2253010,-3709.08,710.05,4941.87
540,0.540001,639,2254010,-8987.08,1141.05,1651.87
541,0.541000,640,2255009,-5939.08,179.05,1307.87
542,0.542001,641,2256010,379.92,-298.95,1902.87
543,0.543001,642,2257010,4865.92,-573.95,1396.87
544,0.544000,643,2258009,4403.92,-972.95,2334.87
545,0.545001,644,2259010,-3668.08,-2306.95,4228.87
546,0.546000,645,2260009,-9421.08,-3600.95,7172.87
547,0.547001,646,2261010,-21209.08,-2004.95,4551.87
548,0.548001,647,2262010,-27868.08,1074.05,-2899.13
549,0.549001,648,2263010,-23466.08,2670.05,-5140.13
550,0.550000,649,2264009,-13651.08,1432.05,124.86999999999989
551,0.551001,650,2265010,3584.92,418.05,6400.87
552,0.552001,651,2266010,13827.92,-58.95,7690.87
553,0.553001,652,2267010,19267.92,402.05,4189.87
554,0.554001,653,2268010,15739.92,1677.05,-1072.13
555,0.555001,654,2269010,8310.92,821.05,-3800.13
556,0.556000,655,2270009,1318.92,823.05,-5115.13
557,0.557000,656,2271009,-1330.08,923.05,-6269.13
558,0.558000,657,2272009,-2728.08,-263.95,-6891.13
559,0.559000,658,2273009,-2251.08,-1327.95,-6421.13
560,0.560001,659,2274010,6019.92,-778.95,-6765.13
561,0.561001,660,2275010,12831.92,730.05,-7497.13
562,0.562001,661,2276010,15872.92,455.05,-2924.13
563,0.563001,662,2277010,13630.92,-1615.95,4061.87
564,0.564001,663,2278010,4349.92,-1044.95,6390.87
565,0.565000,664,2279009,-5330.08,1016.05,4484.87
566,0.566000,665,2280009,-8680.08,758.05,1700.87
567,0.567001,666,2281010,-4962.08,82.05,1290.87
568,0.568001,667,2282010,1462.92,-304.95,1635.87
569,0.569001,668,2283010,4421.92,-234.95,1616.87
570,0.570001,669,2284010,2464.92,-1115.95,2173.87
571,0.571000,670,2285009,-4849.08,-2912.95,4901.87
572,0.572001,671,2286010,-10640.08,-3609.95,8003.87
573,0.573001,672,2287010,-23511.08,-1576.95,3294.87
574,0.574001,673,2288010,-27674.08,1938.05,-3980.13
575,0.575001,674,2289010,-21732.08,2604.05,-4571.13
576,0.576001,675,2290010,-9823.08,1066.05,1644.87
577,0.577000,676,2291009,6885.92,122.05,7123.87
578,0.578001,677,2292010,14055.92,-150.95,7369.87
579,0.579001,678,2293010,19287.92,778.05,3105.87
580,0.580001,679,2294010,13986.92,1597.05,-2302.13
581,0.581001,680,2295010,6475.92,756.05,-4072.13
582,0.582000,681,2296009,1074.92,714.05,-5584.13
583,0.583001,682,2297010,-1283.08,952.05,-6725.13
584,0.584001,683,2298010,-3327.08,-496.95,-6606.13
585,0.585001,684,2299010,-299.08,-1701.95,-6366.13
586,0.586001,685,2300010,7928.92,-129.95,-7428.13
587,0.587001,686,2301010,13453.92,964.05,-6869.13
588,0.588001,687,2302010,16060.92,-378.95,-1293.13
589,0.589000,688,2303009,11898.92,-1672.95,5050.87
590,0.590001,689,2304010,1850.92,-504.95,6309.87
591,0.591000,690,2305009,-6601.08,1192.05,3753.87
592,0.592001,691,2306010,-8678.08,690.05,1455.87
593,0.593000,692,2307009,-3210.08,107.05,1299.87
594,0.594000,693,2308009,2897.92,-249.95,1708.87
595,0.595001,694,2309010,4048.92,-523.95,2098.87
596,0.596001,695,2310010,65.92,-1274.95,2666.87
597,0.597001,696,2311010,-6813.08,-3196.95,5699.87
598,0.598000,697,2312009,-10959.08,-3566.95,7814.87
599,0.599001,698,2313010,-25659.08,-589.95,1151.87
600,0.600001,699,2314010,-27932.08,2332.05,-4871.13
601,0.601001,700,2315010,-19338.08,2079.05,-3496.13
602,0.602001,701,2316010,-5520.08,862.05,3371.87
603,0.603001,702,2317010,8867.92,11.049999999999997,7735.87
604,0.604001,703,2318010,14774.92,33.05,6268.87
605,0.605000,704,2319009,18773.92,1174.05,1822.87
606,0.606001,705,2320010,13733.92,1129.05,-2878.13
607,0.607000,706,2321009,5627.92,918.05,-4365.13
608,0.608000,707,2322009,-594.08,688.05,-5580.13
609,0.609000,708,2323009,-1663.08,640.05,-7455.13
610,0.610001,709,2324010,-4349.08,-368.95,-6962.13
611,0.611001,710,2325010,1396.92,-1903.95,-5935.13
612,0.612001,711,2326010,8765.92,203.05,-7759.13
613,0.613000,712,2327009,14846.92,1089.05,-6125.13
614,0.614001,713,2328010,17105.92,-911.95,577.8699999999999
615,0.615000,714,2329009,9951.92,-1520.95,6090.87
616,0.616001,715,2330010,-227.07999999999998,-9.950000000000003,6036.87
617,0.617001,716,2331010,-8026.08,1149.05,3179.87
618,0.618001,717,2332010,-8248.08,341.05,1616.87
619,0.619000,718,2333009,-1996.08,-36.95,1369.87
620,0.620001,719,2334010,3526.92,-75.95,1156.87
621,0.621000,720,2335009,3723.92,-517.95,1715.87
622,0.622001,721,2336010,-670.08,-1853.95,3256.87
623,0.623001,722,2337010,-7059.08,-3652.95,6818.87
624,0.624001,723,2338010,-14971.08,-2970.95,7197.87
625,0.625000,724,2339009,-27775.08,327.05,-549.1300000000001
626,0.626000,725,2340009,-26492.08,2548.05,-5524.13
627,0.627001,726,2341010,-16712.08,1728.05,-2457.13
628,0.628001,727,2342010,-1584.08,675.05,4912.87
629,0.629001,728,2343010,10335.92,-54.95,8047.87
630,0.630001,729,2344010,17103.92,292.05,5470.87
631,0.631001,730,2345010,17686.92,1316.05,468.8699999999999
632,0.632000,731,2346009,12028.92,712.05,-3578.13
633,0.633001,732,2347010,3914.92,1047.05,-4601.13
634,0.634001,733,2348010,-1865.08,905.05,-5834.13
635,0.635000,734,2349009,-1295.08,124.05,-7199.13
636,0.636000,735,2350009,-4397.08,-874.95,-6641.13
637,0.637001,736,2351010,2813.92,-1419.95,-6365.13
638,0.638001,737,2352010,10524.92,370.05,-8012.13
639,0.639001,738,2353010,16017.92,870.05,-4913.13
640,0.640001,739,2354010,16127.92,-888.95,2069.87
641,0.641000,740,2355009,7118.92,-1668.95,6469.87
642,0.642001,741,2356010,-2146.08,499.05,5644.87
643,0.643001,742,2357010,-8248.08,1371.05,2188.87
644,0.644001,743,2358010,-6772.08,128.05,1378.87
645,0.645001,744,2359010,-1081.08,-108.95,1971.87
646,0.646000,745,2360009,4405.92,-690.95,1918.87
647,0.647000,746,2361009,4253.92,-685.95,2001.87
648,0.648001,747,2362010,-3489.08,-1826.95,3315.87
649,0.649001,748,2363010,-8392.08,-3979.95,6963.87
650,0.650000,749,2364009,-19621.08,-2165.95,5499.87
651,0.651001,750,2365010,-27695.08,778.05,-2013.13
652,0.652001,751,2366010,-23386.08,2102.05,-5113.13
653,0.653001,752,2367010,-15734.08,2057.05,-911.1300000000001
654,0.654000,753,2368009,1971.92,642.05,5902.87
655,0.655001,754,2369010,12885.92,-373.95,7959.87
656,0.656001,755,2370010,19371.92,507.05,4788.87
657,0.657001,756,2371010,16606.92,1331.05,-788.1300000000001
658,0.658000,757,2372009,9519.92,806.05,-3467.13
659,0.659000,758,2373009,1738.92,949.05,-5003.13
660,0.660001,759,2374010,-2002.08,902.05,-6588.13
661,0.661001,760,2375010,-1705.08,-51.95,-6952.13
662,0.662000,761,2376009,-2767.08,-1260.95,-6822.13
663,0.663001,762,2377010,4970.92,-1031.95,-6320.13
664,0.664001,763,2378010,11692.92,531.05,-7770.13
665,0.665001,764,2379010,16203.92,448.05,-3587.13
666,0.666000,765,2380009,14130.92,-1119.95,3710.87
667,0.667001,766,2381010,4948.92,-1146.95,5957.87
668,0.668000,767,2382009,-3857.08,447.05,5167.87
669,0.669000,768,2383009,-8724.08,1239.05,2177.87
670,0.670000,769,2384009,-5106.08,22.049999999999997,1222.87
671,0.671001,770,2385010,1050.92,-230.95,1315.87
672,0.672001,771,2386010,4108.92,-50.95,1661.87
673,0.673001,772,2387010,2768.92,-1213.95,2403.87
674,0.674001,773,2388010,-5115.08,-2464.95,4280.87
675,0.675000,774,2389009,-9763.08,-3727.95,7867.87
676,0.676000,775,2390009,-22169.08,-1943.95,4237.87
677,0.677000,776,2391009,-27179.08,1714.05,-3335.13
678,0.678000,777,2392009,-22517.08,2448.05,-5115.13
679,0.679001,778,2393010,-12203.08,1378.05,527.8699999999999
680,0.680000,779,2394009,5136.92,477.05,6968.87
681,0.681001,780,2395010,13814.92,-352.95,7427.87
682,0.682000,781,2396009,19975.92,449.05,3848.87
683,0.683001,782,2397010,15181.92,1523.05,-1598.13
684,0.684001,783,2398010,7637.92,1007.05,-4393.13
685,0.685001,784,2399010,856.92,774.05,-5374.13
686,0.686000,785,2400009,-1317.08,704.05,-6309.13
687,0.687001,786,2401010,-2937.08,-308.95,-6900.13
688,0.688001,787,2402010,-1368.08,-1372.95,-6799.13
689,0.689001,788,2403010,6396.92,-743.95,-6924.13
690,0.690001,789,2404010,12814.92,853.05,-7277.13
691,0.691001,790,2405010,16309.92,251.05,-2321.13
692,0.692001,791,2406010,12488.92,-1701.95,4753.87
693,0.693001,792,2407010,3705.92,-606.95,6472.87
694,0.694000,793,2408009,-5699.08,965.05,4374.87
695,0.695000,794,2409009,-8577.08,886.05,1718.87
696,0.696000,795,2410009,-4188.08,170.05,1493.87
697,0.697001,796,2411010,2073.92,-474.95,1571.87
698,0.698000,797,2412009,4521.92,-154.95,1778.87
699,0.699001,798,2413010,582.92,-1252.95,2438.87
700,0.700000,799,2414009,-6008.08,-3075.95,4905.87
701,0.701001,800,2415010,-10647.08,-3491.95,7955.87
702,0.702001,801,2416010,-24108.08,-1338.95,2509.87
703,0.703001,802,2417010,-27924.08,2083.05,-4377.13
704,0.704001,803,2418010,-21610.08,2601.05,-4328.13
705,0.705001,804,2419010,-7069.08,831.05,2404.87
706,0.706001,805,2420010,7995.92,-30.950000000000003,7557.87
707,0.707001,806,2421010,14867.92,114.05,6797.87
708,0.708001,807,2422010,19141.92,886.05,2586.87
709,0.709001,808,2423010,13940.92,1306.05,-2616.13
710,0.710001,809,2424010,5941.92,925.05,-4335.13
711,0.711001,810,2425010,-94.08,873.05,-5705.13
712,0.712001,811,2426010,-1273.08,691.05,-6744.13
713,0.713001,812,2427010,-4254.08,-626.95,-6733.13
714,0.714001,813,2428010,806.92,-1691.95,-6331.13
715,0.715000,814,2429009,8287.92,7.049999999999997,-7492.13
716,0.716001,815,2430010,14220.92,1000.05,-6598.13
717,0.717001,816,2431010,16264.92,-559.95,-220.1300000000001
718,0.718000,817,2432009,10947.92,-1837.95,5568.87
719,0.719001,818,2433010,1224.92,-136.95,6153.87
720,0.720001,819,2434010,-7443.08,1361.05,3250.87
721,0.721001,820,2435010,-8044.08,285.05,1317.87
722,0.722000,821,2436009,-2872.08,109.05,1561.87
723,0.723001,822,2437010,3379.92,-203.95,1629.87
724,0.724001,823,2438010,3818.92,-565.95,1848.87
725,0.725001,824,2439010,-374.08,-1503.95,2826.87
726,0.726001,825,2440010,-6564.08,-3420.95,6367.87
727,0.727001,826,2441010,-13626.08,-3209.95,7409.87
728,0.728001,827,2442010,-26947.08,-69.95,280.8699999999999
729,0.729000,828,2443009,-27211.08,2271.05,-5146.13
730,0.730001,829,2444010,-17859.08,1953.05,-3015.13
731,0.731001,830,2445010,-3473.08,956.05,4129.87
732,0.732001,831,2446010,9922.92,-192.95,8082.87
733,0.733000,832,2447009,15815.92,219.05,5984.87
734,0.734001,833,2448010,18559.92,1187.05,1277.87
735,0.735001,834,2449010,12808.92,924.05,-3339.13
736,0.736000,835,2450009,4270.92,993.05,-4855.13
737,0.737000,836,2451009,-965.08,856.05,-5705.13
738,0.738001,837,2452010,-1743.08,303.05,-7178.13
739,0.739000,838,2453009,-3875.08,-591.95,-6764.13
740,0.740001,839,2454010,2275.92,-1673.95,-6033.13
741,0.741001,840,2455010,9125.92,312.05,-7848.13
742,0.742001,841,2456010,15457.92,1073.05,-5635.13
743,0.743001,842,2457010,16448.92,-1140.95,1629.87
744,0.744001,843,2458010,8859.92,-1357.95,6204.87
745,0.745001,844,2459010,-667.08,129.05,6006.87
746,0.746000,845,2460009,-8446.08,1069.05,2978.87
747,0.747000,846,2461009,-7651.08,318.05,1388.87
748,0.748001,847,2462010,-1776.08,-108.95,1319.87
749,0.749001,848,2463010,3676.92,-189.95,946.8699999999999
750,0.750001,849,2464010,3863.92,-559.95,1770.87
751,0.751001,850,2465010,-1724.08,-2052.95,3446.87
752,0.752000,851,2466009,-6688.08,-3793.95,7216.87
753,0.753000,852,2467009,-17847.08,-2686.95,6751.87
754,0.754001,853,2468010,-28087.08,571.05,-1468.13
755,0.755001,854,2469010,-24663.08,2539.05,-5683.13
756,0.756001,855,2470010,-15987.08,1746.05,-1591.13
757,0.757000,856,2471009,-116.08,679.05,5526.87
758,0.758000,857,2472009,11468.92,10.049999999999997,8332.869999999999
759,0.759001,858,2473010,18084.92,205.05,5111.87
760,0.760000,859,2474009,17305.92,1145.05,-382.1300000000001
761,0.761000,860,2475009,11046.92,1023.05,-3628.13
762,0.762001,861,2476010,2135.92,925.05,-5134.13
763,0.763001,862,2477010,-991.08,792.05,-5838.13
764,0.764000,863,2478009,-1916.08,-68.95,-6752.13
765,0.765000,864,2479009,-3895.08,-832.95,-7293.13
766,0.766001,865,2480010,3059.92,-1190.95,-6557.13
767,0.767001,866,2481010,11019.92,185.05,-7576.13
768,0.768000,867,2482009,16912.92,884.05,-4183.13
769,0.769001,868,2483010,14911.92,-1067.95,3121.87
770,0.770001,869,2484010,6924.92,-1592.95,6301.87
771,0.771001,870,2485010,-2821.08,592.05,5217.87
772,0.772001,871,2486010,-8777.08,1725.05,2119.87
773,0.773001,872,2487010,-6286.08,-5.950000000000003,1455.87
774,0.774001,873,2488010,-389.08,-586.95,1932.87
775,0.775001,874,2489010,4488.92,-166.95,1835.87
776,0.776001,875,2490010,3562.92,-899.95,2167.87
777,0.777001,876,2491010,-3692.08,-2372.95,3640.87
778,0.778001,877,2492010,-9160.08,-3404.95,6952.87
779,0.779001,878,2493010,-21051.08,-2130.95,4932.87
780,0.780001,879,2494010,-26497.08,568.05,-2277.13
781,0.781001,880,2495010,-24318.08,2590.05,-5174.13
782,0.782001,881,2496010,-14236.08,1819.05,-512.1300000000001
783,0.783000,882,2497009,3133.92,521.05,6116.87
784,0.784001,883,2498010,13350.92,-309.95,7931.87
785,0.785000,884,2499009,20693.92,281.05,4447.87
786,0.786001,885,2500010,15631.92,1774.05,-1152.13
787,0.787001,886,2501010,8893.92,764.05,-3658.13
788,0.788001,887,2502010,1295.92,855.05,-5119.13
789,0.789001,888,2503010,-2072.08,1026.05,-6463.13
790,0.790001,889,2504010,-1995.08,-333.95,-7105.13
791,0.791001,890,2505010,-2704.08,-1234.95,-6596.13
792,0.792001,891,2506010,6198.92,-984.95,-6412.13
793,0.793000,892,2507009,12544.92,610.05,-7710.13
794,0.794001,893,2508010,15269.92,564.05,-3296.13
795,0.795001,894,2509010,13722.92,-1562.95,4060.87
796,0.796001,895,2510010,4151.92,-906.95,6282.87
797,0.797001,896,2511010,-4632.08,726.05,4909.87
798,0.798001,897,2512010,-8229.08,759.05,2016.87
799,0.799000,898,2513009,-4585.08,295.05,1219.87
800,0.800001,899,2514010,900.92,-273.95,1605.87
801,0.801001,900,2515010,4405.92,-97.95,1576.87
802,0.802001,901,2516010,2305.92,-1101.95,2316.87
803,0.803001,902,2517010,-4870.08,-3025.95,5311.87
804,0.804001,903,2518010,-10870.08,-3564.95,7957.87
805,0.805001,904,2519010,-23417.08,-1512.95,3236.87
806,0.806000,905,2520009,-26563.08,1770.05,-3947.13
807,0.807000,906,2521009,-22575.08,2566.05,-4900.13
808,0.808001,907,2522010,-10273.08,1174.05,1283.87
809,0.809000,908,2523009,6289.92,35.05,7356.87
810,0.810001,909,2524010,14439.92,-148.95,7361.87
811,0.811001,910,2525010,19512.92,819.05,3009.87
812,0.812000,911,2526009,14171.92,1437.05,-2010.13
813,0.813001,912,2527010,6804.92,1077.05,-4671.13
814,0.814001,913,2528010,1010.92,712.05,-5071.13
815,0.815001,914,2529010,-904.08,583.05,-6049.13
816,0.816001,915,2530010,-3386.08,-304.95,-6940.13
817,0.817001,916,2531010,-466.08,-1461.95,-6455.13
818,0.818000,917,2532009,6525.92,-483.95,-7176.13
819,0.819001,918,2533010,13522.92,868.05,-6953.13
820,0.820000,919,2534009,15902.92,-27.950000000000003,-1594.13
821,0.821001,920,2535010,12037.92,-1615.95,5018.87
822,0.822001,921,2536010,2980.92,-739.95,6396.87
823,0.823001,922,2537010,-6739.08,1070.05,3731.87
824,0.824000,923,2538009,-8051.08,810.05,1522.87
825,0.825001,924,2539010,-3769.08,-85.95,1514.87
826,0.826000,925,2540009,2502.92,-77.95,1480.87
827,0.827000,926,2541009,3642.92,-376.95,1773.87
828,0.828000,927,2542009,1075.92,-1605.95,2656.87
829,0.829001,928,2543010,-5460.08,-2985.95,5610.87
830,0.830001,929,2544010,-12125.08,-3456.95,7479.87
831,0.831001,930,2545010,-25082.08,-724.95,1589.87
832,0.832001,931,2546010,-28132.08,2310.05,-4461.13
833,0.833001,932,2547010,-19939.08,1920.05,-3721.13
834,0.834001,933,2548010,-5679.08,997.05,3271.87
835,0.835001,934,2549010,8100.92,-13.950000000000003,7541.87
836,0.836001,935,2550010,15588.92,-63.95,6112.87
837,0.837000,936,2551009,18677.92,1112.05,2396.87
838,0.838001,937,2552010,13082.92,1073.05,-2654.13
839,0.839001,938,2553010,5411.92,926.05,-4591.13
840,0.840000,939,2554009,-731.08,831.05,-5760.13
841,0.841001,940,2555010,-1313.08,722.05,-7301.13
842,0.842001,941,2556010,-4049.08,-407.95,-6524.13
843,0.843001,942,2557010,1551.92,-1956.95,-5674.13
844,0.844000,943,2558009,8832.92,80.05,-7637.13
845,0.845001,944,2559010,14208.92,1187.05,-6385.13
846,0.846001,945,2560010,16369.92,-743.95,319.8699999999999
847,0.847000,946,2561009,10208.92,-1643.95,5720.87
848,0.848000,947,2562009,181.92000000000002,-235.95,6009.87
849,0.849000,948,2563009,-7364.08,1211.05,3394.87
850,0.850001,949,2564010,-7395.08,652.05,1211.87
851,0.851000,950,2565009,-2928.08,-73.95,1179.87
852,0.852000,951,2566009,3406.92,-335.95,1573.87
853,0.853000,952,2567009,4400.92,-521.95,1937.87
854,0.854001,953,2568010,-948.08,-1655.95,3047.87
855,0.855001,954,2569010,-7033.08,-3420.95,6501.87
856,0.856001,955,2570010,-14142.08,-3180.95,7474.87
857,0.857000,956,2571009,-26792.08,137.05,-134.1300000000001
858,0.858001,957,2572010,-26829.08,2448.05,-5357.13
859,0.859001,958,2573010,-17754.08,1884.05,-2872.13
860,0.860001,959,2574010,-2295.08,812.05,4510.87
861,0.861000,960,2575009,9832.92,-200.95,8274.869999999999
862,0.862001,961,2576010,16254.92,91.05,5668.87
863,0.863001,962,2577010,18261.92,1306.05,929.8699999999999
864,0.864001,963,2578010,12301.92,988.05,-3625.13
865,0.865001,964,2579010,4176.92,1018.05,-4736.13
866,0.866001,965,2580010,-1653.08,868.05,-5661.13
867,0.867001,966,2581010,-1612.08,208.05,-7138.13
868,0.868001,967,2582010,-3858.08,-508.95,-6750.13
869,0.869001,968,2583010,2269.92,-1611.95,-6104.13
870,0.870001,969,2584010,9419.92,348.05,-7714.13
871,0.871000,970,2585009,15873.92,931.05,-5150.13
872,0.872001,971,2586010,16778.92,-1113.95,1830.87
873,0.873000,972,2587009,7949.92,-1302.95,6061.87
874,0.874000,973,2588009,-1082.08,155.05,5677.87
875,0.875000,974,2589009,-8399.08,1101.05,2775.87
876,0.876000,975,2590009,-7604.08,339.05,1201.87
877,0.877000,976,2591009,-1543.08,-107.95,1423.87
878,0.878001,977,2592010,3801.92,-336.95,1311.87
879,0.879000,978,2593009,4095.92,-645.95,1485.87
880,0.880001,979,2594010,-1692.08,-2051.95,3732.87
881,0.881000,980,2595009,-7510.08,-3693.95,7304.87
882,0.882001,981,2596010,-18443.08,-2495.95,6131.87
883,0.883001,982,2597010,-27647.08,645.05,-1513.13
884,0.884001,983,2598010,-24722.08,2586.05,-5455.13
885,0.885001,984,2599010,-15586.08,1698.05,-1138.13
886,0.886001,985,2600010,701.92,597.05,5819.87
887,0.887001,986,2601010,11959.92,-228.95,8106.87
888,0.888000,987,2602009,18367.92,197.05,4812.87
889,0.889001,988,2603010,17012.92,1453.05,-348.1300000000001
890,0.890001,989,2604010,9853.92,889.05,-3777.13
891,0.891001,990,2605010,2196.92,781.05,-5249.13
892,0.892001,991,2606010,-1760.08,1085.05,-6171.13
893,0.893000,992,2607009,-2096.08,154.05,-6962.13
894,0.894001,993,2608010,-2922.08,-1304.95,-6555.13
895,0.895001,994,2609010,4397.92,-1339.95,-6166.13
896,0.896000,995,2610009,11567.92,800.05,-7870.13
897,0.897001,996,2611010,15593.92,830.05,-4226.13
898,0.898000,997,2612009,14614.92,-1336.95,3306.87
899,0.899001,998,2613010,6231.92,-1264.95,6436.87
900,0.900001,999,2614010,-2591.08,473.05,5251.87
901,0.901001,1000,2615010,-8265.08,1293.05,1856.87
902,0.902000,1001,2616009,-6365.08,1.0499999999999972,1229.87
903,0.903001,1002,2617010,318.92,-203.95,1531.87
904,0.904001,1003,2618010,3197.92,-255.95,1603.87
905,0.905001,1004,2619010,3656.92,-1261.95,2284.87
906,0.906001,1005,2620010,-3825.08,-2103.95,3842.87
907,0.907001,1006,2621010,-9275.08,-3593.95,7417.87
908,0.908001,1007,2622010,-20437.08,-2294.95,4726.87
909,0.909000,1008,2623009,-27785.08,1265.05,-2902.13
910,0.910001,1009,2624010,-23072.08,2527.05,-5027.13
911,0.911000,1010,2625009,-13746.08,1594.05,105.86999999999989
912,0.912001,1011,2626010,3422.92,597.05,6610.87
913,0.913001,1012,2627010,13742.92,-258.95,7761.87
914,0.914000,1013,2628009,19931.92,456.05,4291.87
915,0.915001,1014,2629010,16222.92,1426.05,-1077.13
916,0.916000,1015,2630009,8208.92,885.05,-4191.13
917,0.917001,1016,2631010,867.92,820.05,-5045.13
918,0.918001,1017,2632010,-1453.08,688.05,-6492.13
919,0.919001,1018,2633010,-2388.08,-73.95,-7278.13
920,0.920001,1019,2634010,-2618.08,-1267.95,-6623.13
921,0.921001,1020,2635010,5462.92,-1124.95,-6718.13
922,0.922001,1021,2636010,13079.92,802.05,-7534.13
923,0.923000,1022,2637009,15758.92,604.05,-2928.13
924,0.924001,1023,2638010,12997.92,-1593.95,4056.87
925,0.925001,1024,2639010,4992.92,-1100.95,6660.87
926,0.926001,1025,2640010,-4731.08,978.05,4920.87
927,0.927000,1026,2641009,-8425.08,1048.05,1645.87
928,0.928000,1027,2642009,-5001.08,33.05,1483.87
929,0.929001,1028,2643010,979.92,-197.95,1595.87
930,0.930001,1029,2644010,4480.92,-192.95,1617.87
931,0.931000,1030,2645009,2149.92,-1189.95,2296.87
932,0.932001,1031,2646010,-4969.08,-2854.95,4874.87
933,0.933001,1032,2647010,-10894.08,-3584.95,7911.87
934,0.934001,1033,2648010,-22935.08,-1672.95,3322.87
935,0.935001,1034,2649010,-27308.08,1735.05,-4040.13
936,0.936001,1035,2650010,-22243.08,2707.05,-4850.13
937,0.937000,1036,2651009,-10048.08,1196.05,1581.87
938,0.938001,1037,2652010,6629.92,36.05,7191.87
939,0.939001,1038,2653010,14781.92,-206.95,7104.87
940,0.940001,1039,2654010,19433.92,840.05,3090.87
941,0.941001,1040,2655010,13978.92,1628.05,-2087.13
942,0.942000,1041,2656009,6566.92,817.05,-4055.13
943,0.943001,1042,2657010,975.92,785.05,-5297.13
944,0.944001,1043,2658010,-1423.08,839.05,-6439.13
945,0.945001,1044,2659010,-3174.08,-456.95,-6939.13
946,0.946001,1045,2660010,-226.07999999999998,-1579.95,-6419.13
947,0.947000,1046,2661009,7681.92,-471.95,-6983.13
948,0.948001,1047,2662010,12905.92,752.05,-6966.13
949,0.949001,1048,2663010,15256.92,89.05,-1798.13
950,0.950000,1049,2664009,11569.92,-1664.95,4765.87
951,0.951001,1050,2665010,3037.92,-593.95,6296.87
952,0.952000,1051,2666009,-6209.08,1109.05,4073.87
953,0.953000,1052,2667009,-8168.08,472.05,1576.87
954,0.954000,1053,2668009,-3073.08,229.05,1548.87
955,0.955001,1054,2669010,1573.92,-100.95,1745.87
956,0.956001,1055,2670010,4792.92,-404.95,1579.87
957,0.957001,1056,2671010,381.92,-1445.95,2814.87
958,0.958001,1057,2672010,-6380.08,-3174.95,5764.87
959,0.959001,1058,2673010,-11616.08,-3338.95,7454.87
960,0.960001,1059,2674010,-25827.08,-756.95,1395.87
961,0.961000,1060,2675009,-26943.08,2224.05,-4851.13
962,0.962001,1061,2676010,-20217.08,2143.05,-3582.13
963,0.963001,1062,2677010,-6111.08,797.05,3186.87
964,0.964001,1063,2678010,9282.92,-208.95,7682.87
965,0.965001,1064,2679010,15099.92,139.05,6252.87
966,0.966001,1065,2680010,18397.92,1244.05,1725.87
967,0.967001,1066,2681010,13040.92,1015.05,-2668.13
968,0.968001,1067,2682010,5476.92,1068.05,-4593.13
969,0.969001,1068,2683010,-5.079999999999998,841.05,-5549.13
970,0.970001,1069,2684010,-1714.08,543.05,-6737.13
971,0.971001,1070,2685010,-3723.08,-450.95,-6533.13
972,0.972000,1071,2686009,1775.92,-1838.95,-5935.13
973,0.973001,1072,2687010,8237.92,78.05,-7646.13
974,0.974001,1073,2688010,14148.92,1259.05,-6220.13
975,0.975000,1074,2689009,16765.92,-856.95,156.8699999999999
976,0.976001,1075,2690010,9929.92,-1865.95,5882.87
977,0.977000,1076,2691009,163.92000000000002,48.05,6113.87
978,0.978001,1077,2692010,-7698.08,1346.05,2774.87
979,0.979001,1078,2693010,-8083.08,497.05,1211.87
980,0.980001,1079,2694010,-1963.08,-212.95,1679.87
981,0.981000,1080,2695009,3476.92,-330.95,1605.87
982,0.982000,1081,2696009,4356.92,-337.95,1798.87
983,0.983001,1082,2697010,-1058.08,-1814.95,2976.87
984,0.984001,1083,2698010,-7025.08,-3482.95,6395.87
985,0.985001,1084,2699010,-14007.08,-2948.95,7429.87
986,0.986000,1085,2700009,-27357.08,-205.95,-105.13000000000011
987,0.987000,1086,2701009,-26649.08,2580.05,-5367.13
988,0.988001,1087,2702010,-17842.08,2032.05,-2710.13
989,0.989001,1088,2703010,-1784.08,634.05,4520.87
990,0.990001,1089,2704010,10146.92,-91.95,8321.869999999999
991,0.991001,1090,2705010,15987.92,124.05,5519.87
992,0.992001,1091,2706010,18381.92,1294.05,765.8699999999999
993,0.993000,1092,2707009,11825.92,828.05,-3306.13
994,0.994001,1093,2708010,3958.92,1021.05,-5062.13
995,0.995000,1094,2709009,-1503.08,924.05,-5690.13
996,0.996001,1095,2710010,-1511.08,159.05,-7036.13
997,0.997001,1096,2711010,-3459.08,-662.95,-6832.13
998,0.998000,1097,2712009,2538.92,-1488.95,-5829.13
999,0.999001,1098,2713010,9592.92,291.05,-7755.13
1000,1.000001,1099,2714010,15750.92,1006.05,-5215.13
1001,1.001001,1100,2715010,15571.92,-957.95,1669.87
1002,1.002001,1101,2716010,8319.92,-1466.95,6368.87
1003,1.003001,1102,2717010,-1209.08,271.05,5782.87
1004,1.004001,1103,2718010,-8191.08,1086.05,2274.87
1005,1.005001,1104,2719010,-6852.08,120.05,1503.87
1006,1.006001,1105,2720010,-1958.08,-302.95,1802.87
1007,1.007001,1106,2721010,3447.92,-94.95,1117.87
1008,1.008001,1107,2722010,4107.92,-604.95,1416.87
1009,1.009000,1108,2723009,-1751.08,-2183.95,3563.87
1010,1.010001,1109,2724010,-7654.08,-3636.95,7261.87
1011,1.011001,1110,2725010,-18340.08,-2537.95,6220.87
1012,1.012001,1111,2726010,-27627.08,711.05,-1745.13
1013,1.013001,1112,2727010,-24313.08,2660.05,-5322.13
1014,1.014001,1113,2728010,-15837.08,1753.05,-1083.13
1015,1.015001,1114,2729010,1374.92,368.05,5916.87
1016,1.016001,1115,2730010,12052.92,-143.95,8150.87
1017,1.017001,1116,2731010,18058.92,644.05,4603.87
1018,1.018001,1117,2732010,16352.92,1360.05,-427.1300000000001
1019,1.019001,1118,2733010,9997.92,530.05,-3461.13
1020,1.020000,1119,2734009,2797.92,1126.05,-5332.13
1021,1.021001,1120,2735010,-1923.08,928.05,-6273.13
1022,1.022000,1121,2736009,-1404.08,-289.95,-6939.13
1023,1.023001,1122,2737010,-3880.08,-907.95,-6556.13
1024,1.024001,1123,2738010,4117.92,-1192.95,-6156.13
1025,1.025001,1124,2739010,11398.92,393.05,-7798.13
1026,1.026001,1125,2740010,15463.92,998.05,-4188.13
1027,1.027000,1126,2741009,15269.92,-1246.95,3108.87
1028,1.028001,1127,2742010,6400.92,-1461.95,6549.87
1029,1.029001,1128,2743010,-2579.08,617.05,5244.87
1030,1.030000,1129,2744009,-8804.08,1334.05,1802.87
1031,1.031001,1130,2745010,-6150.08,383.05,1256.87
1032,1.032001,1131,2746010,-504.08,-633.95,1956.87
1033,1.033001,1132,2747010,4129.92,-389.95,1746.87
1034,1.034001,1133,2748010,4115.92,-837.95,1975.87
1035,1.035001,1134,2749010,-3770.08,-2377.95,3872.87
1036,1.036001,1135,2750010,-9418.08,-3482.95,7262.87
1037,1.037001,1136,2751010,-21045.08,-2139.95,4865.87
1038,1.038001,1137,2752010,-26632.08,832.05,-2483.13
1039,1.039000,1138,2753009,-23582.08,2406.05,-5071.13
1040,1.040001,1139,2754010,-14192.08,1862.05,-489.1300000000001
1041,1.041001,1140,2755010,2971.92,657.05,6145.87
1042,1.042001,1141,2756010,13853.92,-401.95,8172.87
1043,1.043001,1142,2757010,19853.92,319.05,4386.87
1044,1.044001,1143,2758010,15922.92,1807.05,-1204.13
1045,1.045001,1144,2759010,8604.92,1067.05,-3766.13
1046,1.046001,1145,2760010,905.92,506.05,-5035.13
1047,1.047001,1146,2761010,-947.08,936.05,-6474.13
1048,1.048001,1147,2762010,-3181.08,-121.95,-6825.13
1049,1.049001,1148,2763010,-2308.08,-1428.95,-6683.13
1050,1.050001,1149,2764010,5536.92,-964.95,-6481.13
1051,1.051001,1150,2765010,13206.92,642.05,-7748.13
1052,1.052001,1151,2766010,16087.92,549.05,-3129.13
1053,1.053001,1152,2767010,12667.92,-1516.95,4016.87
1054,1.054001,1153,2768010,5002.92,-1063.95,6183.87
1055,1.055001,1154,2769010,-5656.08,828.05,5306.87
1056,1.056001,1155,2770010,-7674.08,817.05,1486.87
1057,1.057001,1156,2771010,-5457.08,227.05,1022.8699999999999
1058,1.058000,1157,2772009,1017.92,-39.95,1698.87
1059,1.059001,1158,2773010,5457.92,-504.95,1790.87
1060,1.060001,1159,2774010,1553.92,-969.95,2484.87
1061,1.061000,1160,2775009,-5245.08,-2740.95,4908.87
1062,1.062001,1161,2776010,-9861.08,-3936.95,8193.869999999999
1063,1.063001,1162,2777010,-22801.08,-1350.95,3126.87
1064,1.064000,1163,2778009,-27618.08,1821.05,-4143.13
1065,1.065001,1164,2779010,-22399.08,2611.05,-4755.13
1066,1.066000,1165,2780009,-10080.08,1151.05,1627.87
1067,1.067000,1166,2781009,6533.92,-147.95,7230.87
1068,1.068000,1167,2782009,14342.92,-28.950000000000003,6907.87
1069,1.069001,1168,2783010,19220.92,716.05,3063.87
1070,1.070001,1169,2784010,13888.92,1496.05,-2407.13
1071,1.071001,1170,2785010,6836.92,975.05,-4087.13
1072,1.072001,1171,2786010,1183.92,642.05,-5193.13
1073,1.073001,1172,2787010,-900.08,858.05,-6510.13
1074,1.074001,1173,2788010,-3158.08,-275.95,-6706.13
1075,1.075000,1174,2789009,-1190.08,-1637.95,-6346.13
1076,1.076001,1175,2790010,7325.92,-414.95,-6952.13
1077,1.077000,1176,2791009,13429.92,947.05,-6725.13
1078,1.078001,1177,2792010,15539.92,5.049999999999997,-1642.13
1079,1.079001,1178,2793010,12377.92,-1852.95,4960.87
1080,1.080001,1179,2794010,2392.92,-505.95,6068.87
1081,1.081000,1180,2795009,-6172.08,1278.05,3713.87
1082,1.082000,1181,2796009,-9032.08,510.05,1551.87
1083,1.083000,1182,2797009,-3274.08,-8.950000000000003,1552.87
1084,1.084000,1183,2798009,2181.92,-193.95,1809.87
1085,1.085000,1184,2799009,3971.92,-339.95,1469.87
1086,1.086001,1185,2800010,1354.92,-1532.95,2614.87
1087,1.087001,1186,2801010,-6003.08,-3103.95,5690.87
1088,1.088001,1187,2802010,-11232.08,-3304.95,7615.87
1089,1.089001,1188,2803010,-25413.08,-920.95,1583.87
1090,1.090001,1189,2804010,-27974.08,2288.05,-4793.13
1091,1.091001,1190,2805010,-20053.08,2415.05,-3605.13
1092,1.092001,1191,2806010,-5944.08,892.05,3089.87
1093,1.093000,1192,2807009,8753.92,-234.95,7784.87
1094,1.094000,1193,2808009,15427.92,151.05,6497.87
1095,1.095000,1194,2809009,18471.92,1181.05,1982.87
1096,1.096000,1195,2810009,13283.92,969.05,-2641.13
1097,1.097001,1196,2811010,5142.92,1031.05,-4824.13
1098,1.098001,1197,2812010,-509.08,822.05,-5661.13
1099,1.099000,1198,2813009,-1214.08,422.05,-6834.13
1100,1.100001,1199,2814010,-3858.08,-565.95,-6603.13
1101,1.101001,1200,2815010,1341.92,-1600.95,-6152.13
1102,1.102001,1201,2816010,7995.92,-4.950000000000003,-7485.13
1103,1.103001,1202,2817010,14266.92,1060.05,-6233.13
1104,1.104001,1203,2818010,16453.92,-633.95,-83.13000000000011
1105,1.105000,1204,2819009,9945.92,-1626.95,5827.87
1106,1.106000,1205,2820009,1094.92,-197.95,6111.87
1107,1.107001,1206,2821010,-7560.08,1200.05,3181.87
1108,1.108000,1207,2822009,-7843.08,700.05,1279.87
1109,1.109000,1208,2823009,-2661.08,-216.95,1686.87
1110,1.110001,1209,2824010,3416.92,-339.95,1643.87
1111,1.111001,1210,2825010,4309.92,-438.95,1520.87
1112,1.112000,1211,2826009,-845.08,-1645.95,2858.87
1113,1.113001,1212,2827010,-6480.08,-3392.95,6355.87
1114,1.114001,1213,2828010,-13700.08,-3218.95,7376.87
1115,1.115001,1214,2829010,-27003.08,-61.95,139.8699999999999
1116,1.116001,1215,2830010,-27309.08,2457.05,-5210.13
1117,1.117000,1216,2831009,-17825.08,1986.05,-3160.13
1118,1.118001,1217,2832010,-2394.08,727.05,4343.87
1119,1.119001,1218,2833010,10132.92,-313.95,8338.869999999999
1120,1.120001,1219,2834010,15904.92,206.05,5613.87
1121,1.121001,1220,2835010,18058.92,1549.05,857.8699999999999
1122,1.122001,1221,2836010,11824.92,1019.05,-3306.13
1123,1.123000,1222,2837009,4485.92,760.05,-4530.13
1124,1.124000,1223,2838009,-917.08,1048.05,-5586.13
1125,1.125001,1224,2839010,-1747.08,312.05,-6843.13
1126,1.126001,1225,2840010,-3610.08,-761.95,-6869.13
1127,1.127000,1226,2841009,1852.92,-1534.95,-5861.13
1128,1.128000,1227,2842009,10019.92,361.05,-7772.13
1129,1.129001,1228,2843010,15098.92,818.05,-5336.13
1130,1.130000,1229,2844009,15785.92,-904.95,1230.87
1131,1.131001,1230,2845010,8794.92,-1412.95,5959.87
1132,1.132001,1231,2846010,-1129.08,47.05,5944.87
1133,1.133001,1232,2847010,-8049.08,1169.05,2442.87
1134,1.134001,1233,2848010,-7458.08,209.05,1548.87
1135,1.135000,1234,2849009,-1479.08,80.05,1290.87
1136,1.136000,1235,2850009,3518.92,-437.95,1631.87
1137,1.137001,1236,2851010,4849.92,-773.95,2146.87
1138,1.138001,1237,2852010,-2335.08,-1869.95,3263.87
1139,1.139000,1238,2853009,-7478.08,-3637.95,6897.87
1140,1.140000,1239,2854009,-17068.08,-2637.95,6270.87
1141,1.141000,1240,2855009,-28016.08,549.05,-1520.13
1142,1.142001,1241,2856010,-24540.08,2526.05,-5343.13
1143,1.143001,1242,2857010,-16672.08,1713.05,-1297.13
1144,1.144001,1243,2858010,578.92,573.05,5484.87
1145,1.145001,1244,2859010,11674.92,-128.95,8007.87
1146,1.146000,1245,2860009,17857.92,372.05,5005.87
1147,1.147001,1246,2861010,17195.92,1286.05,-114.13000000000011
1148,1.148001,1247,2862010,10655.92,681.05,-3569.13
1149,1.149001,1248,2863010,2484.92,1154.05,-4934.13
1150,1.150001,1249,2864010,-2088.08,934.05,-6081.13
1151,1.151001,1250,2865010,-1164.08,-74.95,-7314.13
1152,1.152001,1251,2866010,-3591.08,-711.95,-6514.13
1153,1.153001,1252,2867010,3660.92,-1596.95,-5854.13
1154,1.154000,1253,2868009,10807.92,440.05,-7796.13
1155,1.155001,1254,2869010,15577.92,1133.05,-4462.13
1156,1.156001,1255,2870010,15330.92,-1483.95,2872.87
1157,1.157001,1256,2871010,6679.92,-1367.95,6268.87
1158,1.158001,1257,2872010,-2968.08,477.05,5326.87
1159,1.159001,1258,2873010,-8425.08,1205.05,1978.87
1160,1.160001,1259,2874010,-6689.08,434.05,1164.87
1161,1.161001,1260,2875010,-43.08,-517.95,1698.87
1162,1.162000,1261,2876009,4813.92,-438.95,1641.87
1163,1.163001,1262,2877010,3186.92,-679.95,2259.87
1164,1.164001,1263,2878010,-2693.08,-2512.95,3894.87
1165,1.165001,1264,2879010,-8700.08,-3557.95,7280.87
1166,1.166001,1265,2880010,-20503.08,-1980.95,5234.87
1167,1.167001,1266,2881010,-27477.08,629.05,-2545.13
1168,1.168001,1267,2882010,-23875.08,2760.05,-5335.13
1169,1.169000,1268,2883009,-13954.08,1696.05,-461.1300000000001
1170,1.170001,1269,2884010,2277.92,196.05,6160.87
1171,1.171001,1270,2885010,13093.92,71.05,8048.87
1172,1.172000,1271,2886009,19207.92,313.05,4281.87
1173,1.173001,1272,2887010,16664.92,1389.05,-1096.13
1174,1.174001,1273,2888010,8804.92,1009.05,-3752.13
1175,1.175001,1274,2889010,978.92,923.05,-5037.13
1176,1.176001,1275,2890010,-1305.08,870.05,-6264.13
1177,1.177001,1276,2891010,-1682.08,-241.95,-6933.13
1178,1.178001,1277,2892010,-2701.08,-1276.95,-6438.13
1179,1.179001,1278,2893010,4517.92,-858.95,-6558.13
1180,1.180000,1279,2894009,12624.92,666.05,-7529.13
1181,1.181001,1280,2895010,15282.92,450.05,-3360.13
1182,1.182001,1281,2896010,13888.92,-1264.95,3484.87
1183,1.183001,1282,2897010,5311.92,-1291.95,6551.87
1184,1.184001,1283,2898010,-4253.08,900.05,4820.87
1185,1.185001,1284,2899010,-8419.08,1185.05,1474.87
1186,1.186000,1285,2900009,-5566.08,-108.95,1552.87
1187,1.187001,1286,2901010,853.92,-223.95,2072.87
1188,1.188001,1287,2902010,4617.92,-367.95,1622.87
1189,1.189001,1288,2903010,3116.92,-970.95,2081.87
1190,1.190001,1289,2904010,-5162.08,-2585.95,4685.87
1191,1.191000,1290,2905009,-9662.08,-3799.95,7678.87
1192,1.192001,1291,2906010,-22027.08,-1689.95,3798.87
1193,1.193001,1292,2907010,-27632.08,1527.05,-3614.13
1194,1.194001,1293,2908010,-22814.08,2739.05,-4928.13
1195,1.195001,1294,2909010,-11968.08,1312.05,1118.87
1196,1.196001,1295,2910010,6471.92,-81.95,6829.87
1197,1.197001,1296,2911010,14176.92,-40.95,7313.87
1198,1.198001,1297,2912010,19345.92,677.05,3480.87
1199,1.199001,1298,2913010,14505.92,1339.05,-2006.13
1200,1.200001,1299,2914010,6575.92,973.05,-4095.13
1201,1.201001,1300,2915010,1212.92,837.05,-5373.13
1202,1.202001,1301,2916010,-1249.08,857.05,-6498.13
1203,1.203001,1302,2917010,-2799.08,-414.95,-6426.13
1204,1.204001,1303,2918010,-975.08,-1446.95,-6361.13
1205,1.205001,1304,2919010,6872.92,-572.95,-6749.13
1206,1.206001,1305,2920010,12920.92,823.05,-7219.13
1207,1.207001,1306,2921010,15308.92,240.05,-2293.13
1208,1.208001,1307,2922010,12465.92,-1722.95,4755.87
1209,1.209001,1308,2923010,3400.92,-673.95,6243.87
1210,1.210001,1309,2924010,-5593.08,937.05,4212.87
1211,1.211001,1310,2925010,-8220.08,752.05,1385.87
1212,1.212000,1311,2926009,-4317.08,186.05,1440.87
1213,1.213001,1312,2927010,1824.92,-395.95,1734.87
1214,1.214001,1313,2928010,4443.92,-300.95,1523.87
1215,1.215000,1314,2929009,1074.92,-1307.95,2583.87
1216,1.216001,1315,2930010,-5569.08,-3268.95,5514.87
1217,1.217001,1316,2931010,-11067.08,-3405.95,7759.87
1218,1.218001,1317,2932010,-24283.08,-1014.95,2057.87
1219,1.219001,1318,2933010,-26799.08,2108.05,-4511.13
1220,1.220001,1319,2934010,-21886.08,2533.05,-4111.13
1221,1.221001,1320,2935010,-7195.08,757.05,2634.87
1222,1.222001,1321,2936010,8181.92,-191.95,7679.87
1223,1.223001,1322,2937010,14488.92,160.05,6742.87
1224,1.224001,1323,2938010,18910.92,1124.05,2309.87
1225,1.225001,1324,2939010,13663.92,1140.05,-2361.13
1226,1.226000,1325,2940009,6349.92,1019.05,-4706.13
1227,1.227001,1326,2941010,-268.08,777.05,-5536.13
1228,1.228001,1327,2942010,-951.08,462.05,-6571.13
1229,1.229001,1328,2943010,-4099.08,-480.95,-7010.13
1230,1.230001,1329,2944010,343.92,-1521.95,-6066.13
1231,1.231000,1330,2945009,7651.92,-216.95,-7254.13
1232,1.232001,1331,2946010,13607.92,1036.05,-6563.13
1233,1.233001,1332,2947010,16666.92,-258.95,-619.1300000000001
1234,1.234001,1333,2948010,11171.92,-1867.95,5619.87
1235,1.235001,1334,2949010,1887.92,-151.95,6272.87
1236,1.236001,1335,2950010,-7489.08,1128.05,3281.87
1237,1.237001,1336,2951010,-8324.08,677.05,1407.87
1238,1.238001,1337,2952010,-3236.08,131.05,1555.87
1239,1.239000,1338,2953009,3152.92,-608.95,1516.87
1240,1.240001,1339,2954010,4750.92,-313.95,1707.87
1241,1.241001,1340,2955010,-679.08,-1446.95,2626.87
1242,1.242000,1341,2956009,-5872.08,-3348.95,5781.87
1243,1.243001,1342,2957010,-12760.08,-3201.95,7682.87
1244,1.244001,1343,2958010,-26104.08,-528.95,1078.87
1245,1.245001,1344,2959010,-27629.08,2373.05,-4953.13
1246,1.246000,1345,2960009,-19190.08,2366.05,-3688.13
1247,1.247001,1346,2961010,-3478.08,664.05,3686.87
1248,1.248001,1347,2962010,9404.92,-202.95,8136.87
1249,1.249001,1348,2963010,15694.92,234.05,6165.87
1250,1.250001,1349,2964010,18327.92,1096.05,1427.87
1251,1.251000,1350,2965009,12695.92,1182.05,-3444.13
1252,1.252001,1351,2966010,4521.92,890.05,-4536.13
1253,1.253000,1352,2967009,-706.08,842.05,-5664.13
1254,1.254001,1353,2968010,-1548.08,426.05,-6666.13
1255,1.255001,1354,2969010,-3813.08,-660.95,-6585.13
1256,1.256001,1355,2970010,1943.92,-1715.95,-6233.13
1257,1.257001,1356,2971010,8557.92,238.05,-7519.13
1258,1.258001,1357,2972010,15249.92,1035.05,-5793.13
1259,1.259000,1358,2973009,16278.92,-655.95,791.8699999999999
1260,1.260000,1359,2974009,8523.92,-1655.95,5849.87
1261,1.261001,1360,2975010,-176.07999999999998,-257.95,5890.87
1262,1.262001,1361,2976010,-8122.08,1735.05,2926.87
1263,1.263001,1362,2977010,-7232.08,279.05,1104.87
1264,1.264001,1363,2978010,-1575.08,-486.95,1517.87
1265,1.265001,1364,2979010,3132.92,-111.95,1970.87
1266,1.266001,1365,2980010,4792.92,-612.95,1813.87
1267,1.267000,1366,2981009,-1794.08,-1772.95,2821.87
1268,1.268001,1367,2982010,-6992.08,-3526.95,6686.87
1269,1.269001,1368,2983010,-15285.08,-3025.95,7056.87
1270,1.270000,1369,2984009,-28635.08,441.05,-1133.13
1271,1.271000,1370,2985009,-25373.08,2431.05,-5502.13
1272,1.272001,1371,2986010,-16879.08,1829.05,-2061.13
1273,1.273000,1372,2987009,-863.08,786.05,5091.87
1274,1.274000,1373,2988009,11336.92,-267.95,8232.869999999999
1275,1.275000,1374,2989009,16957.92,290.05,5269.87
1276,1.276000,1375,2990009,17782.92,1421.05,424.8699999999999
1277,1.277001,1376,2991010,10985.92,722.05,-3536.13
1278,1.278001,1377,2992010,3095.92,1047.05,-4670.13
1279,1.279001,1378,2993010,-1757.08,924.05,-5978.13
1280,1.280001,1379,2994010,-1082.08,23.049999999999997,-7283.13
1281,1.281000,1380,2995009,-3710.08,-611.95,-6737.13
1282,1.282001,1381,2996010,2988.92,-1444.95,-5965.13
1283,1.283001,1382,2997010,10389.92,217.05,-7440.13
1284,1.284001,1383,2998010,15734.92,803.05,-4954.13
1285,1.285000,1384,2999009,15479.92,-897.95,2107.87
1286,1.286000,1385,3000009,7151.92,-1458.95,6216.87
1287,1.287000,1386,3001009,-1596.08,406.05,5407.87
1288,1.288001,1387,3002010,-9221.08,1345.05,2625.87
1289,1.289000,1388,3003009,-6263.08,-109.95,1619.87
1290,1.290001,1389,3004010,-600.08,-83.95,1411.87
1291,1.291001,1390,3005010,3547.92,-249.95,1412.87
1292,1.292001,1391,3006010,4597.92,-695.95,1924.87
1293,1.293001,1392,3007010,-2928.08,-2091.95,3545.87
1294,1.294000,1393,3008009,-8067.08,-3836.95,7425.87
1295,1.295001,1394,3009010,-19410.08,-2358.95,6061.87
1296,1.296001,1395,3010010,-27391.08,696.05,-2067.13
1297,1.297000,1396,3011009,-23702.08,2631.05,-5705.13
1298,1.298001,1397,3012010,-15681.08,1695.05,-1296.13
1299,1.299001,1398,3013010,1610.92,509.05,5923.87
1300,1.300000,1399,3014009,12263.92,-180.95,8282.869999999999
1301,1.301001,1400,3015010,18977.92,219.05,4842.87
1302,1.302001,1401,3016010,16470.92,1679.05,-761.1300000000001
1303,1.303001,1402,3017010,9670.92,893.05,-4010.13
1304,1.304001,1403,3018010,2319.92,860.05,-5193.13
1305,1.305001,1404,3019010,-1791.08,999.05,-5828.13
1306,1.306001,1405,3020010,-1324.08,-238.95,-6448.13
1307,1.307000,1406,3021009,-3185.08,-1168.95,-6783.13
1308,1.308001,1407,3022010,3702.92,-1113.95,-6371.13
1309,1.309000,1408,3023009,11126.92,643.05,-7817.13
1310,1.310000,1409,3024009,16013.92,799.05,-3863.13
1311,1.311001,1410,3025010,14357.92,-1155.95,3361.87
1312,1.312001,1411,3026010,5857.92,-1604.95,6543.87
1313,1.313001,1412,3027010,-3093.08,572.05,5378.87
1314,1.314001,1413,3028010,-8744.08,1601.05,1309.87
1315,1.315000,1414,3029009,-5478.08,-87.95,1263.87
1316,1.316001,1415,3030010,168.92000000000002,-380.95,1926.87
1317,1.317000,1416,3031009,3770.92,-314.95,1736.87
1318,1.318001,1417,3032010,3344.92,-989.95,2299.87
1319,1.319001,1418,3033010,-3746.08,-2422.95,4055.87
1320,1.320000,1419,3034009,-9104.08,-3707.95,7491.87
1321,1.321001,1420,3035010,-21439.08,-1774.95,4152.87
1322,1.322001,1421,3036010,-27581.08,1289.05,-3155.13
1323,1.323001,1422,3037010,-22703.08,2599.05,-4818.13
1324,1.324001,1423,3038010,-13333.08,1546.05,526.8699999999999
1325,1.325000,1424,3039009,4305.92,224.05,6712.87
1326,1.326001,1425,3040010,13932.92,-186.95,7498.87
1327,1.327001,1426,3041010,19910.92,542.05,3850.87
1328,1.328000,1427,3042009,15787.92,1305.05,-1323.13
1329,1.329000,1428,3043009,6878.92,1099.05,-4030.13
1330,1.330001,1429,3044010,1157.92,770.05,-5530.13
1331,1.331001,1430,3045010,-1182.08,890.05,-6746.13
1332,1.332001,1431,3046010,-2586.08,2.049999999999997,-6552.13
1333,1.333001,1432,3047010,-1923.08,-1746.95,-6130.13
1334,1.334001,1433,3048010,6103.92,-854.95,-6364.13
1335,1.335001,1434,3049010,12596.92,969.05,-7343.13
1336,1.336001,1435,3050010,15454.92,303.05,-2892.13
1337,1.337001,1436,3051010,12908.92,-1376.95,4151.87
1338,1.338001,1437,3052010,4414.92,-1003.95,6462.87
1339,1.339001,1438,3053010,-4972.08,650.05,4703.87
1340,1.340001,1439,3054010,-8789.08,1118.05,1375.87
1341,1.341001,1440,3055010,-4404.08,17.049999999999997,1354.87
1342,1.342001,1441,3056010,1526.92,-257.95,1504.87
1343,1.343001,1442,3057010,3511.92,-157.95,1406.87
1344,1.344001,1443,3058010,2575.92,-1415.95,2674.87
1345,1.345001,1444,3059010,-4539.08,-2994.95,5305.87
1346,1.346001,1445,3060010,-10966.08,-3389.95,7660.87
1347,1.347001,1446,3061010,-23016.08,-1427.95,3030.87
1348,1.348001,1447,3062010,-27472.08,1880.05,-4392.13
1349,1.349001,1448,3063010,-21488.08,2680.05,-4711.13
1350,1.350001,1449,3064010,-10029.08,975.05,1908.87
1351,1.351001,1450,3065010,7042.92,-67.95,7367.87
1352,1.352001,1451,3066010,14552.92,-118.95,7124.87
1353,1.353000,1452,3067009,18983.92,954.05,2869.87
1354,1.354000,1453,3068009,14350.92,1455.05,-2239.13
1355,1.355001,1454,3069010,6085.92,889.05,-4498.13
1356,1.356001,1455,3070010,894.92,836.05,-5012.13
1357,1.357001,1456,3071010,-1472.08,543.05,-6351.13
1358,1.358001,1457,3072010,-3263.08,-393.95,-7007.13
1359,1.359001,1458,3073010,-348.08,-1394.95,-6435.13
1360,1.360000,1459,3074009,7116.92,-557.95,-6890.13
1361,1.361000,1460,3075009,13459.92,992.05,-6620.13
1362,1.362001,1461,3076010,16107.92,43.05,-1366.13
1363,1.363001,1462,3077010,11830.92,-1851.95,5115.87
1364,1.364000,1463,3078009,2301.92,-655.95,6090.87
1365,1.365001,1464,3079010,-6394.08,1437.05,3598.87
1366,1.366001,1465,3080010,-8300.08,632.05,1279.87
1367,1.367001,1466,3081010,-3452.08,-290.95,1721.87
1368,1.368001,1467,3082010,1799.92,-131.95,1867.87
1369,1.369001,1468,3083010,4326.92,-278.95,1495.87
1370,1.370001,1469,3084010,823.92,-1410.95,2475.87
1371,1.371000,1470,3085009,-5635.08,-3379.95,5801.87
1372,1.372000,1471,3086009,-11550.08,-3323.95,7647.87
1373,1.373001,1472,3087010,-26140.08,-766.95,1431.87
1374,1.374001,1473,3088010,-26988.08,2158.05,-4600.13
1375,1.375000,1474,3089009,-20179.08,2587.05,-3837.13
1376,1.376001,1475,3090010,-6119.08,799.05,3128.87
1377,1.377001,1476,3091010,9316.92,-379.95,7789.87
1378,1.378001,1477,3092010,15252.92,66.05,6204.87
1379,1.379001,1478,3093010,18647.92,1249.05,1932.87
1380,1.380000,1479,3094009,12959.92,1093.05,-2727.13
1381,1.381000,1480,3095009,5197.92,1048.05,-4609.13
1382,1.382000,1481,3096009,-629.08,812.05,-5768.13
1383,1.383001,1482,3097010,-878.08,487.05,-6991.13
1384,1.384000,1483,3098009,-3724.08,-406.95,-6505.13
1385,1.385001,1484,3099010,1144.92,-1882.95,-5663.13
1386,1.386001,1485,3100010,8581.92,173.05,-7590.13
1387,1.387001,1486,3101010,13869.92,1214.05,-6243.13
1388,1.388000,1487,3102009,16252.92,-690.95,-63.13000000000011
1389,1.389000,1488,3103009,9767.92,-1795.95,5906.87
1390,1.390001,1489,3104010,722.92,5.049999999999997,6177.87
1391,1.391001,1490,3105010,-6975.08,1084.05,3064.87
1392,1.392000,1491,3106009,-8511.08,257.05,1377.87
1393,1.393001,1492,3107010,-2271.08,125.05,1447.87
1394,1.394001,1493,3108010,3249.92,-331.95,1616.87
1395,1.395001,1494,3109010,3492.92,-355.95,1232.87
1396,1.396000,1495,3110009,-203.07999999999998,-1815.95,3125.87
1397,1.397001,1496,3111010,-6102.08,-3687.95,6867.87
1398,1.398001,1497,3112010,-14259.08,-2796.95,6972.87
1399,1.399001,1498,3113010,-27669.08,44.05,-247.1300000000001
1400,1.400001,1499,3114010,-26296.08,2493.05,-5414.13
1401,1.401001,1500,3115010,-17637.08,2003.05,-2571.13
1402,1.402001,1501,3116010,-2041.08,629.05,4678.87
1403,1.403001,1502,3117010,10127.92,-142.95,8204.869999999999
1404,1.404001,1503,3118010,16215.92,264.05,5753.87
1405,1.405001,1504,3119010,18340.92,1242.05,683.8699999999999
1406,1.406001,1505,3120010,11671.92,740.05,-3472.13
1407,1.407001,1506,3121010,3992.92,1079.05,-4852.13
1408,1.408001,1507,3122010,-1535.08,969.05,-5918.13
1409,1.409000,1508,3123009,-1492.08,245.05,-6969.13
1410,1.410001,1509,3124010,-3693.08,-883.95,-6568.13
1411,1.411001,1510,3125010,2493.92,-1632.95,-6036.13
1412,1.412001,1511,3126010,9327.92,543.05,-7730.13
1413,1.413001,1512,3127010,14877.92,965.05,-5357.13
1414,1.414001,1513,3128010,16265.92,-918.95,1597.87
1415,1.415001,1514,3129010,8453.92,-1706.95,6597.87
1416,1.416001,1515,3130010,-1082.08,184.05,5801.87
1417,1.417001,1516,3131010,-8101.08,1439.05,2097.87
1418,1.418001,1517,3132010,-7204.08,223.05,1253.87
1419,1.419000,1518,3133009,-1406.08,-61.95,1805.87
1420,1.420000,1519,3134009,3225.92,-529.95,1796.87
1421,1.421001,1520,3135010,4796.92,-779.95,1704.87
1422,1.422001,1521,3136010,-1798.08,-1831.95,3242.87
1423,1.423000,1522,3137009,-7678.08,-3788.95,7061.87
1424,1.424000,1523,3138009,-17382.08,-2567.95,6081.87
1425,1.425001,1524,3139010,-28510.08,632.05,-1439.13
1426,1.426001,1525,3140010,-23784.08,2221.05,-5315.13
1427,1.427001,1526,3141010,-16548.08,1975.05,-1577.13
1428,1.428001,1527,3142010,-136.07999999999998,726.05,5385.87
1429,1.429000,1528,3143009,12530.92,-420.95,7936.87
1430,1.430001,1529,3144010,17518.92,488.05,4962.87
1431,1.431001,1530,3145010,17482.92,1310.05,-89.13000000000011
1432,1.432000,1531,3146009,10326.92,948.05,-3624.13
1433,1.433001,1532,3147010,2343.92,1196.05,-4890.13
1434,1.434001,1533,3148010,-1343.08,686.05,-5904.13
1435,1.435001,1534,3149010,-1538.08,11.049999999999997,-6943.13
1436,1.436000,1535,3150009,-3214.08,-666.95,-6464.13
1437,1.437001,1536,3151010,3399.92,-1595.95,-6048.13
1438,1.438001,1537,3152010,11036.92,451.05,-7714.13
1439,1.439001,1538,3153010,15633.92,1026.05,-4607.13
1440,1.440000,1539,3154009,14532.92,-1384.95,2704.87
1441,1.441001,1540,3155010,6573.92,-1352.95,6385.87
1442,1.442001,1541,3156010,-2701.08,383.05,5219.87
1443,1.443000,1542,3157009,-8414.08,1353.05,2101.87
1444,1.444000,1543,3158009,-6474.08,98.05,1349.87
1445,1.445001,1544,3159010,94.92,-392.95,1622.87
1446,1.446001,1545,3160010,3945.92,-17.950000000000003,1686.87
1447,1.447001,1546,3161010,3431.92,-941.95,2162.87
1448,1.448001,1547,3162010,-2573.08,-2433.95,4138.87
1449,1.449001,1548,3163010,-8525.08,-3610.95,7547.87
1450,1.450001,1549,3164010,-20376.08,-2097.95,4990.87
1451,1.451000,1550,3165009,-28113.08,1043.05,-2931.13
1452,1.452001,1551,3166010,-22793.08,2675.05,-5419.13
1453,1.453001,1552,3167010,-14211.08,1523.05,16.86999999999989
1454,1.454000,1553,3168009,2474.92,348.05,6417.87
1455,1.455001,1554,3169010,13555.92,-166.95,7755.87
1456,1.456001,1555,3170010,19159.92,368.05,4074.87
1457,1.457001,1556,3171010,16383.92,1533.05,-1144.13
1458,1.458000,1557,3172009,7891.92,738.05,-3795.13
1459,1.459001,1558,3173010,1614.92,1085.05,-5310.13
1460,1.460000,1559,3174009,-1660.08,859.05,-6147.13
1461,1.461001,1560,3175010,-2055.08,-308.95,-6865.13
1462,1.462001,1561,3176010,-2172.08,-1090.95,-6387.13
1463,1.463001,1562,3177010,4993.92,-1055.95,-6165.13
1464,1.464001,1563,3178010,12421.92,619.05,-7406.13
1465,1.465001,1564,3179010,15510.92,577.05,-3190.13
1466,1.466001,1565,3180010,13827.92,-1291.95,3667.87
1467,1.467000,1566,3181009,4846.92,-1217.95,6479.87
1468,1.468001,1567,3182010,-4608.08,712.05,4614.87
1469,1.469000,1568,3183009,-8573.08,1153.05,1523.87
1470,1.470001,1569,3184010,-5231.08,48.05,1420.87
1471,1.471000,1570,3185009,741.92,-146.95,1432.87
1472,1.472000,1571,3186009,4736.92,-461.95,1787.87
1473,1.473001,1572,3187010,3312.92,-1326.95,2442.87
1474,1.474001,1573,3188010,-5408.08,-2341.95,4598.87
1475,1.475001,1574,3189010,-9814.08,-3735.95,7663.87
1476,1.476001,1575,3190010,-21514.08,-1797.95,3551.87
1477,1.477001,1576,3191010,-27451.08,1773.05,-3544.13
1478,1.478001,1577,3192010,-22892.08,2499.05,-4757.13
1479,1.479001,1578,3193010,-11292.08,1318.05,996.8699999999999
1480,1.480001,1579,3194010,5692.92,261.05,7021.87
1481,1.481000,1580,3195009,14131.92,-237.95,7371.87
1482,1.482001,1581,3196010,19670.92,597.05,3530.87
1483,1.483001,1582,3197010,14311.92,1599.05,-1922.13
1484,1.484000,1583,3198009,7085.92,912.05,-4251.13
1485,1.485000,1584,3199009,843.92,760.05,-5303.13
1486,1.486000,1585,3200009,-1074.08,851.05,-6498.13
1487,1.487001,1586,3201010,-2474.08,-534.95,-6634.13
1488,1.488001,1587,3202010,-1422.08,-1494.95,-6355.13
1489,1.489001,1588,3203010,6357.92,-451.95,-6742.13
1490,1.490001,1589,3204010,12834.92,761.05,-7298.13
1491,1.491001,1590,3205010,15415.92,219.05,-2259.13
1492,1.492001,1591,3206010,12754.92,-1671.95,4860.87
1493,1.493001,1592,3207010,3784.92,-652.95,6405.87
1494,1.494001,1593,3208010,-6060.08,1094.05,4105.87
1495,1.495001,1594,3209010,-8008.08,617.05,1577.87
1496,1.496001,1595,3210010,-4199.08,-1.9500000000000028,1537.87
1497,1.497001,1596,3211010,1129.92,-283.95,1742.87
1498,1.498001,1597,3212010,4535.92,-203.95,1558.87
1499,1.499001,1598,3213010,962.92,-1273.95,2189.87
1500,1.500001,1599,3214010,-4645.08,-3088.95,5320.87
1501,1.501001,1600,3215010,-10815.08,-3602.95,7879.87
1502,1.502001,1601,3216010,-24547.08,-1143.95,2479.87
1503,1.503001,1602,3217010,-26950.08,2215.05,-4347.13
1504,1.504001,1603,3218010,-21515.08,2572.05,-4408.13
1505,1.505001,1604,3219010,-7807.08,883.05,2312.87
1506,1.506001,1605,3220010,8299.92,-270.95,7744.87
1507,1.507000,1606,3221009,14326.92,-25.950000000000003,6747.87
1508,1.508001,1607,3222010,18768.92,1047.05,2175.87
1509,1.509001,1608,3223010,13686.92,1254.05,-2557.13
1510,1.510001,1609,3224010,5526.92,911.05,-4377.13
1511,1.511001,1610,3225010,730.92,827.05,-5347.13
1512,1.512000,1611,3226009,-1623.08,635.05,-6727.13
1513,1.513000,1612,3227009,-3220.08,-282.95,-6916.13
1514,1.514001,1613,3228010,638.92,-1674.95,-5932.13
1515,1.515001,1614,3229010,7722.92,-200.95,-6977.13
1516,1.516001,1615,3230010,13532.92,1098.05,-6612.13
1517,1.517001,1616,3231010,15448.92,-456.95,-484.1300000000001
1518,1.518000,1617,3232009,11398.92,-1750.95,5402.87
1519,1.519001,1618,3233010,1628.92,-300.95,6092.87
1520,1.520001,1619,3234010,-7076.08,1102.05,3617.87
1521,1.521001,1620,3235010,-7977.08,311.05,1301.87
1522,1.522001,1621,3236010,-3587.08,506.05,1160.87
1523,1.523001,1622,3237010,2653.92,-153.95,1330.87
1524,1.524001,1623,3238010,4722.92,-878.95,1700.87
1525,1.525000,1624,3239009,375.92,-1424.95,3203.87
1526,1.526001,1625,3240010,-6348.08,-3459.95,6241.87
1527,1.527000,1626,3241009,-12319.08,-3194.95,7308.87
1528,1.528001,1627,3242010,-26001.08,-96.95,708.8699999999999
1529,1.529001,1628,3243010,-26850.08,2256.05,-5274.13
1530,1.530000,1629,3244009,-18858.08,2087.05,-3120.13
1531,1.531000,1630,3245009,-5061.08,704.05,3973.87
1532,1.532001,1631,3246010,9836.92,-225.95,7761.87
1533,1.533001,1632,3247010,15159.92,180.05,6119.87
1534,1.534001,1633,3248010,18517.92,1060.05,1353.87
1535,1.535001,1634,3249010,12642.92,1137.05,-3397.13
1536,1.536000,1635,3250009,4443.92,1138.05,-4521.13
1537,1.537000,1636,3251009,-459.08,778.05,-5672.13
1538,1.538001,1637,3252010,-1901.08,591.05,-6952.13
1539,1.539001,1638,3253010,-3998.08,-601.95,-6483.13
1540,1.540001,1639,3254010,1730.92,-1783.95,-5928.13
1541,1.541001,1640,3255010,8728.92,245.05,-7136.13
1542,1.542001,1641,3256010,14414.92,938.05,-5659.13
1543,1.543000,1642,3257009,16400.92,-869.95,490.8699999999999
1544,1.544001,1643,3258010,10103.92,-1495.95,5993.87
1545,1.545001,1644,3259010,-84.08,20.049999999999997,5765.87
1546,1.546001,1645,3260010,-8036.08,1010.05,2478.87
1547,1.547000,1646,3261009,-8033.08,622.05,1509.87
1548,1.548001,1647,3262010,-2308.08,-109.95,1416.87
1549,1.549001,1648,3263010,3809.92,-464.95,1440.87
1550,1.550001,1649,3264010,3584.92,-404.95,1850.87
1551,1.551001,1650,3265010,68.92,-1905.95,2764.87
1552,1.552001,1651,3266010,-6229.08,-3419.95,6781.87
1553,1.553001,1652,3267010,-15760.08,-3062.95,7169.87
1554,1.554001,1653,3268010,-27057.08,84.05,-393.1300000000001
1555,1.555001,1654,3269010,-26598.08,2776.05,-5396.13
1556,1.556001,1655,3270010,-16731.08,1726.05,-2558.13
1557,1.557001,1656,3271010,-1438.08,593.05,4786.87
1558,1.558000,1657,3272009,10368.92,-14.950000000000003,7994.87
1559,1.559000,1658,3273009,16887.92,215.05,5361.87
1560,1.560000,1659,3274009,17464.92,1280.05,769.8699999999999
1561,1.561001,1660,3275010,10930.92,1067.05,-3757.13
1562,1.562000,1661,3276009,3776.92,1090.05,-4837.13
1563,1.563000,1662,3277009,-1762.08,845.05,-5409.13
1564,1.564001,1663,3278010,-920.08,21.049999999999997,-6990.13
1565,1.565001,1664,3279010,-2805.08,-742.95,-6486.13
1566,1.566000,1665,3280009,2236.92,-1365.95,-5911.13
1567,1.567001,1666,3281010,9249.92,187.05,-7713.13
1568,1.568001,1667,3282010,15235.92,960.05,-5332.13
1569,1.569000,1668,3283009,15695.92,-798.95,1620.87
1570,1.570000,1669,3284009,7821.92,-1701.95,6203.87
1571,1.571001,1670,3285010,-1112.08,208.05,5492.87
1572,1.572001,1671,3286010,-8270.08,1532.05,2540.87
1573,1.573001,1672,3287010,-6602.08,-3.950000000000003,1366.87
1574,1.574001,1673,3288010,-1311.08,-235.95,1682.87
1575,1.575001,1674,3289010,3348.92,-36.95,1728.87
1576,1.576000,1675,3290009,3956.92,-773.95,1779.87
1577,1.577001,1676,3291010,-1693.08,-2153.95,3607.87
1578,1.578001,1677,3292010,-7469.08,-3580.95,7120.87
1579,1.579001,1678,3293010,-17788.08,-2501.95,5936.87
1580,1.580001,1679,3294010,-27803.08,552.05,-1810.13
1581,1.581001,1680,3295010,-24415.08,2549.05,-5544.13
1582,1.582001,1681,3296010,-15505.08,1779.05,-1188.13
1583,1.583001,1682,3297010,456.92,513.05,5668.87
1584,1.584001,1683,3298010,11700.92,-199.95,7701.87
1585,1.585001,1684,3299010,18027.92,533.05,4778.87
1586,1.586001,1685,3300010,17312.92,1421.05,-346.1300000000001
1587,1.587001,1686,3301010,9865.92,602.05,-3499.13
1588,1.588001,1687,3302010,2411.92,1163.05,-4863.13
1589,1.589000,1688,3303009,-1564.08,879.05,-6092.13
1590,1.590001,1689,3304010,-936.08,-176.95,-6822.13
1591,1.591001,1690,3305010,-3550.08,-932.95,-6379.13
1592,1.592001,1691,3306010,3190.92,-1140.95,-6134.13
1593,1.593001,1692,3307010,10982.92,598.05,-7705.13
1594,1.594001,1693,3308010,15413.92,611.05,-4282.13
1595,1.595001,1694,3309010,15256.92,-1034.95,2819.87
1596,1.596001,1695,3310010,6263.92,-1410.95,6637.87
1597,1.597001,1696,3311010,-2809.08,243.05,5164.87
1598,1.598001,1697,3312010,-8811.08,1434.05,1536.87
1599,1.599001,1698,3313010,-6182.08,110.05,1223.87
1600,1.600001,1699,3314010,-387.08,-347.95,1784.87
1601,1.601001,1700,3315010,3798.92,-213.95,1610.87
1602,1.602001,1701,3316010,4656.92,-1057.95,1961.87
1603,1.603000,1702,3317009,-2918.08,-2349.95,4370.87
1604,1.604001,1703,3318010,-9079.08,-3609.95,7552.87
1605,1.605000,1704,3319009,-20567.08,-1976.95,4549.87
1606,1.606001,1705,3320010,-27460.08,1162.05,-2650.13
1607,1.607001,1706,3321010,-22723.08,2527.05,-5184.13
1608,1.608000,1707,3322009,-14192.08,1541.05,-127.13000000000011
1609,1.609000,1708,3323009,3370.92,387.05,6519.87
1610,1.610001,1709,3324010,13384.92,-296.95,7644.87
1611,1.611000,1710,3325009,18928.92,545.05,4000.87
1612,1.612001,1711,3326010,16017.92,1464.05,-962.1300000000001
1613,1.613000,1712,3327009,7385.92,718.05,-4093.13
1614,1.614001,1713,3328010,1346.92,1230.05,-5457.13
1615,1.615001,1714,3329010,-1214.08,759.05,-6130.13
1616,1.616001,1715,3330010,-1053.08,-439.95,-6735.13
1617,1.617001,1716,3331010,-2299.08,-1118.95,-6188.13
1618,1.618001,1717,3332010,4185.92,-980.95,-5998.13
1619,1.619001,1718,3333010,11360.92,617.05,-7363.13
1620,1.620001,1719,3334010,14694.92,700.05,-3458.13
1621,1.621000,1720,3335009,13265.92,-1128.95,3508.87
1622,1.622001,1721,3336010,6100.92,-1236.95,6544.87
1623,1.623001,1722,3337010,-3456.08,583.05,4839.87
1624,1.624001,1723,3338010,-8439.08,1133.05,1580.87
1625,1.625001,1724,3339010,-5385.08,122.05,1521.87
1626,1.626001,1725,3340010,-284.08,-377.95,1871.87
1627,1.627001,1726,3341010,4314.92,-362.95,1402.87
1628,1.628001,1727,3342010,3417.92,-1068.95,2007.87
1629,1.629001,1728,3343010,-3862.08,-2505.95,4482.87
1630,1.630001,1729,3344010,-9090.08,-3489.95,7202.87
1631,1.631001,1730,3345010,-21587.08,-1783.95,3887.87
1632,1.632000,1731,3346009,-26841.08,1306.05,-3051.13
1633,1.633000,1732,3347009,-21891.08,2696.05,-4662.13
1634,1.634001,1733,3348010,-12330.08,1464.05,833.8699999999999
1635,1.635001,1734,3349010,5041.92,-23.950000000000003,6807.87
1636,1.636001,1735,3350010,14106.92,-173.95,7271.87
1637,1.637001,1736,3351010,18780.92,764.05,3146.87
1638,1.638000,1737,3352009,13918.92,1216.05,-1817.13
1639,1.639000,1738,3353009,6718.92,917.05,-4013.13
1640,1.640001,1739,3354010,1008.92,1020.05,-5294.13
1641,1.641000,1740,3355009,-971.08,698.05,-6472.13
1642,1.642000,1741,3356009,-2036.08,-156.95,-6259.13
1643,1.643001,1742,3357010,-1755.08,-1373.95,-5646.13
1644,1.644001,1743,3358010,5653.92,-698.95,-6204.13
1645,1.645001,1744,3359010,11667.92,860.05,-6848.13
1646,1.646001,1745,3360010,15480.92,186.05,-2511.13
1647,1.647001,1746,3361010,13155.92,-1236.95,4032.87
1648,1.648001,1747,3362010,4177.92,-878.95,5927.87
1649,1.649001,1748,3363010,-4220.08,520.05,3941.87
1650,1.650000,1749,3364009,-8961.08,1140.05,1619.87
1651,1.651001,1750,3365010,-4599.08,127.05,1333.87
1652,1.652001,1751,3366010,1197.92,-504.95,1398.87
1653,1.653001,1752,3367010,4004.92,-236.95,1745.87
1654,1.654000,1753,3368009,3313.92,-1328.95,2296.87
1655,1.655001,1754,3369010,-4193.08,-2827.95,4900.87
1656,1.656001,1755,3370010,-9578.08,-3458.95,7699.87
1657,1.657000,1756,3371009,-22949.08,-1598.95,3027.87
1658,1.658000,1757,3372009,-27382.08,1979.05,-3917.13
1659,1.659001,1758,3373010,-22172.08,2570.05,-4632.13
1660,1.660001,1759,3374010,-10881.08,1096.05,1171.87
1661,1.661001,1760,3375010,5878.92,259.05,7226.87
1662,1.662000,1761,3376009,14317.92,-270.95,7213.87
1663,1.663001,1762,3377010,19553.92,780.05,2863.87
1664,1.664000,1763,3378009,14547.92,1410.05,-1718.13
1665,1.665001,1764,3379010,6563.92,940.05,-4479.13
1666,1.666001,1765,3380010,128.92000000000002,952.05,-5147.13
1667,1.667001,1766,3381010,-1493.08,509.05,-6269.13
1668,1.668001,1767,3382010,-2921.08,-127.95,-6871.13
1669,1.669001,1768,3383010,-1319.08,-1314.95,-5759.13
1670,1.670001,1769,3384010,7291.92,-716.95,-7048.13
1671,1.671000,1770,3385009,13419.92,997.05,-6581.13
1672,1.672001,1771,3386010,16022.92,-18.950000000000003,-1646.13
1673,1.673001,1772,3387010,12575.92,-1762.95,4576.87
1674,1.674000,1773,3388009,2392.92,-405.95,6256.87
1675,1.675001,1774,3389010,-6110.08,1014.05,3572.87
1676,1.676000,1775,3390009,-9299.08,620.05,1600.87
1677,1.677001,1776,3391010,-3545.08,88.05,1668.87
1678,1.678001,1777,3392010,2521.92,-500.95,1378.87
1679,1.679001,1778,3393010,4912.92,-204.95,1458.87
1680,1.680001,1779,3394010,1870.92,-1369.95,2424.87
1681,1.681001,1780,3395010,-5646.08,-3404.95,5349.87
1682,1.682001,1781,3396010,-11020.08,-3281.95,8015.87
1683,1.683000,1782,3397009,-26034.08,-1119.95,1904.87
1684,1.684001,1783,3398010,-27765.08,2279.05,-4853.13
1685,1.685001,1784,3399010,-21205.08,2600.05,-4027.13
1686,1.686001,1785,3400010,-6543.08,702.05,2719.87
1687,1.687001,1786,3401010,8899.92,-179.95,7984.87
1688,1.688001,1787,3402010,14667.92,46.05,6747.87
1689,1.689000,1788,3403009,19211.92,1210.05,1922.87
1690,1.690001,1789,3404010,13283.92,1328.05,-2317.13
1691,1.691000,1790,3405009,5295.92,1006.05,-4425.13
1692,1.692000,1791,3406009,-160.07999999999998,735.05,-5724.13
1693,1.693000,1792,3407009,-1306.08,636.05,-6649.13
1694,1.694001,1793,3408010,-4347.08,-355.95,-6601.13
1695,1.695001,1794,3409010,1270.92,-1819.95,-6004.13
1696,1.696001,1795,3410010,8420.92,-109.95,-7654.13
1697,1.697001,1796,3411010,14639.92,1191.05,-6503.13
1698,1.698001,1797,3412010,16061.92,-598.95,-68.13000000000011
1699,1.699000,1798,3413009,10615.92,-1983.95,5436.87
1700,1.700001,1799,3414010,954.92,-148.95,6124.87
1701,1.701000,1800,3415009,-7767.08,1419.05,3081.87
1702,1.702001,1801,3416010,-7991.08,284.05,1141.87
1703,1.703001,1802,3417010,-3207.08,-73.95,1569.87
1704,1.704000,1803,3418009,4506.92,-359.95,1501.87
1705,1.705001,1804,3419010,3840.92,-464.95,2017.87
1706,1.706001,1805,3420010,-741.08,-1519.95,2822.87
1707,1.707001,1806,3421010,-6140.08,-3673.95,6148.87
1708,1.708001,1807,3422010,-13564.08,-2981.95,7606.87
1709,1.709000,1808,3423009,-27601.08,-119.95,14.86999999999989
1710,1.710001,1809,3424010,-26830.08,2279.05,-5420.13
1711,1.711001,1810,3425010,-18123.08,2049.05,-2612.13
1712,1.712000,1811,3426009,-2866.08,717.05,4406.87
1713,1.713000,1812,3427009,10107.92,19.049999999999997,8081.87
1714,1.714001,1813,3428010,15319.92,254.05,5785.87
1715,1.715001,1814,3429010,18698.92,1261.05,1126.87
1716,1.716000,1815,3430009,12105.92,973.05,-2943.13
1717,1.717001,1816,3431010,4648.92,912.05,-4648.13
1718,1.718001,1817,3432010,-1151.08,824.05,-5827.13
1719,1.719001,1818,3433010,-1221.08,344.05,-7207.13
1720,1.720001,1819,3434010,-4102.08,-596.95,-6793.13
1721,1.721000,1820,3435009,1994.92,-1688.95,-5956.13
1722,1.722000,1821,3436009,9351.92,174.05,-7954.13
1723,1.723001,1822,3437010,14999.92,1132.05,-5745.13
1724,1.724001,1823,3438010,16402.92,-909.95,1323.87
1725,1.725001,1824,3439010,9019.92,-1888.95,6158.87
1726,1.726001,1825,3440010,-863.08,327.05,5836.87
1727,1.727000,1826,3441009,-8396.08,1237.05,2482.87
1728,1.728001,1827,3442010,-7286.08,164.05,1527.87
1729,1.729001,1828,3443010,-1907.08,149.05,1791.87
1730,1.730001,1829,3444010,3960.92,-412.95,1382.87
1731,1.731000,1830,3445009,4405.92,-550.95,1997.87
1732,1.732001,1831,3446010,-2047.08,-1893.95,3323.87
1733,1.733000,1832,3447009,-7423.08,-3772.95,6901.87
1734,1.734000,1833,3448009,-17027.08,-2725.95,6848.87
1735,1.735000,1834,3449009,-27861.08,310.05,-1122.13
1736,1.736001,1835,3450010,-25150.08,2592.05,-5614.13
1737,1.737000,1836,3451009,-16398.08,1817.05,-1901.13
1738,1.738001,1837,3452010,-47.08,660.05,5011.87
1739,1.739001,1838,3453010,11382.92,-169.95,8073.87
1740,1.740001,1839,3454010,17109.92,219.05,5143.87
1741,1.741001,1840,3455010,17886.92,1389.05,119.86999999999989
1742,1.742000,1841,3456009,11311.92,803.05,-3475.13
1743,1.743001,1842,3457010,2925.92,1094.05,-5072.13
1744,1.744001,1843,3458010,-1424.08,866.05,-5893.13
1745,1.745001,1844,3459010,-1439.08,-16.950000000000003,-7161.13
1746,1.746000,1845,3460009,-3415.08,-873.95,-6558.13
1747,1.747000,1846,3461009,2966.92,-1363.95,-6205.13
1748,1.748001,1847,3462010,10848.92,452.05,-8128.13
1749,1.749001,1848,3463010,16212.92,816.05,-4572.13
1750,1.750000,1849,3464009,14932.92,-1127.95,2594.87
1751,1.751001,1850,3465010,6443.92,-1331.95,6487.87
1752,1.752000,1851,3466009,-2495.08,474.05,5598.87
1753,1.753001,1852,3467010,-8617.08,1098.05,2322.87
1754,1.754001,1853,3468010,-5988.08,145.05,1487.87
1755,1.755001,1854,3469010,-898.08,-112.95,1511.87
1756,1.756001,1855,3470010,3795.92,-233.95,1585.87
1757,1.757001,1856,3471010,4679.92,-962.95,2186.87
1758,1.758001,1857,3472010,-3680.08,-2377.95,4080.87
1759,1.759001,1858,3473010,-9128.08,-3641.95,7611.87
1760,1.760001,1859,3474010,-20711.08,-2080.95,5059.87
1761,1.761001,1860,3475010,-27363.08,1053.05,-2848.13
1762,1.762001,1861,3476010,-23452.08,2523.05,-5400.13
1763,1.763001,1862,3477010,-14249.08,1596.05,-97.13000000000011
1764,1.764001,1863,3478010,2980.92,483.05,6399.87
1765,1.765000,1864,3479009,13354.92,-216.95,7927.87
1766,1.766001,1865,3480010,19944.92,403.05,4291.87
1767,1.767001,1866,3481010,15778.92,1448.05,-1416.13
1768,1.768000,1867,3482009,8982.92,845.05,-3937.13
1769,1.769000,1868,3483009,972.92,849.05,-5299.13
1770,1.770001,1869,3484010,-1215.08,880.05,-6363.13
1771,1.771000,1870,3485009,-2060.08,-256.95,-6671.13
1772,1.772001,1871,3486010,-2676.08,-1296.95,-6618.13
1773,1.773001,1872,3487010,5210.92,-798.95,-6679.13
1774,1.774000,1873,3488009,12515.92,637.05,-7586.13
1775,1.775001,1874,3489010,15954.92,579.05,-3105.13
1776,1.776001,1875,3490010,12986.92,-1425.95,4284.87
1777,1.777001,1876,3491010,5347.92,-1184.95,6444.87
1778,1.778001,1877,3492010,-4697.08,908.05,4814.87
1779,1.779000,1878,3493009,-8638.08,1144.05,1510.87
1780,1.780000,1879,3494009,-4836.08,-53.95,1280.87
1781,1.781001,1880,3495010,823.92,-213.95,1840.87
1782,1.782000,1881,3496009,4115.92,-163.95,1574.87
1783,1.783001,1882,3497010,2320.92,-1305.95,2388.87
1784,1.784000,1883,3498009,-4668.08,-2821.95,4698.87
1785,1.785001,1884,3499010,-9881.08,-3683.95,7921.87
1786,1.786001,1885,3500010,-23280.08,-1559.95,3211.87
1787,1.787001,1886,3501010,-26966.08,1833.05,-3964.13
1788,1.788001,1887,3502010,-22561.08,2547.05,-4763.13
1789,1.789001,1888,3503010,-10915.08,1215.05,1383.87
1790,1.790001,1889,3504010,6321.92,151.05,7198.87
1791,1.791001,1890,3505010,14160.92,-329.95,7068.87
1792,1.792001,1891,3506010,20223.92,738.05,3471.87
1793,1.793001,1892,3507010,14676.92,1465.05,-1840.13
1794,1.794000,1893,3508009,6939.92,925.05,-4201.13
1795,1.795001,1894,3509010,642.92,821.05,-5424.13
1796,1.796001,1895,3510010,-1431.08,707.05,-6753.13
1797,1.797001,1896,3511010,-3496.08,-247.95,-7009.13
1798,1.798001,1897,3512010,-1075.08,-1600.95,-6264.13
1799,1.799001,1898,3513010,7106.92,-441.95,-6957.13
1800,1.800001,1899,3514010,13826.92,955.05,-7093.13
1801,1.801001,1900,3515010,16026.92,-9.950000000000003,-1538.13
1802,1.802001,1901,3516010,12416.92,-1742.95,5105.87
1803,1.803000,1902,3517009,2826.92,-538.95,6454.87
1804,1.804000,1903,3518009,-6758.08,1202.05,4008.87
1805,1.805001,1904,3519010,-8340.08,497.05,1527.87
1806,1.806000,1905,3520009,-3886.08,71.05,1380.87
1807,1.807001,1906,3521010,2113.92,-104.95,1498.87
1808,1.808000,1907,3522009,4295.92,-366.95,1572.87
1809,1.809001,1908,3523010,894.92,-1475.95,2469.87
1810,1.810000,1909,3524009,-5532.08,-3221.95,5731.87
1811,1.811001,1910,3525010,-11879.08,-3386.95,8005.87
1812,1.812001,1911,3526010,-25745.08,-838.95,1628.87
1813,1.813000,1912,3527009,-27390.08,2257.05,-4897.13
1814,1.814001,1913,3528010,-20811.08,2459.05,-3934.13
1815,1.815001,1914,3529010,-5754.08,817.05,3190.87
1816,1.816001,1915,3530010,8936.92,-185.95,7912.87
1817,1.817001,1916,3531010,15248.92,64.05,6320.87
1818,1.818001,1917,3532010,19182.92,1095.05,2162.87
1819,1.819001,1918,3533010,12970.92,1119.05,-2771.13
1820,1.820000,1919,3534009,5410.92,935.05,-4708.13
1821,1.821001,1920,3535010,-370.08,697.05,-5419.13
1822,1.822001,1921,3536010,-1401.08,465.05,-6799.13
1823,1.823001,1922,3537010,-4351.08,-210.95,-7105.13
1824,1.824001,1923,3538010,1574.92,-1780.95,-6112.13
1825,1.825000,1924,3539009,8746.92,-156.95,-7623.13
1826,1.826001,1925,3540010,14515.92,1165.05,-6189.13
1827,1.827000,1926,3541009,16321.92,-708.95,204.8699999999999
1828,1.828001,1927,3542010,10449.92,-1726.95,5702.87
1829,1.829001,1928,3543010,192.92000000000002,94.05,6210.87
1830,1.830000,1929,3544009,-7896.08,1141.05,3133.87
1831,1.831000,1930,3545009,-7576.08,316.05,1689.87
1832,1.832000,1931,3546009,-2530.08,153.05,1314.87
1833,1.833001,1932,3547010,3802.92,-262.95,1284.87
1834,1.834001,1933,3548010,3288.92,-432.95,2102.87
1835,1.835001,1934,3549010,-854.08,-1948.95,3018.87
1836,1.836001,1935,3550010,-6467.08,-3564.95,6467.87
1837,1.837001,1936,3551010,-14333.08,-2936.95,7439.87
1838,1.838001,1937,3552010,-27215.08,-83.95,-378.1300000000001
1839,1.839000,1938,3553009,-27593.08,2648.05,-5712.13
1840,1.840001,1939,3554010,-17484.08,1751.05,-2520.13
1841,1.841001,1940,3555010,-2186.08,692.05,4707.87
1842,1.842001,1941,3556010,10177.92,231.05,8140.87
1843,1.843001,1942,3557010,16402.92,203.05,5672.87
1844,1.844001,1943,3558010,18995.92,1166.05,1062.87
1845,1.845000,1944,3559009,12813.92,890.05,-3399.13
1846,1.846001,1945,3560010,3619.92,1036.05,-4945.13
1847,1.847001,1946,3561010,-1283.08,900.05,-5718.13
1848,1.848001,1947,3562010,-1847.08,149.05,-7212.13
1849,1.849001,1948,3563010,-4188.08,-677.95,-6667.13
1850,1.850001,1949,3564010,2425.92,-1701.95,-6285.13
1851,1.851001,1950,3565010,9588.92,327.05,-8238.130000000001
1852,1.852001,1951,3566010,16107.92,1051.05,-5366.13
1853,1.853001,1952,3567010,16270.92,-1162.95,1961.87
1854,1.854001,1953,3568010,8307.92,-1640.95,6388.87
1855,1.855001,1954,3569010,-1568.08,244.05,5997.87
1856,1.856001,1955,3570010,-9243.08,1534.05,2416.87
1857,1.857001,1956,3571010,-6553.08,230.05,1346.87
1858,1.858001,1957,3572010,-1826.08,-276.95,1663.87
1859,1.859000,1958,3573009,4329.92,-219.95,1707.87
1860,1.860001,1959,3574010,4028.92,-621.95,2082.87
1861,1.861001,1960,3575010,-2677.08,-2073.95,3156.87
1862,1.862001,1961,3576010,-7119.08,-3778.95,7364.87
1863,1.863001,1962,3577010,-19136.08,-2523.95,6292.87
1864,1.864001,1963,3578010,-28053.08,670.05,-1926.13
1865,1.865001,1964,3579010,-24686.08,2535.05,-5664.13
1866,1.866001,1965,3580010,-15458.08,1833.05,-1333.13
1867,1.867001,1966,3581010,1121.92,636.05,5848.87
1868,1.868000,1967,3582009,12763.92,-305.95,8245.869999999999
1869,1.869001,1968,3583010,19006.92,257.05,4831.87
1870,1.870001,1969,3584010,16861.92,1443.05,-593.1300000000001
1871,1.871001,1970,3585010,9721.92,905.05,-3791.13
1872,1.872001,1971,3586010,1698.92,1032.05,-5221.13
1873,1.873001,1972,3587010,-1500.08,860.05,-6030.13
1874,1.874001,1973,3588010,-1423.08,-266.95,-6834.13
1875,1.875000,1974,3589009,-2964.08,-976.95,-6874.13
1876,1.876001,1975,3590010,3991.92,-1111.95,-6414.13
1877,1.877001,1976,3591010,12175.92,267.05,-7738.13
1878,1.878001,1977,3592010,15595.92,899.05,-4107.13
1879,1.879001,1978,3593010,13687.92,-1066.95,3286.87
1880,1.880000,1979,3594009,6230.92,-1449.95,6428.87
1881,1.881001,1980,3595010,-3383.08,670.05,5399.87
1882,1.882001,1981,3596010,-8289.08,1191.05,1969.87
1883,1.883001,1982,3597010,-5576.08,-78.95,1388.87
1884,1.884000,1983,3598009,-255.07999999999998,-11.950000000000003,1679.87
1885,1.885001,1984,3599010,4379.92,-347.95,1614.87
1886,1.886001,1985,3600010,3092.92,-1037.95,2324.87
1887,1.887000,1986,3601009,-4571.08,-2344.95,4213.87
1888,1.888001,1987,3602010,-9235.08,-3880.95,7632.87
1889,1.889001,1988,3603010,-21467.08,-1735.95,4175.87
1890,1.890001,1989,3604010,-27120.08,1197.05,-3203.13
1891,1.891000,1990,3605009,-23588.08,2512.05,-4979.13
1892,1.892000,1991,3606009,-12699.08,1733.05,483.8699999999999
1893,1.893000,1992,3607009,4246.92,202.05,6582.87
1894,1.894001,1993,3608010,13796.92,-66.95,7661.87
1895,1.895001,1994,3609010,20132.92,534.05,3973.87
1896,1.896001,1995,3610010,15555.92,1305.05,-1681.13
1897,1.897000,1996,3611009,8346.92,933.05,-3842.13
1898,1.898001,1997,3612010,543.92,823.05,-5363.13
1899,1.899001,1998,3613010,-1358.08,1014.05,-6579.13
1900,1.900001,1999,3614010,-2577.08,-476.95,-6752.13
1901,1.901001,2000,3615010,-1960.08,-1355.95,-6585.13
1902,1.902001,2001,3616010,6097.92,-700.95,-6657.13
1903,1.903001,2002,3617010,13073.92,613.05,-7477.13
1904,1.904000,2003,3618009,15826.92,493.05,-2566.13
1905,1.905000,2004,3619009,12948.92,-1776.95,4693.87
1906,1.906001,2005,3620010,4271.92,-829.95,6201.87
1907,1.907001,2006,3621010,-6194.08,989.05,4542.87
1908,1.908001,2007,3622010,-8288.08,971.05,1536.87
1909,1.909000,2008,3623009,-4784.08,185.05,1293.87
1910,1.910001,2009,3624010,1435.92,-455.95,1858.87
1911,1.911001,2010,3625010,5381.92,-183.95,1610.87
1912,1.912001,2011,3626010,1023.92,-1167.95,2533.87
1913,1.913001,2012,3627010,-5161.08,-3032.95,5143.87
1914,1.914001,2013,3628010,-10576.08,-3697.95,8150.87
1915,1.915001,2014,3629010,-24015.08,-1273.95,2720.87
1916,1.916000,2015,3630009,-27058.08,2047.05,-4395.13
1917,1.917000,2016,3631009,-22669.08,2642.05,-4770.13
1918,1.918001,2017,3632010,-8814.08,1026.05,1992.87
1919,1.919000,2018,3633009,7888.92,-233.95,7697.87
1920,1.920001,2019,3634010,14609.92,-208.95,7045.87
1921,1.921001,2020,3635010,19590.92,902.05,2735.87
1922,1.922000,2021,3636009,14216.92,1483.05,-2752.13
1923,1.923000,2022,3637009,6011.92,1120.05,-4296.13
1924,1.924001,2023,3638010,248.92000000000002,633.05,-5378.13
1925,1.925001,2024,3639010,-1248.08,706.05,-6784.13
1926,1.926001,2025,3640010,-3793.08,-134.95,-6757.13
1927,1.927001,2026,3641010,284.92,-1800.95,-6331.13
1928,1.928001,2027,3642010,7881.92,-390.95,-6832.13
1929,1.929000,2028,3643009,13626.92,1111.05,-6668.13
1930,1.930001,2029,3644010,15896.92,-298.95,-874.1300000000001
1931,1.931000,2030,3645009,11502.92,-1726.95,5300.87
1932,1.932001,2031,3646010,1980.92,-386.95,6113.87
1933,1.933001,2032,3647010,-6869.08,1031.05,3934.87
1934,1.934000,2033,3648009,-8296.08,517.05,1315.87
1935,1.935001,2034,3649010,-3090.08,46.05,1309.87
1936,1.936001,2035,3650010,2274.92,-218.95,1457.87
1937,1.937000,2036,3651009,3953.92,-394.95,1572.87
1938,1.938001,2037,3652010,774.92,-1662.95,2773.87
1939,1.939001,2038,3653010,-6375.08,-3415.95,6101.87
1940,1.940000,2039,3654009,-12616.08,-3145.95,7594.87
1941,1.941001,2040,3655010,-26013.08,-426.95,896.8699999999999
1942,1.942001,2041,3656010,-27674.08,2401.05,-5160.13
1943,1.943001,2042,3657010,-18852.08,2229.05,-3166.13
1944,1.944001,2043,3658010,-4673.08,776.05,3945.87
1945,1.945000,2044,3659009,9373.92,-134.95,8020.87
1946,1.946001,2045,3660010,16161.92,65.05,6160.87
1947,1.947000,2046,3661009,17873.92,1130.05,1501.87
1948,1.948001,2047,3662010,13220.92,1152.05,-3088.13
1949,1.949001,2048,3663010,4404.92,668.05,-4721.13
1950,1.950001,2049,3664010,-645.08,927.05,-5830.13
1951,1.951001,2050,3665010,-1737.08,639.05,-7058.13
1952,1.952001,2051,3666010,-4157.08,-702.95,-6869.13
1953,1.953001,2052,3667010,2122.92,-1680.95,-5946.13
1954,1.954001,2053,3668010,8830.92,227.05,-7532.13
1955,1.955001,2054,3669010,15150.92,1105.05,-5827.13
1956,1.956001,2055,3670010,16097.92,-943.95,1037.87
1957,1.957001,2056,3671010,9840.92,-1564.95,5880.87
1958,1.958000,2057,3672009,-149.07999999999998,77.05,6155.87
1959,1.959001,2058,3673010,-7774.08,1379.05,2831.87
1960,1.960000,2059,3674009,-8207.08,365.05,1293.87
1961,1.961000,2060,3675009,-2175.08,-134.95,1644.87
1962,1.962001,2061,3676010,4592.92,-466.95,1496.87
1963,1.963000,2062,3677009,3186.92,-478.95,1914.87
1964,1.964001,2063,3678010,-1653.08,-1782.95,2911.87
1965,1.965001,2064,3679010,-6614.08,-3639.95,6520.87
1966,1.966001,2065,3680010,-15768.08,-2662.95,7047.87
1967,1.967001,2066,3681010,-27179.08,-68.95,-470.1300000000001
1968,1.968001,2067,3682010,-26736.08,2468.05,-5677.13
1969,1.969001,2068,3683010,-16605.08,2025.05,-2276.13
1970,1.970001,2069,3684010,-841.08,671.05,4888.87
1971,1.971001,2070,3685010,10248.92,-35.95,8051.87
1972,1.972000,2071,3686009,17521.92,301.05,5660.87
1973,1.973000,2072,3687009,17898.92,1349.05,418.8699999999999
1974,1.974000,2073,3688009,11639.92,861.05,-3256.13
1975,1.975001,2074,3689010,3484.92,1060.05,-4819.13
1976,1.976001,2075,3690010,-2020.08,838.05,-5858.13
1977,1.977001,2076,3691010,-1219.08,91.05,-7061.13
1978,1.978001,2077,3692010,-3816.08,-828.95,-6877.13
1979,1.979000,2078,3693009,2672.92,-1445.95,-6251.13
1980,1.980001,2079,3694010,10457.92,371.05,-8012.13
1981,1.981000,2080,3695009,15712.92,836.05,-4958.13
1982,1.982000,2081,3696009,15518.92,-993.95,2080.87
1983,1.983000,2082,3697009,7544.92,-1558.95,6481.87
1984,1.984001,2083,3698010,-1667.08,349.05,5726.87
1985,1.985001,2084,3699010,-8554.08,1384.05,2353.87
1986,1.986001,2085,3700010,-6944.08,140.05,1437.87
1987,1.987001,2086,3701010,-622.08,-247.95,1823.87
1988,1.988000,2087,3702009,3927.92,-255.95,1670.87
1989,1.989000,2088,3703009,3639.92,-588.95,1773.87
1990,1.990001,2089,3704010,-2894.08,-2157.95,3771.87
1991,1.991001,2090,3705010,-7551.08,-4033.95,7443.87
1992,1.992001,2091,3706010,-19777.08,-2258.95,5644.87
1993,1.993000,2092,3707009,-28358.08,910.05,-2200.13
1994,1.994001,2093,3708010,-23207.08,2482.05,-5470.13
1995,1.995001,2094,3709010,-15700.08,1779.05,-1003.1300000000001
1996,1.996001,2095,3710010,2053.92,338.05,6174.87
1997,1.997001,2096,3711010,13139.92,-152.95,8034.87
1998,1.998001,2097,3712010,18444.92,534.05,4506.87
1999,1.999000,2098,3713009,16816.92,1285.05,-657.1300000000001
2000,2.000000,2099,3714009,9417.92,813.05,-4036.13
2001,2.001001,2100,3715010,2201.92,1133.05,-5047.13
2002,2.002000,2101,3716009,-1693.08,702.05,-5988.13
2003,2.003000,2102,3717009,-1740.08,-88.95,-7051.13
2004,2.004001,2103,3718010,-2802.08,-1062.95,-6523.13
2005,2.005001,2104,3719010,4352.92,-1321.95,-6556.13
2006,2.006000,2105,3720009,12068.92,605.05,-7722.13
2007,2.007000,2106,3721009,15284.92,797.05,-3648.13
2008,2.008001,2107,3722010,14363.92,-1301.95,3489.87
2009,2.009001,2108,3723010,5236.92,-1422.95,6578.87
2010,2.010001,2109,3724010,-3669.08,865.05,4908.87
2011,2.011001,2110,3725010,-8389.08,1063.05,1816.87
2012,2.012001,2111,3726010,-5437.08,70.05,1443.87
2013,2.013001,2112,3727010,216.92000000000002,102.05,1414.87
2014,2.014001,2113,3728010,4171.92,-549.95,1843.87
2015,2.015001,2114,3729010,3518.92,-1121.95,2623.87
2016,2.016001,2115,3730010,-5189.08,-2409.95,4258.87
2017,2.017000,2116,3731009,-9137.08,-3683.95,7538.87
2018,2.018001,2117,3732010,-22003.08,-1636.95,3918.87
2019,2.019001,2118,3733010,-27240.08,1394.05,-3398.13
2020,2.020001,2119,3734010,-22949.08,2404.05,-4712.13
2021,2.021001,2120,3735010,-12451.08,1491.05,865.8699999999999
2022,2.022001,2121,3736010,5069.92,286.05,6658.87
2023,2.023000,2122,3737009,14102.92,-21.950000000000003,7234.87
2024,2.024001,2123,3738010,19988.92,537.05,3758.87
2025,2.025001,2124,3739010,15062.92,1128.05,-1474.13
2026,2.026001,2125,3740010,7720.92,984.05,-4091.13
2027,2.027001,2126,3741010,591.92,865.05,-5454.13
2028,2.028001,2127,3742010,-1420.08,869.05,-6713.13
2029,2.029001,2128,3743010,-3069.08,-408.95,-6779.13
2030,2.030001,2129,3744010,-1130.08,-1400.95,-6488.13
2031,2.031001,2130,3745010,6491.92,-588.95,-6709.13
2032,2.032001,2131,3746010,12811.92,729.05,-7278.13
2033,2.033001,2132,3747010,15824.92,354.05,-2403.13
2034,2.034001,2133,3748010,12518.92,-1635.95,4781.87
2035,2.035001,2134,3749010,4094.92,-872.95,6327.87
2036,2.036001,2135,3750010,-5729.08,1057.05,4362.87
2037,2.037001,2136,3751010,-8625.08,965.05,1577.87
2038,2.038001,2137,3752010,-4147.08,10.049999999999997,1534.87
2039,2.039001,2138,3753010,1031.92,-375.95,1708.87
2040,2.040001,2139,3754010,4877.92,-382.95,1465.87
2041,2.041000,2140,3755009,1544.92,-1067.95,2145.87
2042,2.042001,2141,3756010,-6028.08,-2900.95,5051.87
2043,2.043000,2142,3757009,-10584.08,-3781.95,8042.87
2044,2.044001,2143,3758010,-24055.08,-1258.95,2619.87
2045,2.045001,2144,3759010,-27007.08,2066.05,-4103.13
2046,2.046001,2145,3760010,-21775.08,2664.05,-4695.13
2047,2.047001,2146,3761010,-8569.08,1083.05,2006.87
2048,2.048001,2147,3762010,8285.92,-267.95,7798.87
2049,2.049000,2148,3763009,14882.92,-219.95,6924.87
2050,2.050001,2149,3764010,18886.92,1148.05,2578.87
2051,2.051001,2150,3765010,13936.92,1411.05,-2524.13
2052,2.052001,2151,3766010,5696.92,859.05,-4474.13
2053,2.053000,2152,3767009,391.92,843.05,-5675.13
2054,2.054001,2153,3768010,-1231.08,495.05,-6528.13
2055,2.055001,2154,3769010,-3789.08,-382.95,-6742.13
2056,2.056001,2155,3770010,193.92000000000002,-1637.95,-6196.13
2057,2.057001,2156,3771010,8037.92,-216.95,-7394.13
2058,2.058000,2157,3772009,13910.92,1159.05,-6661.13
2059,2.059000,2158,3773009,15962.92,-346.95,-835.1300000000001
2060,2.060001,2159,3774010,11222.92,-1837.95,5419.87
2061,2.061001,2160,3775010,1345.92,-263.95,6551.87
2062,2.062001,2161,3776010,-6510.08,1231.05,3505.87
2063,2.063001,2162,3777010,-8514.08,383.05,1378.87
2064,2.064001,2163,3778010,-2891.08,148.05,1631.87
2065,2.065000,2164,3779009,2784.92,-265.95,1597.87
2066,2.066001,2165,3780010,3870.92,-434.95,1641.87
2067,2.067001,2166,3781010,196.92000000000002,-1528.95,2765.87
2068,2.068000,2167,3782009,-6459.08,-3444.95,5916.87
2069,2.069000,2168,3783009,-12536.08,-3140.95,7467.87
2070,2.070001,2169,3784010,-26543.08,-486.95,646.8699999999999
2071,2.071000,2170,3785009,-27325.08,2385.05,-5222.13
2072,2.072001,2171,3786010,-19099.08,2265.05,-3264.13
2073,2.073001,2172,3787010,-3610.08,674.05,3869.87
2074,2.074001,2173,3788010,9309.92,-205.95,8099.87
2075,2.075000,2174,3789009,15844.92,207.05,6025.87
2076,2.076000,2175,3790009,18455.92,1256.05,1342.87
2077,2.077001,2176,3791010,12777.92,942.05,-2813.13
2078,2.078001,2177,3792010,4967.92,941.05,-4806.13
2079,2.079001,2178,3793010,-1499.08,869.05,-5678.13
2080,2.080001,2179,3794010,-1385.08,390.05,-6995.13
2081,2.081000,2180,3795009,-4071.08,-535.95,-7054.13
2082,2.082001,2181,3796010,2296.92,-1618.95,-5693.13
2083,2.083000,2182,3797009,8565.92,-60.95,-7674.13
2084,2.084001,2183,3798010,15229.92,1125.05,-5753.13
2085,2.085001,2184,3799010,16438.92,-713.95,1028.87
2086,2.086000,2185,3800009,9241.92,-1809.95,5889.87
2087,2.087001,2186,3801010,-461.08,114.05,5884.87
2088,2.088001,2187,3802010,-8311.08,1091.05,2858.87
2089,2.089000,2188,3803009,-7363.08,395.05,1365.87
2090,2.090001,2189,3804010,-2328.08,182.05,1350.87
2091,2.091000,2190,3805009,4098.92,-488.95,1481.87
2092,2.092001,2191,3806010,3866.92,-601.95,1860.87
2093,2.093001,2192,3807010,-1202.08,-1805.95,3270.87
2094,2.094000,2193,3808009,-6747.08,-3718.95,6688.87
2095,2.095001,2194,3809010,-16158.08,-2690.95,6921.87
2096,2.096001,2195,3810010,-27965.08,392.05,-786.1300000000001
2097,2.097001,2196,3811010,-25729.08,2306.05,-5554.13
2098,2.098001,2197,3812010,-16713.08,1947.05,-2113.13
2099,2.099001,2198,3813010,-1027.08,621.05,5029.87
2100,2.100001,2199,3814010,11076.92,-172.95,8098.87
2101,2.101000,2200,3815009,16960.92,377.05,5341.87
2102,2.102001,2201,3816010,18179.92,1072.05,220.8699999999999
2103,2.103001,2202,3817010,11405.92,1029.05,-3671.13
2104,2.104000,2203,3818009,2970.92,1039.05,-4802.13
2105,2.105000,2204,3819009,-1717.08,908.05,-5807.13
2106,2.106001,2205,3820010,-1621.08,205.05,-6815.13
2107,2.107001,2206,3821010,-3258.08,-978.95,-6678.13
2108,2.108001,2207,3822010,3016.92,-1448.95,-6276.13
2109,2.109000,2208,3823009,10150.92,482.05,-7770.13
2110,2.110001,2209,3824010,16046.92,887.05,-4634.13
2111,2.111001,2210,3825010,15577.92,-1031.95,2297.87
2112,2.112001,2211,3826010,7148.92,-1542.95,6237.87
2113,2.113001,2212,3827010,-2227.08,437.05,5566.87
2114,2.114001,2213,3828010,-8496.08,1370.05,2077.87
2115,2.115001,2214,3829010,-6412.08,-144.95,1465.87
2116,2.116001,2215,3830010,-885.08,-157.95,1752.87
2117,2.117000,2216,3831009,3582.92,-274.95,1671.87
2118,2.118001,2217,3832010,3895.92,-813.95,1932.87
2119,2.119001,2218,3833010,-2014.08,-2185.95,3495.87
2120,2.120001,2219,3834010,-8601.08,-3663.95,7296.87
2121,2.121001,2220,3835010,-19790.08,-2308.95,5699.87
2122,2.122001,2221,3836010,-27672.08,638.05,-2199.13
2123,2.123000,2222,3837009,-23556.08,2671.05,-5454.13
2124,2.124001,2223,3838010,-15064.08,1796.05,-519.1300000000001
2125,2.125001,2224,3839010,1268.92,411.05,6102.87
2126,2.126000,2225,3840009,13292.92,-147.95,7937.87
2127,2.127000,2226,3841009,18901.92,492.05,4452.87
2128,2.128001,2227,3842010,17433.92,1202.05,-586.1300000000001
2129,2.129001,2228,3843010,8601.92,822.05,-3685.13
2130,2.130001,2229,3844010,1299.92,1130.05,-5211.13
2131,2.131001,2230,3845010,-1317.08,795.05,-6413.13
2132,2.132001,2231,3846010,-2155.08,-107.95,-6979.13
2133,2.133001,2232,3847010,-2362.08,-1243.95,-6142.13
2134,2.134001,2233,3848010,4645.92,-1048.95,-6827.13
2135,2.135000,2234,3849009,12456.92,673.05,-7702.13
2136,2.136001,2235,3850010,15613.92,461.05,-3349.13
2137,2.137001,2236,3851010,14038.92,-1309.95,3408.87
2138,2.138001,2237,3852010,5160.92,-1187.95,6301.87
2139,2.139001,2238,3853010,-3885.08,713.05,5058.87
2140,2.140001,2239,3854010,-8811.08,1100.05,1688.87
2141,2.141001,2240,3855010,-5039.08,-39.95,1406.87
2142,2.142001,2241,3856010,736.92,36.05,1559.87
2143,2.143000,2242,3857009,3345.92,-294.95,1642.87
2144,2.144001,2243,3858010,3392.92,-1258.95,2754.87
2145,2.145000,2244,3859009,-4780.08,-2397.95,4290.87
2146,2.146001,2245,3860010,-9247.08,-3747.95,7684.87
2147,2.147001,2246,3861010,-21629.08,-1896.95,3981.87
2148,2.148001,2247,3862010,-27761.08,1667.05,-3602.13
2149,2.149001,2248,3863010,-22576.08,2440.05,-4855.13
2150,2.150001,2249,3864010,-12439.08,1208.05,768.8699999999999
2151,2.151001,2250,3865010,4915.92,497.05,6751.87
2152,2.152000,2251,3866009,14000.92,-82.95,7249.87
2153,2.153001,2252,3867010,19628.92,469.05,3768.87
2154,2.154001,2253,3868010,15395.92,1335.05,-1316.13
2155,2.155001,2254,3869010,7666.92,967.05,-4216.13
2156,2.156000,2255,3870009,909.92,906.05,-5362.13
2157,2.157000,2256,3871009,-1442.08,676.05,-6493.13
2158,2.158001,2257,3872010,-2971.08,-312.95,-6864.13
2159,2.159000,2258,3873009,-1917.08,-1206.95,-6457.13
2160,2.160000,2259,3874009,6566.92,-819.95,-6825.13
2161,2.161001,2260,3875010,13445.92,879.05,-7156.13
2162,2.162001,2261,3876010,15516.92,450.05,-2377.13
2163,2.163000,2262,3877009,13246.92,-1852.95,4844.87
2164,2.164001,2263,3878010,3547.92,-805.95,6407.87
2165,2.165001,2264,3879010,-5563.08,1089.05,4171.87
2166,2.166001,2265,3880010,-8819.08,722.05,1822.87
2167,2.167001,2266,3881010,-4737.08,27.049999999999997,1484.87
2168,2.168001,2267,3882010,1933.92,-258.95,1335.87
2169,2.169001,2268,3883010,4075.92,-300.95,1424.87
2170,2.170000,2269,3884009,2274.92,-1192.95,2155.87
2171,2.171001,2270,3885010,-5920.08,-3055.95,5087.87
2172,2.172001,2271,3886010,-11269.08,-3562.95,8204.869999999999
2173,2.173001,2272,3887010,-24008.08,-1315.95,2885.87
2174,2.174001,2273,3888010,-27053.08,2113.05,-4266.13
2175,2.175001,2274,3889010,-21355.08,2820.05,-4515.13
2176,2.176001,2275,3890010,-8014.08,983.05,2268.87
2177,2.177001,2276,3891010,7875.92,-157.95,7642.87
2178,2.178000,2277,3892009,14659.92,-173.95,6949.87
2179,2.179000,2278,3893009,19132.92,929.05,2654.87
2180,2.180001,2279,3894010,12992.92,1397.05,-2848.13
2181,2.181001,2280,3895010,6088.92,883.05,-4707.13
2182,2.182001,2281,3896010,460.92,698.05,-5419.13
2183,2.183001,2282,3897010,-1209.08,755.05,-6727.13
2184,2.184001,2283,3898010,-3693.08,-293.95,-6760.13
2185,2.185001,2284,3899010,524.92,-1686.95,-6330.13
2186,2.186001,2285,3900010,8046.92,-206.95,-7440.13
2187,2.187001,2286,3901010,13779.92,1038.05,-6245.13
2188,2.188001,2287,3902010,15539.92,-364.95,-425.1300000000001
2189,2.189001,2288,3903010,11660.92,-1793.95,5385.87
2190,2.190001,2289,3904010,1513.92,-230.95,6257.87
2191,2.191001,2290,3905010,-7239.08,1158.05,3399.87
2192,2.192001,2291,3906010,-7817.08,516.05,1482.87
2193,2.193001,2292,3907010,-3909.08,280.05,1209.87
2194,2.194001,2293,3908010,3270.92,-514.95,1559.87
2195,2.195001,2294,3909010,4577.92,-577.95,2153.87
2196,2.196001,2295,3910010,-725.08,-1246.95,2405.87
2197,2.197001,2296,3911010,-6296.08,-3527.95,5796.87
2198,2.198001,2297,3912010,-11603.08,-3345.95,7727.87
2199,2.199001,2298,3913010,-26578.08,-148.95,609.8699999999999
2200,2.200001,2299,3914010,-27435.08,2253.05,-5199.13
2201,2.201001,2300,3915010,-19071.08,2054.05,-2990.13
2202,2.202001,2301,3916010,-4370.08,858.05,3808.87
2203,2.203001,2302,3917010,9528.92,-212.95,7809.87
2204,2.204001,2303,3918010,15418.92,202.05,6224.87
2205,2.205001,2304,3919010,18785.92,1295.05,1316.87
2206,2.206001,2305,3920010,13383.92,868.05,-2973.13
2207,2.207000,2306,3921009,4881.92,994.05,-4501.13
2208,2.208001,2307,3922010,-1626.08,1001.05,-5785.13
2209,2.209001,2308,3923010,-1736.08,348.05,-7192.13
2210,2.210001,2309,3924010,-3997.08,-426.95,-6837.13
2211,2.211001,2310,3925010,1684.92,-1741.95,-5791.13
2212,2.212001,2311,3926010,9276.92,61.05,-7683.13
2213,2.213001,2312,3927010,14824.92,1041.05,-5726.13
2214,2.214000,2313,3928009,16388.92,-874.95,924.8699999999999
2215,2.215001,2314,3929010,9726.92,-1550.95,5801.87
2216,2.216001,2315,3930010,-577.08,55.05,6112.87
2217,2.217001,2316,3931010,-8109.08,1286.05,2965.87
2218,2.218000,2317,3932009,-7567.08,249.05,1308.87
2219,2.219001,2318,3933010,-2244.08,89.05,1368.87
2220,2.220001,2319,3934010,3859.92,-385.95,1491.87
2221,2.221001,2320,3935010,4841.92,-607.95,1848.87
2222,2.222000,2321,3936009,-1648.08,-1758.95,2963.87
2223,2.223001,2322,3937010,-7160.08,-3907.95,6952.87
2224,2.224000,2323,3938009,-16118.08,-2629.95,6914.87
2225,2.225001,2324,3939010,-27726.08,319.05,-927.1300000000001
2226,2.226001,2325,3940010,-25534.08,2371.05,-5685.13
2227,2.227000,2326,3941009,-17490.08,2012.05,-2092.13
2228,2.228001,2327,3942010,-457.08,525.05,5191.87
2229,2.229001,2328,3943010,11401.92,-204.95,8073.87
2230,2.230001,2329,3944010,17150.92,421.05,5303.87
2231,2.231001,2330,3945010,17900.92,1216.05,284.8699999999999
2232,2.232001,2331,3946010,10864.92,995.05,-3428.13
2233,2.233000,2332,3947009,2868.92,1068.05,-4722.13
2234,2.234001,2333,3948010,-1569.08,833.05,-5905.13
2235,2.235001,2334,3949010,-1360.08,244.05,-6876.13
2236,2.236001,2335,3950010,-3693.08,-959.95,-6659.13
2237,2.237001,2336,3951010,3252.92,-1530.95,-6212.13
2238,2.238001,2337,3952010,10404.92,594.05,-7863.13
2239,2.239000,2338,3953009,15706.92,823.05,-4766.13
2240,2.240001,2339,3954010,15238.92,-1079.95,2037.87
2241,2.241001,2340,3955010,7285.92,-1425.95,6225.87
2242,2.242000,2341,3956009,-1572.08,372.05,5746.87
2243,2.243001,2342,3957010,-8267.08,1189.05,2044.87
2244,2.244000,2343,3958009,-6591.08,58.05,1431.87
2245,2.245001,2344,3959010,-949.08,3.049999999999997,1843.87
2246,2.246000,2345,3960009,3274.92,-395.95,1766.87
2247,2.247000,2346,3961009,3873.92,-975.95,1914.87
2248,2.248001,2347,3962010,-2419.08,-1943.95,3438.87
2249,2.249001,2348,3963010,-8113.08,-3644.95,7206.87
2250,2.250001,2349,3964010,-19521.08,-2495.95,5672.87
2251,2.251001,2350,3965010,-27732.08,789.05,-2156.13
2252,2.252000,2351,3966009,-23205.08,2517.05,-5118.13
2253,2.253001,2352,3967010,-15448.08,1715.05,-873.1300000000001
2254,2.254000,2353,3968009,1356.92,574.05,5900.87
2255,2.255001,2354,3969010,12564.92,-28.950000000000003,7931.87
2256,2.256001,2355,3970010,19340.92,177.05,4656.87
2257,2.257000,2356,3971009,16742.92,1370.05,-543.1300000000001
2258,2.258000,2357,3972009,9072.92,992.05,-3710.13
