row,seconds,esp32_index,micros,ax,ay,az
0,0.000000,4111,5725993,13820.8,983.53,-6695.34
1,0.001000,4112,5726993,14326.8,161.53,-2339.34
2,0.001999,4113,5727992,10914.8,-1311.47,3318.66
3,0.002999,4114,5728992,2444.8,-746.47,5195.66
4,0.004000,4115,5729993,-5811.2,744.53,4106.66
5,0.005000,4116,5730993,-8832.2,802.53,1603.6599999999999
6,0.005999,4117,5731992,-4163.2,12.530000000000001,1268.6599999999999
7,0.007000,4118,5732993,1786.8,193.53,894.6599999999999
8,0.008000,4119,5733993,5558.8,-337.47,1707.6599999999999
9,0.009000,4120,5734993,2287.8,-1475.47,2162.66
10,0.010000,4121,5735993,-3816.2,-3309.47,4803.66
11,0.011000,4122,5736993,-9806.2,-4012.47,8819.66
12,0.012000,4123,5737993,-23779.2,-674.47,3117.66
13,0.013000,4124,5738993,-26766.2,2653.53,-4850.34
14,0.014000,4125,5739993,-21747.2,3066.53,-5252.34
15,0.015000,4126,5740993,-8146.2,1196.53,1278.6599999999999
16,0.016000,4127,5741993,7078.8,-619.47,7589.66
17,0.017000,4128,5742993,16605.8,-514.47,7302.66
18,0.018000,4129,5743993,20326.8,436.53,2656.66
19,0.019000,4130,5744993,12585.8,1086.53,-2917.34
20,0.020000,4131,5745993,4555.8,1408.53,-5891.34
21,0.021000,4132,5746993,-718.2,1068.53,-5655.34
22,0.021999,4133,5747992,-1339.2,847.53,-6615.34
23,0.023000,4134,5748993,-1779.2,-287.47,-6513.34
24,0.024000,4135,5749993,4061.8,-1732.47,-4114.34
25,0.025000,4136,5750993,11651.8,99.53,-6037.34
26,0.026000,4137,5751993,14123.8,974.53,-5902.34
27,0.026999,4138,5752992,13963.8,-626.47,-339.34000000000015
28,0.028000,4139,5753993,8870.8,-1404.47,4134.66
29,0.029000,4140,5754993,-900.2,-44.47,5065.66
30,0.030000,4141,5755993,-7910.2,985.53,3327.66
31,0.031000,4142,5756993,-7910.2,311.53,1525.6599999999999
32,0.032000,4143,5757993,-1941.2,459.53,726.6599999999999
33,0.033000,4144,5758993,3797.8,23.53,1401.6599999999999
34,0.034000,4145,5759993,5038.8,-915.47,2355.66
35,0.035000,4146,5760993,299.8,-1812.47,2604.66
36,0.036000,4147,5761993,-4790.2,-3989.47,6680.66
37,0.037000,4148,5762993,-14159.2,-3183.47,8031.66
38,0.038000,4149,5763993,-26192.2,738.53,-132.34000000000015
39,0.039000,4150,5764993,-26018.2,2993.53,-6088.34
40,0.040000,4151,5765993,-18698.2,2501.53,-3808.34
41,0.041000,4152,5766993,-2622.2,439.53,3677.66
42,0.042000,4153,5767993,11139.8,-917.47,8439.66
43,0.042999,4154,5768992,17836.8,121.53,5972.66
44,0.043999,4155,5769992,18505.8,897.53,823.6599999999999
45,0.045000,4156,5770993,11012.8,910.53,-4322.34
46,0.046000,4157,5771993,2227.8,1557.53,-6197.34
47,0.047000,4158,5772993,-1883.2,1025.53,-5422.34
48,0.048000,4159,5773993,-1309.2,582.53,-6649.34
49,0.048999,4160,5774992,-738.2,-852.47,-5722.34
50,0.050000,4161,5775993,6343.8,-1564.47,-4012.34
51,0.050999,4162,5776992,12144.8,900.53,-6970.34
52,0.052000,4163,5777993,15367.8,462.53,-4528.34
53,0.053000,4164,5778993,13455.8,-1125.47,1329.6599999999999
54,0.054000,4165,5779993,4943.8,-987.47,4823.66
55,0.054999,4166,5780992,-3124.2,246.53,4833.66
56,0.056000,4167,5781993,-8814.2,863.53,2283.66
57,0.057000,4168,5782993,-6461.2,144.53,1438.6599999999999
58,0.057999,4169,5783992,-52.19999999999999,478.53,607.6599999999999
59,0.059000,4170,5784993,4253.8,32.53,1571.6599999999999
60,0.059999,4171,5785992,5824.8,-1336.47,2191.66
61,0.061000,4172,5786993,-957.2,-2642.47,3692.66
62,0.062000,4173,5787993,-7660.2,-3779.47,8312.66
63,0.063000,4174,5788993,-19496.2,-2316.47,6077.66
64,0.064000,4175,5789993,-27272.2,1681.53,-2830.34
65,0.065000,4176,5790993,-23646.2,3264.53,-6057.34
66,0.066000,4177,5791993,-15065.2,1666.53,-1859.3400000000001
67,0.067000,4178,5792993,2714.8,18.53,5629.66
68,0.068000,4179,5793993,13170.8,-770.47,8338.66
69,0.069000,4180,5794993,20077.8,178.53,4508.66
70,0.070000,4181,5795993,16779.8,998.53,-876.3400000000001
71,0.071000,4182,5796993,7384.8,1005.53,-5225.34
72,0.072000,4183,5797993,165.8,1744.53,-6098.34
73,0.073000,4184,5798993,-1762.2,948.53,-5529.34
74,0.073999,4185,5799992,-631.2,-55.47,-6744.34
75,0.075000,4186,5800993,676.8,-1192.47,-5190.34
76,0.076000,4187,5801993,8933.8,-795.47,-4540.34
77,0.077000,4188,5802993,13619.8,1005.53,-6786.34
78,0.078000,4189,5803993,14606.8,37.53,-2662.34
79,0.079000,4190,5804993,11167.8,-1310.47,2752.66
80,0.080000,4191,5805993,2599.8,-745.47,5094.66
81,0.080999,4192,5806992,-5276.2,675.53,4133.66
82,0.082000,4193,5807993,-8875.2,845.53,1506.6599999999999
83,0.083000,4194,5808993,-4684.2,56.53,1240.6599999999999
84,0.084000,4195,5809993,1753.8,52.53,856.6599999999999
85,0.085000,4196,5810993,5426.8,-266.47,1938.6599999999999
86,0.086000,4197,5811993,2879.8,-1355.47,2256.66
87,0.087000,4198,5812993,-3388.2,-3173.47,4714.66
88,0.088000,4199,5813993,-9191.2,-3961.47,8764.66
89,0.089000,4200,5814993,-22918.2,-895.47,3378.66
90,0.090000,4201,5815993,-27338.2,2628.53,-4686.34
91,0.091000,4202,5816993,-21703.2,2989.53,-5202.34
92,0.092000,4203,5817993,-9713.2,1263.53,979.6599999999999
93,0.093000,4204,5818993,6541.8,-464.47,7270.66
94,0.094000,4205,5819993,16378.8,-609.47,7419.66
95,0.095000,4206,5820993,20181.8,325.53,2830.66
96,0.095999,4207,5821992,13539.8,1079.53,-2715.34
97,0.096999,4208,5822992,4173.8,1306.53,-5778.34
98,0.098000,4209,5823993,-535.2,1190.53,-5859.34
99,0.099000,4210,5824993,-925.2,888.53,-6429.34
100,0.100000,4211,5825993,-1749.2,-328.47,-6547.34
101,0.101000,4212,5826993,3587.8,-1540.47,-4282.34
102,0.102000,4213,5827993,10768.8,-74.47,-5425.34
103,0.102999,4214,5828992,14059.8,1120.53,-6276.34
104,0.104000,4215,5829993,14023.8,-449.47,-738.3400000000001
105,0.105000,4216,5830993,9029.8,-1414.47,4225.66
106,0.105999,4217,5831992,577.8,-20.47,5105.66
107,0.107000,4218,5832993,-7251.2,856.53,3333.66
108,0.108000,4219,5833993,-8536.2,462.53,1495.6599999999999
109,0.109000,4220,5834993,-2278.2,212.53,1130.6599999999999
110,0.109999,4221,5835992,3300.8,-27.47,847.6599999999999
111,0.111000,4222,5836993,4891.8,-575.47,1848.6599999999999
112,0.112000,4223,5837993,836.8,-1801.47,2585.66
113,0.112999,4224,5838992,-4745.2,-3843.47,5980.66
114,0.114000,4225,5839993,-12450.2,-3450.47,8404.66
115,0.115000,4226,5840993,-25832.2,272.53,844.6599999999999
116,0.116000,4227,5841993,-26509.2,3057.53,-5910.34
117,0.117000,4228,5842993,-19194.2,2668.53,-4214.34
118,0.118000,4229,5843993,-4077.2,553.53,3187.66
119,0.119000,4230,5844993,10040.8,-698.47,8270.66
120,0.120000,4231,5845993,17575.8,-22.47,6455.66
121,0.121000,4232,5846993,18606.8,727.53,1287.6599999999999
122,0.122000,4233,5847993,11783.8,1034.53,-4079.34
123,0.123000,4234,5848993,2850.8,1465.53,-5960.34
124,0.124000,4235,5849993,-1502.2,965.53,-5391.34
125,0.125000,4236,5850993,-1323.2,663.53,-6808.34
126,0.126000,4237,5851993,-1387.2,-687.47,-6167.34
127,0.127000,4238,5852993,5992.8,-1669.47,-3909.34
128,0.128000,4239,5853993,10974.8,615.53,-6819.34
129,0.129000,4240,5854993,14842.8,824.53,-5263.34
130,0.130000,4241,5855993,14293.8,-1077.47,1214.6599999999999
131,0.131000,4242,5856993,6744.8,-1249.47,4719.66
132,0.132000,4243,5857993,-2528.2,306.53,4939.66
133,0.133000,4244,5858993,-8384.2,947.53,2475.66
134,0.134000,4245,5859993,-6861.2,279.53,1481.6599999999999
135,0.135000,4246,5860993,-1439.2,468.53,951.6599999999999
136,0.136000,4247,5861993,4806.8,-325.47,1379.6599999999999
137,0.137000,4248,5862993,5214.8,-1136.47,2324.66
138,0.138000,4249,5863993,-355.2,-2275.47,3188.66
139,0.139000,4250,5864993,-6429.2,-4017.47,7442.66
140,0.139999,4251,5865992,-18478.2,-2353.47,6673.66
141,0.141000,4252,5866993,-26348.2,1216.53,-1825.3400000000001
142,0.142000,4253,5867993,-25484.2,3262.53,-6178.34
143,0.143000,4254,5868993,-16175.2,2134.53,-2396.34
144,0.144000,4255,5869993,1600.8,-150.47,5306.66
145,0.144999,4256,5870992,12756.8,-621.47,8497.66
146,0.146000,4257,5871993,19865.8,189.53,4906.66
147,0.147000,4258,5872993,17144.8,830.53,-537.3400000000001
148,0.148000,4259,5873993,8841.8,1154.53,-4904.34
149,0.149000,4260,5874993,142.8,1553.53,-5982.34
150,0.150000,4261,5875993,-2056.2,1052.53,-5641.34
151,0.150999,4262,5876992,-841.2,82.53,-6648.34
152,0.152000,4263,5877993,-221.2,-1209.47,-5335.34
153,0.153000,4264,5878993,8599.8,-960.47,-4414.34
154,0.154000,4265,5879993,13376.8,802.53,-6999.34
155,0.155000,4266,5880993,15043.8,357.53,-3504.34
156,0.156000,4267,5881993,11743.8,-1210.47,2687.66
157,0.157000,4268,5882993,2836.8,-979.47,4779.66
158,0.158000,4269,5883993,-4304.2,555.53,4379.66
159,0.158999,4270,5884992,-9173.2,1035.53,2043.6599999999999
160,0.160000,4271,5885993,-4893.2,161.53,1142.6599999999999
161,0.161000,4272,5886993,1388.8,144.53,928.6599999999999
162,0.162000,4273,5887993,5147.8,-187.47,1879.6599999999999
163,0.162999,4274,5888992,4196.8,-1405.47,2377.66
164,0.164000,4275,5889993,-3036.2,-3067.47,4307.66
165,0.165000,4276,5890993,-9027.2,-3842.47,8573.66
166,0.166000,4277,5891993,-22443.2,-1350.47,4232.66
167,0.167000,4278,5892993,-26702.2,2163.53,-4214.34
168,0.167999,4279,5893992,-22494.2,3185.53,-5718.34
169,0.168999,4280,5894992,-11883.2,1420.53,-87.34000000000015
170,0.170000,4281,5895993,5225.8,-272.47,6923.66
171,0.170999,4282,5896992,15089.8,-755.47,7876.66
172,0.171999,4283,5897992,21636.8,70.53,3733.66
173,0.173000,4284,5898993,14484.8,1203.53,-2169.34
174,0.174000,4285,5899993,4786.8,1467.53,-5756.34
175,0.174999,4286,5900992,-277.2,1339.53,-6012.34
176,0.176000,4287,5901993,-1003.2,777.53,-5762.34
177,0.177000,4288,5902993,-1361.2,-153.47,-6485.34
178,0.178000,4289,5903993,2125.8,-1462.47,-5163.34
179,0.179000,4290,5904993,10445.8,-491.47,-4961.34
180,0.180000,4291,5905993,13847.8,967.53,-6335.34
181,0.180999,4292,5906992,14097.8,-21.47,-1777.3400000000001
182,0.182000,4293,5907993,10185.8,-1463.47,3813.66
183,0.183000,4294,5908993,1147.8,-475.47,5134.66
184,0.184000,4295,5909993,-7213.2,1006.53,3553.66
185,0.185000,4296,5910993,-8190.2,605.53,1432.6599999999999
186,0.186000,4297,5911993,-3121.2,183.53,1133.6599999999999
187,0.186999,4298,5912992,2663.8,52.53,1247.6599999999999
188,0.187999,4299,5913992,5325.8,-375.47,1840.6599999999999
189,0.189000,4300,5914993,1880.8,-1733.47,2493.66
190,0.190000,4301,5915993,-4400.2,-3673.47,5785.66
191,0.191000,4302,5916993,-11334.2,-3494.47,8462.66
192,0.192000,4303,5917993,-24965.2,-139.47,1552.6599999999999
193,0.193000,4304,5918993,-26851.2,2827.53,-5417.34
194,0.194000,4305,5919993,-20070.2,2766.53,-4476.34
195,0.195000,4306,5920993,-6216.2,788.53,2330.66
196,0.196000,4307,5921993,9141.8,-777.47,7932.66
197,0.196999,4308,5922992,17039.8,-181.47,6446.66
198,0.198000,4309,5923993,19060.8,777.53,1796.6599999999999
199,0.198999,4310,5924992,11765.8,934.53,-3382.34
200,0.200000,4311,5925993,3582.8,1520.53,-5957.34
201,0.201000,4312,5926993,-1075.2,1200.53,-5592.34
202,0.202000,4313,5927993,-777.2,495.53,-6336.34
203,0.202999,4314,5928992,-1758.2,-427.47,-6000.34
204,0.204000,4315,5929993,5262.8,-1464.47,-4416.34
205,0.205000,4316,5930993,11137.8,297.53,-5995.34
206,0.206000,4317,5931993,14513.8,889.53,-5394.34
207,0.206999,4318,5932992,14767.8,-996.47,249.65999999999985
208,0.208000,4319,5933993,7002.8,-1240.47,4549.66
209,0.209000,4320,5934993,-1745.2,216.53,4707.66
210,0.209999,4321,5935992,-8545.2,975.53,2672.66
211,0.211000,4322,5936993,-6896.2,333.53,1309.6599999999999
212,0.212000,4323,5937993,-1200.2,162.53,974.6599999999999
213,0.213000,4324,5938993,3674.8,-26.47,1439.6599999999999
214,0.214000,4325,5939993,5337.8,-881.47,2208.66
215,0.215000,4326,5940993,206.8,-2155.47,3010.66
216,0.216000,4327,5941993,-5796.2,-3829.47,7146.66
217,0.217000,4328,5942993,-16518.2,-2773.47,7238.66
218,0.218000,4329,5943993,-26475.2,1025.53,-1176.3400000000001
219,0.219000,4330,5944993,-25341.2,3200.53,-6016.34
220,0.220000,4331,5945993,-17300.2,2245.53,-2901.34
221,0.220999,4332,5946992,-334.2,88.53,4773.66
222,0.222000,4333,5947993,12154.8,-824.47,8459.66
223,0.223000,4334,5948993,18687.8,218.53,5237.66
224,0.224000,4335,5949993,17399.8,964.53,-117.34000000000015
225,0.225000,4336,5950993,9921.8,860.53,-4380.34
226,0.226000,4337,5951993,780.8,1607.53,-6184.34
227,0.227000,4338,5952993,-1811.2,1134.53,-5592.34
228,0.228000,4339,5953993,-814.2,120.53,-6535.34
229,0.229000,4340,5954993,-312.2,-944.47,-5836.34
230,0.230000,4341,5955993,6928.8,-1150.47,-3973.34
231,0.231000,4342,5956993,12360.8,672.53,-6694.34
232,0.232000,4343,5957993,14900.8,701.53,-4267.34
233,0.233000,4344,5958993,13261.8,-1219.47,2270.66
234,0.234000,4345,5959993,4781.8,-1207.47,4972.66
235,0.235000,4346,5960993,-4132.2,656.53,4498.66
236,0.236000,4347,5961993,-8725.2,1044.53,1995.6599999999999
237,0.237000,4348,5962993,-5997.2,-46.47,1279.6599999999999
238,0.238000,4349,5963993,341.8,218.53,1108.6599999999999
239,0.239000,4350,5964993,5092.8,-15.469999999999999,1395.6599999999999
240,0.239999,4351,5965992,5093.8,-1313.47,2093.66
241,0.240999,4352,5966992,-1841.2,-2873.47,4120.66
242,0.242000,4353,5967993,-8476.2,-3945.47,8316.66
243,0.242999,4354,5968992,-21036.2,-1707.47,5148.66
244,0.243999,4355,5969992,-26781.2,1794.53,-3302.34
245,0.245000,4356,5970993,-23525.2,3278.53,-5989.34
246,0.246000,4357,5971993,-13169.2,1667.53,-878.3400000000001
247,0.247000,4358,5972993,3914.8,-273.47,6372.66
248,0.248000,4359,5973993,13999.8,-539.47,8126.66
249,0.249000,4360,5974993,20632.8,213.53,4148.66
250,0.250000,4361,5975993,15837.8,991.53,-1465.3400000000001
251,0.251000,4362,5976993,6093.8,1293.53,-5306.34
252,0.251999,4363,5977992,-159.2,1458.53,-6009.34
253,0.252999,4364,5978992,-982.2,873.53,-5715.34
254,0.254000,4365,5979993,-1039.2,-70.47,-6610.34
255,0.255000,4366,5980993,907.8,-1354.47,-5374.34
256,0.256000,4367,5981993,9406.8,-612.47,-4863.34
257,0.256999,4368,5982992,13398.8,988.53,-6585.34
258,0.258000,4369,5983993,14339.8,16.53,-2483.34
259,0.258999,4370,5984992,10796.8,-1287.47,3326.66
260,0.260000,4371,5985993,2261.8,-713.47,5180.66
261,0.261000,4372,5986993,-5353.2,835.53,3955.66
262,0.262000,4373,5987993,-8830.2,817.53,1569.6599999999999
263,0.263000,4374,5988993,-4041.2,60.53,1231.6599999999999
264,0.264000,4375,5989993,2043.8,153.53,1113.6599999999999
265,0.265000,4376,5990993,5585.8,-467.47,1831.6599999999999
266,0.266000,4377,5991993,2332.8,-1573.47,2334.66
267,0.267000,4378,5992993,-3903.2,-3341.47,5005.66
268,0.268000,4379,5993993,-9803.2,-3763.47,8356.66
269,0.269000,4380,5994993,-24102.2,-607.47,2621.66
270,0.270000,4381,5995993,-26736.2,2577.53,-4864.34
271,0.271000,4382,5996993,-21439.2,2989.53,-5038.34
272,0.272000,4383,5997993,-8837.2,1070.53,1457.6599999999999
273,0.273000,4384,5998993,8089.8,-547.47,7563.66
274,0.274000,4385,5999993,16611.8,-445.47,7218.66
275,0.275000,4386,6000993,20155.8,424.53,2541.66
276,0.276000,4387,6001993,12530.8,1133.53,-3060.34
277,0.277000,4388,6002993,3843.8,1418.53,-5773.34
278,0.278000,4389,6003993,-350.2,1086.53,-5648.34
279,0.279000,4390,6004993,-1432.2,825.53,-6377.34
280,0.279999,4391,6005992,-1727.2,-305.47,-6282.34
281,0.281000,4392,6006993,4068.8,-1634.47,-4385.34
282,0.282000,4393,6007993,10987.8,32.53,-5844.34
283,0.283000,4394,6008993,14291.8,904.53,-5884.34
284,0.284000,4395,6009993,14328.8,-553.47,-455.34000000000015
285,0.285000,4396,6010993,8214.8,-1426.47,4355.66
286,0.286000,4397,6011993,-457.2,-155.47,4979.66
287,0.287000,4398,6012993,-7688.2,1078.53,3066.66
288,0.288000,4399,6013993,-7977.2,540.53,1397.6599999999999
289,0.289000,4400,6014993,-1604.2,186.53,853.6599999999999
290,0.290000,4401,6015993,3517.8,-41.47,1298.6599999999999
291,0.291000,4402,6016993,5240.8,-614.47,2154.66
292,0.292000,4403,6017993,694.8,-2009.47,2813.66
293,0.293000,4404,6018993,-4880.2,-4006.47,6613.66
294,0.294000,4405,6019993,-13917.2,-3043.47,7969.66
295,0.295000,4406,6020993,-26487.2,597.53,-121.34000000000015
296,0.296000,4407,6021993,-25878.2,2985.53,-6123.34
297,0.297000,4408,6022993,-18630.2,2536.53,-3740.34
298,0.298000,4409,6023993,-3212.2,305.53,3742.66
299,0.299000,4410,6024993,10923.8,-761.47,8319.66
300,0.299999,4411,6025992,17739.8,76.53,5987.66
301,0.300999,4412,6026992,18465.8,850.53,766.6599999999999
302,0.302000,4413,6027993,11205.8,1043.53,-4021.34
303,0.303000,4414,6028993,2073.8,1486.53,-5847.34
304,0.303999,4415,6029992,-1494.2,1089.53,-5539.34
305,0.305000,4416,6030993,-1258.2,441.53,-6476.34
306,0.306000,4417,6031993,-1108.2,-786.47,-5833.34
307,0.306999,4418,6032992,6330.8,-1465.47,-4234.34
308,0.307999,4419,6033992,11687.8,665.53,-6711.34
309,0.309000,4420,6034993,15115.8,753.53,-4855.34
310,0.310000,4421,6035993,13492.8,-1113.47,1168.6599999999999
311,0.311000,4422,6036993,5681.8,-1154.47,4767.66
312,0.312000,4423,6037993,-2497.2,277.53,5013.66
313,0.313000,4424,6038993,-8957.2,1021.53,2162.66
314,0.314000,4425,6039993,-6452.2,158.53,1201.6599999999999
315,0.315000,4426,6040993,-405.2,301.53,1142.6599999999999
316,0.315999,4427,6041992,4857.8,-107.47,1494.6599999999999
317,0.316999,4428,6042992,5113.8,-1118.47,2130.66
318,0.318000,4429,6043993,-833.2,-2456.47,3432.66
319,0.319000,4430,6044993,-7217.2,-3917.47,7773.66
320,0.320000,4431,6045993,-19105.2,-2158.47,6231.66
321,0.321000,4432,6046993,-26844.2,1320.53,-2279.34
322,0.322000,4433,6047993,-24452.2,3280.53,-6091.34
323,0.323000,4434,6048993,-15037.2,2004.53,-1772.3400000000001
324,0.324000,4435,6049993,2088.8,-321.47,5757.66
325,0.325000,4436,6050993,13360.8,-634.47,8292.66
326,0.326000,4437,6051993,19547.8,404.53,4563.66
327,0.327000,4438,6052993,16773.8,815.53,-822.3400000000001
328,0.328000,4439,6053993,7743.8,1066.53,-5026.34
329,0.329000,4440,6054993,170.8,1646.53,-6102.34
330,0.330000,4441,6055993,-1408.2,851.53,-5522.34
331,0.331000,4442,6056993,-950.2,-25.47,-6541.34
332,0.332000,4443,6057993,156.8,-1101.47,-5548.34
333,0.333000,4444,6058993,8313.8,-849.47,-4541.34
334,0.334000,4445,6059993,13598.8,903.53,-6668.34
335,0.335000,4446,6060993,14779.8,120.53,-3065.34
336,0.336000,4447,6061993,11726.8,-1243.47,2798.66
337,0.337000,4448,6062993,3293.8,-838.47,4992.66
338,0.337999,4449,6063992,-5511.2,719.53,4130.66
339,0.339000,4450,6064993,-8623.2,987.53,1618.6599999999999
340,0.340000,4451,6065993,-4881.2,34.53,1309.6599999999999
341,0.341000,4452,6066993,1531.8,186.53,849.6599999999999
342,0.342000,4453,6067993,5734.8,-323.47,1857.6599999999999
343,0.342999,4454,6068992,3355.8,-1459.47,2534.66
344,0.344000,4455,6069993,-3443.2,-3046.47,4465.66
345,0.345000,4456,6070993,-8858.2,-3938.47,8648.66
346,0.346000,4457,6071993,-22964.2,-1117.47,3697.66
347,0.347000,4458,6072993,-26851.2,2443.53,-4592.34
348,0.348000,4459,6073993,-22352.2,3109.53,-5381.34
349,0.349000,4460,6074993,-11197.2,1319.53,566.6599999999999
350,0.349999,4461,6075992,6611.8,-383.47,7187.66
351,0.351000,4462,6076993,15233.8,-682.47,7717.66
352,0.352000,4463,6077993,21012.8,334.53,3253.66
353,0.353000,4464,6078993,13990.8,1254.53,-2258.34
354,0.354000,4465,6079993,4404.8,1325.53,-5640.34
355,0.355000,4466,6080993,159.8,1215.53,-5822.34
356,0.356000,4467,6081993,-1091.2,708.53,-5921.34
357,0.357000,4468,6082993,-1696.2,-162.47,-6702.34
358,0.358000,4469,6083993,2321.8,-1396.47,-4993.34
359,0.359000,4470,6084993,10479.8,-450.47,-5334.34
360,0.360000,4471,6085993,13990.8,1021.53,-6238.34
361,0.361000,4472,6086993,14179.8,-186.47,-1237.3400000000001
362,0.362000,4473,6087993,9664.8,-1624.47,3846.66
363,0.363000,4474,6088993,1248.8,-365.47,5145.66
364,0.364000,4475,6089993,-6986.2,1034.53,3477.66
365,0.364999,4476,6090992,-8962.2,619.53,1444.6599999999999
366,0.366000,4477,6091993,-2492.2,219.53,1148.6599999999999
367,0.367000,4478,6092993,2874.8,-33.47,1139.6599999999999
368,0.368000,4479,6093993,5468.8,-463.47,2004.6599999999999
369,0.369000,4480,6094993,1214.8,-1774.47,2542.66
370,0.370000,4481,6095993,-4239.2,-3743.47,5825.66
371,0.371000,4482,6096993,-11763.2,-3318.47,8153.66
372,0.372000,4483,6097993,-25829.2,12.530000000000001,1128.6599999999999
373,0.373000,4484,6098993,-26479.2,2762.53,-5336.34
374,0.374000,4485,6099993,-19669.2,2639.53,-4244.34
375,0.375000,4486,6100993,-5194.2,799.53,2435.66
376,0.375999,4487,6101992,9339.8,-702.47,7991.66
377,0.377000,4488,6102993,17216.8,-262.47,6436.66
378,0.378000,4489,6103993,19075.8,833.53,1718.6599999999999
379,0.379000,4490,6104993,11376.8,1006.53,-3537.34
380,0.380000,4491,6105993,3482.8,1506.53,-6261.34
381,0.381000,4492,6106993,-1310.2,1169.53,-5452.34
382,0.382000,4493,6107993,-1165.2,435.53,-6181.34
383,0.383000,4494,6108993,-1279.2,-495.47,-6044.34
384,0.384000,4495,6109993,5337.8,-1488.47,-4336.34
385,0.385000,4496,6110993,11380.8,325.53,-6371.34
386,0.385999,4497,6111992,14599.8,934.53,-5246.34
387,0.387000,4498,6112993,14146.8,-1126.47,540.6599999999999
388,0.387999,4499,6113992,7245.8,-1294.47,4663.66
389,0.389000,4500,6114993,-2281.2,400.53,4873.66
390,0.390000,4501,6115993,-8255.2,749.53,2406.66
391,0.391000,4502,6116993,-6897.2,402.53,1458.6599999999999
392,0.391999,4503,6117992,-1199.2,279.53,983.6599999999999
393,0.393000,4504,6118993,4568.8,-283.47,1214.6599999999999
394,0.394000,4505,6119993,4518.8,-645.47,2290.66
395,0.395000,4506,6120993,353.8,-2339.47,3123.66
396,0.396000,4507,6121993,-5911.2,-3955.47,7360.66
397,0.397000,4508,6122993,-17344.2,-2488.47,7170.66
398,0.398000,4509,6123993,-26217.2,928.53,-1556.3400000000001
399,0.399000,4510,6124993,-25213.2,3341.53,-6171.34
400,0.400000,4511,6125993,-16941.2,2071.53,-2606.34
401,0.401000,4512,6126993,709.8,-15.469999999999999,4795.66
402,0.402000,4513,6127993,11661.8,-653.47,8491.66
403,0.403000,4514,6128993,18768.8,143.53,5035.66
404,0.403999,4515,6129992,17549.8,1040.53,-166.34000000000015
405,0.404999,4516,6130992,9098.8,904.53,-4358.34
406,0.405999,4517,6131992,1285.8,1540.53,-6157.34
407,0.407000,4518,6132993,-2049.2,1162.53,-5589.34
408,0.408000,4519,6133993,-235.2,104.53,-6772.34
409,0.409000,4520,6134993,-694.2,-1017.47,-5585.34
410,0.410000,4521,6135993,7431.8,-1070.47,-4114.34
411,0.411000,4522,6136993,12565.8,705.53,-6454.34
412,0.412000,4523,6137993,14816.8,531.53,-4033.34
413,0.412999,4524,6138992,12611.8,-1202.47,2180.66
414,0.414000,4525,6139993,4342.8,-1066.47,5141.66
415,0.415000,4526,6140993,-3088.2,584.53,4295.66
416,0.415999,4527,6141992,-9472.2,1019.53,1913.6599999999999
417,0.417000,4528,6142993,-5729.2,171.53,1271.6599999999999
418,0.418000,4529,6143993,551.8,23.53,1151.6599999999999
419,0.419000,4530,6144993,5096.8,-178.47,1474.6599999999999
420,0.419999,4531,6145992,4495.8,-1059.47,1981.6599999999999
421,0.420999,4532,6146992,-2233.2,-2927.47,4003.66
422,0.422000,4533,6147993,-8085.2,-3996.47,8231.66
423,0.423000,4534,6148993,-20926.2,-1678.47,5165.66
424,0.424000,4535,6149993,-27257.2,1871.53,-3451.34
425,0.424999,4536,6150992,-23354.2,3314.53,-5944.34
426,0.426000,4537,6151993,-12600.2,1541.53,-614.3400000000001
427,0.426999,4538,6152992,3878.8,-347.47,6318.66
428,0.428000,4539,6153993,14811.8,-435.47,8103.66
429,0.429000,4540,6154993,20129.8,247.53,4052.66
430,0.429999,4541,6155992,15743.8,958.53,-1674.3400000000001
431,0.430999,4542,6156992,6203.8,1325.53,-5081.34
432,0.432000,4543,6157993,-583.2,1381.53,-6079.34
433,0.433000,4544,6158993,-567.2,861.53,-5891.34
434,0.434000,4545,6159993,-1476.2,-129.47,-6532.34
435,0.435000,4546,6160993,1315.8,-1304.47,-5377.34
436,0.435999,4547,6161992,9333.8,-589.47,-4739.34
437,0.437000,4548,6162993,13550.8,886.53,-6567.34
438,0.438000,4549,6163993,14371.8,94.53,-2375.34
439,0.439000,4550,6164993,10773.8,-1366.47,3549.66
440,0.440000,4551,6165993,2057.8,-725.47,5114.66
441,0.441000,4552,6166993,-5794.2,887.53,3953.66
442,0.442000,4553,6167993,-8996.2,854.53,1565.6599999999999
443,0.443000,4554,6168993,-3931.2,43.53,1267.6599999999999
444,0.444000,4555,6169993,2754.8,146.53,1196.6599999999999
445,0.445000,4556,6170993,5138.8,-363.47,1828.6599999999999
446,0.446000,4557,6171993,2502.8,-1677.47,2472.66
447,0.447000,4558,6172993,-3837.2,-3432.47,5081.66
448,0.448000,4559,6173993,-10360.2,-3625.47,8383.66
449,0.449000,4560,6174993,-24481.2,-520.47,2329.66
450,0.450000,4561,6175993,-26886.2,2582.53,-5076.34
451,0.451000,4562,6176993,-21076.2,2986.53,-4920.34
452,0.452000,4563,6177993,-7733.2,985.53,1784.6599999999999
453,0.453000,4564,6178993,8148.8,-687.47,7751.66
454,0.454000,4565,6179993,16448.8,-359.47,6833.66
455,0.455000,4566,6180993,20059.8,596.53,2449.66
456,0.455999,4567,6181992,12162.8,1000.53,-3171.34
457,0.457000,4568,6182993,4083.8,1456.53,-5811.34
458,0.458000,4569,6183993,-921.2,1176.53,-5588.34
459,0.459000,4570,6184993,-724.2,581.53,-6011.34
460,0.459999,4571,6185992,-1808.2,-292.47,-6258.34
461,0.461000,4572,6186993,4232.8,-1417.47,-4931.34
462,0.462000,4573,6187993,11406.8,30.53,-5648.34
463,0.463000,4574,6188993,14045.8,824.53,-5575.34
464,0.464000,4575,6189993,14459.8,-711.47,-325.34000000000015
465,0.465000,4576,6190993,7812.8,-1498.47,4442.66
466,0.466000,4577,6191993,-710.2,166.53,4775.66
467,0.467000,4578,6192993,-8243.2,1056.53,2727.66
468,0.467999,4579,6193992,-7666.2,355.53,1360.6599999999999
469,0.469000,4580,6194993,-1270.2,307.53,1045.6599999999999
470,0.470000,4581,6195993,3540.8,-241.47,1500.6599999999999
471,0.471000,4582,6196993,5546.8,-655.47,2168.66
472,0.472000,4583,6197993,128.8,-1948.47,2691.66
473,0.473000,4584,6198993,-4930.2,-3943.47,6693.66
474,0.474000,4585,6199993,-14407.2,-2909.47,7836.66
475,0.475000,4586,6200993,-26797.2,589.53,-486.34000000000015
476,0.476000,4587,6201993,-25396.2,3077.53,-5946.34
477,0.476999,4588,6202992,-18745.2,2347.53,-3444.34
478,0.477999,4589,6203992,-1857.2,261.53,3774.66
479,0.478999,4590,6204992,11009.8,-709.47,8436.66
480,0.480000,4591,6205993,17605.8,72.53,5708.66
481,0.481000,4592,6206993,18352.8,969.53,518.6599999999999
482,0.481999,4593,6207992,10418.8,857.53,-4015.34
483,0.483000,4594,6208993,2167.8,1551.53,-6070.34
484,0.484000,4595,6209993,-1924.2,1115.53,-5323.34
485,0.485000,4596,6210993,-694.2,246.53,-6459.34
486,0.486000,4597,6211993,-597.2,-745.47,-6123.34
487,0.487000,4598,6212993,5980.8,-1348.47,-4294.34
488,0.488000,4599,6213993,11633.8,575.53,-6341.34
489,0.489000,4600,6214993,14847.8,700.53,-4801.34
490,0.490000,4601,6215993,13618.8,-1004.47,1401.6599999999999
491,0.491000,4602,6216993,6012.8,-1301.47,5021.66
492,0.492000,4603,6217993,-2586.2,302.53,4490.66
493,0.492999,4604,6218992,-8993.2,1217.53,2353.66
494,0.494000,4605,6219993,-6660.2,78.53,1421.6599999999999
495,0.494999,4606,6220992,-413.2,145.53,902.6599999999999
496,0.496000,4607,6221993,4494.8,-101.47,1521.6599999999999
497,0.497000,4608,6222993,5333.8,-1084.47,2065.66
498,0.498000,4609,6223993,-1002.2,-2410.47,3322.66
499,0.499000,4610,6224993,-7553.2,-4070.47,7844.66
500,0.499999,4611,6225992,-18661.2,-2125.47,6120.66
501,0.500999,4612,6226992,-27317.2,1473.53,-2446.34
502,0.502000,4613,6227993,-23817.2,3128.53,-6028.34
503,0.502999,4614,6228992,-14806.2,1987.53,-1660.3400000000001
504,0.504000,4615,6229993,1759.8,-258.47,5712.66
505,0.504999,4616,6230992,13851.8,-549.47,8148.66
506,0.505999,4617,6231992,19430.8,292.53,4556.66
507,0.506999,4618,6232992,16967.8,940.53,-1078.3400000000001
508,0.507999,4619,6233992,7341.8,1070.53,-4725.34
509,0.509000,4620,6234993,-12.199999999999989,1508.53,-5964.34
510,0.510000,4621,6235993,-883.2,1042.53,-5755.34
511,0.511000,4622,6236993,-1239.2,-74.47,-6519.34
512,0.512000,4623,6237993,553.8,-1109.47,-5612.34
513,0.513000,4624,6238993,8438.8,-853.47,-4450.34
514,0.514000,4625,6239993,13141.8,777.53,-6585.34
515,0.515000,4626,6240993,14517.8,398.53,-3179.34
516,0.515999,4627,6241992,11797.8,-1311.47,2939.66
517,0.517000,4628,6242993,3166.8,-917.47,4970.66
518,0.518000,4629,6243993,-5206.2,757.53,4172.66
519,0.519000,4630,6244993,-8799.2,944.53,1804.6599999999999
520,0.520000,4631,6245993,-4948.2,71.53,1197.6599999999999
521,0.521000,4632,6246993,1942.8,16.53,1092.6599999999999
522,0.522000,4633,6247993,5221.8,-267.47,1746.6599999999999
523,0.523000,4634,6248993,3520.8,-1432.47,2333.66
524,0.524000,4635,6249993,-2989.2,-3123.47,4485.66
525,0.525000,4636,6250993,-9384.2,-3886.47,8517.66
526,0.526000,4637,6251993,-22884.2,-1022.47,3617.66
527,0.527000,4638,6252993,-26935.2,2333.53,-4418.34
528,0.527999,4639,6253992,-22215.2,3101.53,-5446.34
529,0.529000,4640,6254993,-10487.2,1324.53,565.6599999999999
530,0.529999,4641,6255992,6237.8,-492.47,7250.66
531,0.531000,4642,6256993,15735.8,-549.47,7481.66
532,0.531999,4643,6257992,20908.8,355.53,3179.66
533,0.533000,4644,6258993,13455.8,1109.53,-2413.34
534,0.533999,4645,6259992,4813.8,1409.53,-5636.34
535,0.535000,4646,6260993,-473.2,1211.53,-5703.34
536,0.536000,4647,6261993,-928.2,650.53,-5932.34
537,0.537000,4648,6262993,-1797.2,-166.47,-6605.34
538,0.538000,4649,6263993,2366.8,-1390.47,-5155.34
539,0.539000,4650,6264993,10992.8,-317.47,-5160.34
540,0.540000,4651,6265993,13603.8,995.53,-6171.34
541,0.540999,4652,6266992,14608.8,-322.47,-1389.3400000000001
542,0.542000,4653,6267993,9597.8,-1503.47,4092.66
543,0.543000,4654,6268993,636.8,-298.47,4994.66
544,0.544000,4655,6269993,-6929.2,1002.53,3422.66
545,0.545000,4656,6270993,-8746.2,576.53,1499.6599999999999
546,0.546000,4657,6271993,-2621.2,125.53,1077.6599999999999
547,0.547000,4658,6272993,3257.8,19.53,1269.6599999999999
548,0.548000,4659,6273993,5412.8,-437.47,1910.6599999999999
549,0.548999,4660,6274992,1386.8,-1761.47,2401.66
550,0.550000,4661,6275993,-4316.2,-3769.47,6044.66
551,0.551000,4662,6276993,-12170.2,-3392.47,8336.66
552,0.552000,4663,6277993,-25743.2,36.53,1053.6599999999999
553,0.553000,4664,6278993,-26581.2,2913.53,-5549.34
554,0.554000,4665,6279993,-19551.2,2686.53,-4344.34
555,0.555000,4666,6280993,-5135.2,537.53,2825.66
556,0.555999,4667,6281992,9949.8,-674.47,8128.66
557,0.556999,4668,6282992,16916.8,-62.47,6209.66
558,0.558000,4669,6283993,18669.8,705.53,1479.6599999999999
559,0.559000,4670,6284993,11535.8,1012.53,-3559.34
560,0.560000,4671,6285993,3311.8,1498.53,-5921.34
561,0.561000,4672,6286993,-948.2,1066.53,-5357.34
562,0.562000,4673,6287993,-1286.2,552.53,-6334.34
563,0.563000,4674,6288993,-1024.2,-523.47,-6096.34
564,0.564000,4675,6289993,5166.8,-1503.47,-4404.34
565,0.565000,4676,6290993,11032.8,458.53,-6364.34
566,0.566000,4677,6291993,14339.8,744.53,-5267.34
567,0.566999,4678,6292992,14685.8,-940.47,615.6599999999999
568,0.568000,4679,6293993,6877.8,-1295.47,4594.66
569,0.569000,4680,6294993,-1680.2,98.53,4800.66
570,0.570000,4681,6295993,-8336.2,1171.53,2744.66
571,0.570999,4682,6296992,-7321.2,195.53,1303.6599999999999
572,0.572000,4683,6297993,-728.2,200.53,769.6599999999999
573,0.572999,4684,6298992,3652.8,-58.47,1612.6599999999999
574,0.574000,4685,6299993,5486.8,-916.47,2218.66
575,0.575000,4686,6300993,-64.19999999999999,-2161.47,2978.66
576,0.576000,4687,6301993,-5941.2,-4037.47,7314.66
577,0.577000,4688,6302993,-17230.2,-2458.47,6940.66
578,0.578000,4689,6303993,-26557.2,1154.53,-1504.3400000000001
579,0.579000,4690,6304993,-24859.2,3028.53,-6104.34
580,0.580000,4691,6305993,-17058.2,2242.53,-2636.34
581,0.581000,4692,6306993,269.8,19.53,5041.66
582,0.582000,4693,6307993,11983.8,-720.47,8399.66
583,0.583000,4694,6308993,19054.8,322.53,5038.66
584,0.584000,4695,6309993,17337.8,883.53,-210.34000000000015
585,0.585000,4696,6310993,9721.8,980.53,-4516.34
586,0.586000,4697,6311993,685.8,1572.53,-5877.34
587,0.587000,4698,6312993,-1920.2,1021.53,-5589.34
588,0.587999,4699,6313992,-762.2,158.53,-6677.34
589,0.589000,4700,6314993,-671.2,-1045.47,-5691.34
590,0.589999,4701,6315992,7433.8,-1063.47,-4264.34
591,0.590999,4702,6316992,12341.8,844.53,-6858.34
592,0.592000,4703,6317993,15298.8,445.53,-4069.34
593,0.593000,4704,6318993,13082.8,-1209.47,2481.66
594,0.594000,4705,6319993,3818.8,-1066.47,5037.66
595,0.595000,4706,6320993,-3904.2,575.53,4468.66
596,0.596000,4707,6321993,-8819.2,1040.53,2131.66
597,0.597000,4708,6322993,-6076.2,92.53,1171.6599999999999
598,0.598000,4709,6323993,1178.8,127.53,893.6599999999999
599,0.599000,4710,6324993,5261.8,-207.47,1600.6599999999999
600,0.600000,4711,6325993,4517.8,-1196.47,2161.66
601,0.601000,4712,6326993,-2160.2,-2889.47,3995.66
602,0.601999,4713,6327992,-8243.2,-3995.47,8236.66
603,0.603000,4714,6328993,-21214.2,-1622.47,5056.66
604,0.604000,4715,6329993,-27024.2,1920.53,-3482.34
605,0.604999,4716,6330992,-23303.2,3263.53,-5982.34
606,0.606000,4717,6331993,-12737.2,1565.53,-637.3400000000001
607,0.607000,4718,6332993,4396.8,-266.47,6541.66
608,0.608000,4719,6333993,14276.8,-505.47,8100.66
609,0.609000,4720,6334993,20179.8,246.53,3821.66
610,0.610000,4721,6335993,15408.8,1097.53,-1684.3400000000001
611,0.610999,4722,6336992,6242.8,1250.53,-5131.34
612,0.612000,4723,6337993,-30.19999999999999,1331.53,-5807.34
613,0.613000,4724,6338993,-874.2,805.53,-5732.34
614,0.614000,4725,6339993,-1535.2,-189.47,-6520.34
615,0.615000,4726,6340993,1381.8,-1173.47,-5244.34
616,0.616000,4727,6341993,9322.8,-546.47,-5090.34
617,0.617000,4728,6342993,13565.8,904.53,-6627.34
618,0.618000,4729,6343993,14385.8,106.53,-2261.34
619,0.619000,4730,6344993,10647.8,-1426.47,3350.66
620,0.620000,4731,6345993,2264.8,-633.47,5239.66
621,0.621000,4732,6346993,-6167.2,781.53,3982.66
622,0.622000,4733,6347993,-8429.2,782.53,1448.6599999999999
623,0.623000,4734,6348993,-4077.2,197.53,1172.6599999999999
624,0.624000,4735,6349993,2288.8,30.53,1031.6599999999999
625,0.625000,4736,6350993,5591.8,-332.47,1873.6599999999999
626,0.625999,4737,6351992,2544.8,-1590.47,2534.66
627,0.626999,4738,6352992,-3831.2,-3348.47,4959.66
628,0.628000,4739,6353993,-10242.2,-3669.47,8443.66
629,0.628999,4740,6354992,-24143.2,-683.47,2576.66
630,0.630000,4741,6355993,-26538.2,2676.53,-5106.34
631,0.631000,4742,6356993,-21072.2,3044.53,-4893.34
632,0.632000,4743,6357993,-8568.2,984.53,1565.6599999999999
633,0.633000,4744,6358993,7888.8,-637.47,7677.66
634,0.634000,4745,6359993,16011.8,-393.47,6963.66
635,0.635000,4746,6360993,20263.8,552.53,2430.66
636,0.636000,4747,6361993,12302.8,1110.53,-2937.34
637,0.637000,4748,6362993,4169.8,1421.53,-5811.34
638,0.638000,4749,6363993,-506.2,1155.53,-5487.34
639,0.639000,4750,6364993,-1182.2,579.53,-5989.34
640,0.640000,4751,6365993,-1842.2,-203.47,-6401.34
641,0.640999,4752,6366992,3962.8,-1328.47,-4834.34
642,0.642000,4753,6367993,11337.8,-103.47,-5610.34
643,0.643000,4754,6368993,13855.8,949.53,-5707.34
644,0.643999,4755,6369992,14452.8,-733.47,-412.34000000000015
645,0.644999,4756,6370992,8605.8,-1495.47,4323.66
646,0.646000,4757,6371993,-643.2,122.53,4852.66
647,0.646999,4758,6372992,-8079.2,914.53,2704.66
648,0.647999,4759,6373992,-8231.2,496.53,1462.6599999999999
649,0.649000,4760,6374993,-1216.2,141.53,1130.6599999999999
650,0.650000,4761,6375993,4151.8,-182.47,1125.6599999999999
651,0.651000,4762,6376993,4896.8,-459.47,2309.66
652,0.652000,4763,6377993,649.8,-2030.47,2775.66
653,0.653000,4764,6378993,-4948.2,-3869.47,6400.66
654,0.654000,4765,6379993,-13701.2,-3018.47,7917.66
655,0.655000,4766,6380993,-26027.2,428.53,-100.34000000000015
656,0.656000,4767,6381993,-26081.2,3156.53,-5884.34
657,0.656999,4768,6382992,-18718.2,2319.53,-3595.34
658,0.657999,4769,6383992,-2838.2,271.53,3599.66
659,0.659000,4770,6384993,10504.8,-555.47,8315.66
660,0.660000,4771,6385993,17212.8,58.53,5703.66
661,0.661000,4772,6386993,18344.8,874.53,767.6599999999999
662,0.661999,4773,6387992,11267.8,883.53,-3737.34
663,0.663000,4774,6388993,2584.8,1407.53,-5925.34
664,0.664000,4775,6389993,-1798.2,1131.53,-5351.34
665,0.665000,4776,6390993,-1071.2,409.53,-6448.34
666,0.666000,4777,6391993,-1020.2,-662.47,-6119.34
667,0.667000,4778,6392993,5828.8,-1385.47,-4306.34
668,0.668000,4779,6393993,11588.8,527.53,-6457.34
669,0.668999,4780,6394992,15204.8,788.53,-4886.34
670,0.670000,4781,6395993,14050.8,-1134.47,1263.6599999999999
671,0.671000,4782,6396993,6191.8,-1214.47,4912.66
672,0.671999,4783,6397992,-2988.2,349.53,4652.66
673,0.673000,4784,6398993,-9034.2,1114.53,2139.66
674,0.674000,4785,6399993,-6632.2,240.53,1332.6599999999999
675,0.675000,4786,6400993,-165.2,-49.47,1195.6599999999999
676,0.676000,4787,6401993,4932.8,-42.47,1408.6599999999999
677,0.676999,4788,6402992,4589.8,-903.47,2113.66
678,0.678000,4789,6403993,-417.2,-2502.47,3266.66
679,0.679000,4790,6404993,-6749.2,-3810.47,7558.66
680,0.680000,4791,6405993,-19123.2,-2302.47,6442.66
681,0.681000,4792,6406993,-26665.2,1214.53,-2088.34
682,0.682000,4793,6407993,-24615.2,3332.53,-5987.34
683,0.683000,4794,6408993,-14951.2,1913.53,-1935.3400000000001
684,0.684000,4795,6409993,2305.8,-227.47,5480.66
685,0.684999,4796,6410992,12480.8,-537.47,8307.66
686,0.686000,4797,6411993,19349.8,352.53,4466.66
687,0.687000,4798,6412993,16675.8,891.53,-851.3400000000001
688,0.688000,4799,6413993,7822.8,940.53,-4525.34
689,0.689000,4800,6414993,512.8,1567.53,-6148.34
690,0.690000,4801,6415993,-1516.2,1007.53,-5557.34
691,0.691000,4802,6416993,-939.2,-39.47,-6545.34
692,0.692000,4803,6417993,226.8,-1101.47,-5735.34
693,0.693000,4804,6418993,8205.8,-766.47,-4385.34
694,0.694000,4805,6419993,13403.8,783.53,-6583.34
695,0.695000,4806,6420993,14639.8,253.53,-3262.34
696,0.696000,4807,6421993,11917.8,-1276.47,2791.66
697,0.697000,4808,6422993,3346.8,-852.47,4875.66
698,0.698000,4809,6423993,-4958.2,723.53,4049.66
699,0.699000,4810,6424993,-8872.2,774.53,1954.6599999999999
700,0.699999,4811,6425992,-5033.2,116.53,1230.6599999999999
701,0.700999,4812,6426992,1177.8,180.53,840.6599999999999
702,0.702000,4813,6427993,5534.8,-381.47,1741.6599999999999
703,0.703000,4814,6428993,3977.8,-1290.47,2261.66
704,0.704000,4815,6429993,-2998.2,-2964.47,4345.66
705,0.705000,4816,6430993,-9146.2,-3990.47,8436.66
706,0.705999,4817,6431992,-22292.2,-1208.47,4161.66
707,0.707000,4818,6432993,-26486.2,2227.53,-4112.34
708,0.708000,4819,6433993,-22450.2,3163.53,-5739.34
709,0.709000,4820,6434993,-10725.2,1412.53,375.65999999999985
710,0.710000,4821,6435993,4955.8,-451.47,6924.66
711,0.711000,4822,6436993,15352.8,-456.47,7701.66
712,0.712000,4823,6437993,20104.8,367.53,3385.66
713,0.713000,4824,6438993,14285.8,1046.53,-2404.34
714,0.714000,4825,6439993,5501.8,1283.53,-5157.34
715,0.715000,4826,6440993,-575.2,1126.53,-5593.34
716,0.716000,4827,6441993,-345.2,820.53,-6039.34
717,0.717000,4828,6442993,-2173.2,-106.47,-6625.34
718,0.717999,4829,6443992,2065.8,-1304.47,-5126.34
719,0.719000,4830,6444993,10164.8,-400.47,-5097.34
720,0.720000,4831,6445993,13468.8,937.53,-6319.34
721,0.721000,4832,6446993,14829.8,-253.47,-1453.3400000000001
722,0.722000,4833,6447993,10444.8,-1430.47,4010.66
723,0.723000,4834,6448993,816.8,-265.47,5009.66
724,0.724000,4835,6449993,-6686.2,739.53,3451.66
725,0.725000,4836,6450993,-8767.2,749.53,1557.6599999999999
726,0.726000,4837,6451993,-3340.2,212.53,1190.6599999999999
727,0.727000,4838,6452993,2955.8,10.530000000000001,952.6599999999999
728,0.727999,4839,6453992,5868.8,-426.47,2129.66
729,0.728999,4840,6454992,1887.8,-1801.47,2598.66
730,0.730000,4841,6455993,-4485.2,-3408.47,5433.66
731,0.731000,4842,6456993,-11406.2,-3620.47,8351.66
732,0.731999,4843,6457992,-24564.2,-382.47,1744.6599999999999
733,0.733000,4844,6458993,-26753.2,2905.53,-5161.34
734,0.734000,4845,6459993,-20372.2,2646.53,-4604.34
735,0.735000,4846,6460993,-6252.2,758.53,2146.66
736,0.736000,4847,6461993,8984.8,-560.47,7808.66
737,0.737000,4848,6462993,16882.8,-219.47,6505.66
738,0.738000,4849,6463993,18412.8,743.53,1946.6599999999999
739,0.739000,4850,6464993,12249.8,1105.53,-3312.34
740,0.740000,4851,6465993,3916.8,1337.53,-5588.34
741,0.740999,4852,6466992,-764.2,999.53,-5320.34
742,0.742000,4853,6467993,-1287.2,689.53,-6411.34
743,0.743000,4854,6468993,-1903.2,-373.47,-6132.34
744,0.744000,4855,6469993,4823.8,-1521.47,-4455.34
745,0.745000,4856,6470993,11121.8,308.53,-6180.34
746,0.746000,4857,6471993,14779.8,950.53,-5597.34
747,0.747000,4858,6472993,14228.8,-968.47,153.65999999999985
748,0.748000,4859,6473993,7554.8,-1327.47,4536.66
749,0.749000,4860,6474993,-1379.2,199.53,4972.66
750,0.750000,4861,6475993,-8523.2,975.53,2754.66
751,0.751000,4862,6476993,-7358.2,282.53,1289.6599999999999
752,0.752000,4863,6477993,-1180.2,110.53,929.6599999999999
753,0.753000,4864,6478993,4521.8,-39.47,1414.6599999999999
754,0.754000,4865,6479993,4882.8,-796.47,2176.66
755,0.755000,4866,6480993,329.8,-2131.47,2792.66
756,0.756000,4867,6481993,-5431.2,-3817.47,6894.66
757,0.757000,4868,6482993,-16334.2,-2816.47,7453.66
758,0.758000,4869,6483993,-26138.2,851.53,-871.3400000000001
759,0.759000,4870,6484993,-25639.2,3143.53,-6087.34
760,0.760000,4871,6485993,-17072.2,2260.53,-2936.34
761,0.761000,4872,6486993,-649.2,74.53,4620.66
762,0.762000,4873,6487993,11555.8,-770.47,8444.66
763,0.763000,4874,6488993,18180.8,342.53,5278.66
764,0.763999,4875,6489992,17218.8,884.53,167.65999999999985
765,0.765000,4876,6490993,10035.8,881.53,-4450.34
766,0.765999,4877,6491992,1510.8,1512.53,-5810.34
767,0.767000,4878,6492993,-1849.2,948.53,-5398.34
768,0.768000,4879,6493993,-803.2,250.53,-6615.34
769,0.769000,4880,6494993,-1168.2,-787.47,-5786.34
770,0.770000,4881,6495993,6783.8,-1139.47,-4541.34
771,0.771000,4882,6496993,12511.8,703.53,-6633.34
772,0.772000,4883,6497993,14864.8,552.53,-4141.34
773,0.773000,4884,6498993,13853.8,-1199.47,1996.6599999999999
774,0.774000,4885,6499993,4789.8,-1119.47,5066.66
775,0.774999,4886,6500992,-3714.2,576.53,4480.66
776,0.776000,4887,6501993,-8723.2,1082.53,2037.6599999999999
777,0.777000,4888,6502993,-6178.2,45.53,1114.6599999999999
778,0.778000,4889,6503993,720.8,146.53,862.6599999999999
779,0.779000,4890,6504993,4646.8,-169.47,1655.6599999999999
780,0.780000,4891,6505993,4869.8,-1252.47,2136.66
781,0.781000,4892,6506993,-1236.2,-2679.47,3705.66
782,0.782000,4893,6507993,-8134.2,-3850.47,7979.66
783,0.783000,4894,6508993,-20262.2,-1951.47,5630.66
784,0.784000,4895,6509993,-26514.2,1557.53,-2919.34
785,0.785000,4896,6510993,-23443.2,3274.53,-5966.34
786,0.786000,4897,6511993,-14181.2,1711.53,-1193.3400000000001
787,0.787000,4898,6512993,2970.8,-263.47,6106.66
788,0.788000,4899,6513993,13449.8,-499.47,8272.66
789,0.789000,4900,6514993,20106.8,319.53,4236.66
790,0.790000,4901,6515993,16148.8,987.53,-1334.3400000000001
791,0.791000,4902,6516993,7235.8,1191.53,-5015.34
792,0.791999,4903,6517992,154.8,1505.53,-5860.34
793,0.792999,4904,6518992,-1263.2,703.53,-5527.34
794,0.794000,4905,6519993,-1262.2,-52.47,-6505.34
795,0.795000,4906,6520993,299.8,-998.47,-5566.34
796,0.795999,4907,6521992,8477.8,-821.47,-4845.34
797,0.796999,4908,6522992,13563.8,876.53,-6647.34
798,0.798000,4909,6523993,14903.8,256.53,-2777.34
799,0.799000,4910,6524993,11412.8,-1456.47,3036.66
800,0.800000,4911,6525993,2979.8,-730.47,5174.66
801,0.801000,4912,6526993,-5716.2,782.53,4045.66
802,0.802000,4913,6527993,-8663.2,960.53,1642.6599999999999
803,0.803000,4914,6528993,-4828.2,122.53,1265.6599999999999
804,0.804000,4915,6529993,1843.8,-78.47,977.6599999999999
805,0.805000,4916,6530993,6216.8,-153.47,1935.6599999999999
806,0.805999,4917,6531992,3017.8,-1449.47,2360.66
807,0.807000,4918,6532993,-3187.2,-3260.47,4649.66
808,0.808000,4919,6533993,-9586.2,-3777.47,8392.66
809,0.809000,4920,6534993,-23234.2,-953.47,3273.66
810,0.810000,4921,6535993,-26902.2,2368.53,-4545.34
811,0.811000,4922,6536993,-22313.2,3069.53,-5385.34
812,0.812000,4923,6537993,-9482.2,1156.53,915.6599999999999
813,0.813000,4924,6538993,6537.8,-514.47,7371.66
814,0.813999,4925,6539992,15663.8,-383.47,7267.66
815,0.814999,4926,6540992,20485.8,378.53,2883.66
816,0.816000,4927,6541993,13429.8,1139.53,-2495.34
817,0.817000,4928,6542993,4560.8,1372.53,-5423.34
818,0.818000,4929,6543993,-474.2,1205.53,-5542.34
819,0.818999,4930,6544992,-1273.2,818.53,-6076.34
820,0.820000,4931,6545993,-1710.2,-232.47,-6310.34
821,0.821000,4932,6546993,2989.8,-1460.47,-4682.34
822,0.821999,4933,6547992,10872.8,-97.47,-5652.34
823,0.822999,4934,6548992,14425.8,934.53,-6130.34
824,0.824000,4935,6549993,14087.8,-537.47,-1015.3400000000001
825,0.825000,4936,6550993,9208.8,-1427.47,3899.66
826,0.826000,4937,6551993,49.80000000000001,-250.47,5124.66
827,0.827000,4938,6552993,-7312.2,1025.53,3115.66
828,0.828000,4939,6553993,-8511.2,526.53,1285.6599999999999
829,0.828999,4940,6554992,-2030.2,107.53,1023.6599999999999
830,0.829999,4941,6555992,4274.8,-24.47,1152.6599999999999
831,0.831000,4942,6556993,4991.8,-624.47,2364.66
832,0.831999,4943,6557992,816.8,-1731.47,2534.66
833,0.833000,4944,6558993,-4569.2,-3675.47,6055.66
834,0.834000,4945,6559993,-12602.2,-3351.47,8173.66
835,0.835000,4946,6560993,-25308.2,199.53,655.6599999999999
836,0.836000,4947,6561993,-27046.2,3062.53,-5897.34
837,0.837000,4948,6562993,-19174.2,2611.53,-4048.34
838,0.838000,4949,6563993,-4191.2,420.53,3444.66
839,0.839000,4950,6564993,9631.8,-654.47,8166.66
840,0.840000,4951,6565993,17162.8,80.53,6220.66
841,0.841000,4952,6566993,18288.8,822.53,1234.6599999999999
842,0.842000,4953,6567993,11921.8,1037.53,-3743.34
843,0.842999,4954,6568992,2767.8,1304.53,-5575.34
844,0.844000,4955,6569993,-1028.2,927.53,-5343.34
845,0.845000,4956,6570993,-1142.2,648.53,-6638.34
846,0.846000,4957,6571993,-1710.2,-515.47,-6247.34
847,0.847000,4958,6572993,5549.8,-1421.47,-4483.34
848,0.848000,4959,6573993,11167.8,427.53,-6418.34
849,0.849000,4960,6574993,15065.8,746.53,-5161.34
850,0.850000,4961,6575993,14388.8,-892.47,908.6599999999999
851,0.851000,4962,6576993,6673.8,-1350.47,4803.66
852,0.852000,4963,6577993,-1475.2,62.53,4888.66
853,0.853000,4964,6578993,-8657.2,1114.53,2587.66
854,0.854000,4965,6579993,-7585.2,299.53,1074.6599999999999
855,0.854999,4966,6580992,-471.2,247.53,951.6599999999999
856,0.856000,4967,6581993,3587.8,-75.47,1440.6599999999999
857,0.857000,4968,6582993,5289.8,-1034.47,2096.66
858,0.858000,4969,6583993,387.8,-2218.47,3204.66
859,0.859000,4970,6584993,-6267.2,-3932.47,7169.66
860,0.860000,4971,6585993,-17025.2,-2544.47,7042.66
861,0.861000,4972,6586993,-27045.2,1076.53,-1380.3400000000001
862,0.862000,4973,6587993,-24459.2,3106.53,-6056.34
863,0.863000,4974,6588993,-16852.2,2197.53,-2531.34
864,0.864000,4975,6589993,418.8,-50.47,4982.66
865,0.865000,4976,6590993,11981.8,-604.47,8383.66
866,0.866000,4977,6591993,18192.8,337.53,5039.66
867,0.867000,4978,6592993,17841.8,784.53,-298.34000000000015
868,0.868000,4979,6593993,9522.8,896.53,-4371.34
869,0.869000,4980,6594993,948.8,1648.53,-5856.34
870,0.870000,4981,6595993,-1596.2,971.53,-5442.34
871,0.871000,4982,6596993,-981.2,139.53,-6491.34
872,0.872000,4983,6597993,-569.2,-880.47,-6073.34
873,0.873000,4984,6598993,7248.8,-1124.47,-4527.34
874,0.874000,4985,6599993,12568.8,736.53,-6528.34
875,0.874999,4986,6600992,15155.8,305.53,-3792.34
876,0.876000,4987,6601993,12602.8,-1148.47,2211.66
877,0.877000,4988,6602993,4750.8,-972.47,5044.66
878,0.878000,4989,6603993,-4384.2,405.53,4375.66
879,0.879000,4990,6604993,-9260.2,1194.53,1908.6599999999999
880,0.880000,4991,6605993,-5406.2,133.53,1170.6599999999999
881,0.881000,4992,6606993,1136.8,-57.47,879.6599999999999
882,0.882000,4993,6607993,4874.8,-23.47,1880.6599999999999
883,0.882999,4994,6608992,4653.8,-1249.47,2307.66
884,0.884000,4995,6609993,-2077.2,-2779.47,3888.66
885,0.885000,4996,6610993,-8305.2,-3872.47,8303.66
886,0.886000,4997,6611993,-20967.2,-1743.47,4874.66
887,0.887000,4998,6612993,-27546.2,2030.53,-3688.34
888,0.888000,4999,6613993,-22897.2,3139.53,-5871.34
889,0.889000,5000,6614993,-12648.2,1501.53,-370.34000000000015
890,0.890000,5001,6615993,4015.8,-256.47,6639.66
891,0.891000,5002,6616993,14469.8,-613.47,7869.66
892,0.892000,5003,6617993,20558.8,215.53,3955.66
893,0.892999,5004,6618992,15312.8,1165.53,-1922.3400000000001
894,0.894000,5005,6619993,5926.8,1196.53,-5099.34
895,0.895000,5006,6620993,-246.2,1361.53,-5791.34
896,0.895999,5007,6621992,-811.2,849.53,-5713.34
897,0.897000,5008,6622993,-1459.2,-202.47,-6457.34
898,0.897999,5009,6623992,1106.8,-1132.47,-5751.34
899,0.898999,5010,6624992,8906.8,-575.47,-4779.34
900,0.900000,5011,6625993,13704.8,828.53,-6266.34
901,0.900999,5012,6626992,14803.8,136.53,-2338.34
902,0.902000,5013,6627993,10751.8,-1564.47,3675.66
903,0.903000,5014,6628993,2579.8,-720.47,5119.66
904,0.903999,5015,6629992,-6364.2,1056.53,3672.66
905,0.905000,5016,6630993,-8709.2,756.53,1412.6599999999999
906,0.906000,5017,6631993,-4356.2,102.53,1136.6599999999999
907,0.906999,5018,6632992,2408.8,121.53,1254.6599999999999
908,0.907999,5019,6633992,5908.8,-423.47,1873.6599999999999
909,0.909000,5020,6634993,2805.8,-1533.47,2329.66
910,0.910000,5021,6635993,-3282.2,-3377.47,5129.66
911,0.911000,5022,6636993,-10867.2,-3802.47,8447.66
912,0.911999,5023,6637992,-24036.2,-431.47,2498.66
913,0.913000,5024,6638993,-27015.2,2500.53,-4876.34
914,0.914000,5025,6639993,-21201.2,2896.53,-5119.34
915,0.915000,5026,6640993,-8149.2,1064.53,1606.6599999999999
916,0.916000,5027,6641993,7741.8,-617.47,7626.66
917,0.917000,5028,6642993,16436.8,-245.47,6975.66
918,0.918000,5029,6643993,19533.8,526.53,2451.66
919,0.919000,5030,6644993,12681.8,1156.53,-2888.34
920,0.920000,5031,6645993,4118.8,1415.53,-5534.34
921,0.920999,5032,6646992,-271.2,1049.53,-5504.34
922,0.922000,5033,6647993,-1014.2,732.53,-6124.34
923,0.923000,5034,6648993,-1815.2,-289.47,-6330.34
924,0.924000,5035,6649993,3669.8,-1402.47,-4791.34
925,0.925000,5036,6650993,10407.8,30.53,-6000.34
926,0.926000,5037,6651993,14384.8,800.53,-5970.34
927,0.927000,5038,6652993,14294.8,-525.47,-579.3400000000001
928,0.928000,5039,6653993,8663.8,-1451.47,4314.66
929,0.929000,5040,6654993,196.8,-216.47,5152.66
930,0.930000,5041,6655993,-8119.2,1094.53,3249.66
931,0.931000,5042,6656993,-7891.2,509.53,1293.6599999999999
932,0.932000,5043,6657993,-1766.2,189.53,855.6599999999999
933,0.933000,5044,6658993,3807.8,-56.47,1346.6599999999999
934,0.934000,5045,6659993,5098.8,-689.47,2246.66
935,0.934999,5046,6660992,373.8,-1844.47,2657.66
936,0.936000,5047,6661993,-4180.2,-3891.47,6285.66
937,0.937000,5048,6662993,-14162.2,-3125.47,7818.66
938,0.938000,5049,6663993,-26310.2,555.53,-1.3400000000001455
939,0.939000,5050,6664993,-26245.2,2928.53,-6002.34
940,0.940000,5051,6665993,-18403.2,2520.53,-3700.34
941,0.941000,5052,6666993,-2570.2,278.53,3907.66
942,0.942000,5053,6667993,10543.8,-824.47,8351.66
943,0.943000,5054,6668993,17402.8,223.53,5804.66
944,0.943999,5055,6669992,18175.8,945.53,678.6599999999999
945,0.944999,5056,6670992,10977.8,976.53,-4070.34
946,0.945999,5057,6671992,1936.8,1449.53,-5731.34
947,0.947000,5058,6672993,-1234.2,1001.53,-5355.34
948,0.948000,5059,6673993,-754.2,359.53,-6407.34
949,0.949000,5060,6674993,-1078.2,-577.47,-6068.34
950,0.950000,5061,6675993,5651.8,-1313.47,-4501.34
951,0.950999,5062,6676992,11364.8,441.53,-6275.34
952,0.952000,5063,6677993,14824.8,746.53,-4913.34
953,0.953000,5064,6678993,13419.8,-1023.47,1243.6599999999999
954,0.954000,5065,6679993,6812.8,-1391.47,5087.66
955,0.955000,5066,6680993,-2092.2,264.53,4657.66
956,0.956000,5067,6681993,-9122.2,1300.53,2069.66
957,0.957000,5068,6682993,-6754.2,300.53,1182.6599999999999
958,0.958000,5069,6683993,2.8000000000000114,-26.47,1029.6599999999999
959,0.959000,5070,6684993,4549.8,-186.47,1574.6599999999999
960,0.960000,5071,6685993,5000.8,-1029.47,2347.66
961,0.961000,5072,6686993,-776.2,-2361.47,3216.66
962,0.962000,5073,6687993,-6536.2,-3807.47,7460.66
963,0.963000,5074,6688993,-18050.2,-2406.47,6427.66
964,0.964000,5075,6689993,-27419.2,1316.53,-2211.34
965,0.965000,5076,6690993,-24302.2,3222.53,-6070.34
966,0.966000,5077,6691993,-15401.2,1818.53,-1909.3400000000001
967,0.967000,5078,6692993,1590.8,-108.47,5382.66
968,0.967999,5079,6693992,12849.8,-581.47,8400.66
969,0.969000,5080,6694993,18910.8,264.53,4622.66
970,0.970000,5081,6695993,16766.8,1081.53,-926.3400000000001
971,0.971000,5082,6696993,8330.8,1040.53,-4466.34
972,0.972000,5083,6697993,315.8,1552.53,-5825.34
973,0.973000,5084,6698993,-1273.2,1008.53,-5412.34
974,0.974000,5085,6699993,-539.2,-136.47,-6300.34
975,0.974999,5086,6700992,38.80000000000001,-947.47,-5835.34
976,0.975999,5087,6701992,6940.8,-875.47,-4616.34
977,0.977000,5088,6702993,12376.8,685.53,-6488.34
978,0.978000,5089,6703993,15087.8,604.53,-3881.34
979,0.978999,5090,6704992,12298.8,-1314.47,2641.66
980,0.980000,5091,6705993,4406.8,-1142.47,5290.66
981,0.981000,5092,6706993,-4396.2,791.53,4157.66
982,0.981999,5093,6707992,-8952.2,1056.53,1583.6599999999999
983,0.983000,5094,6708993,-5167.2,-46.47,1262.6599999999999
984,0.984000,5095,6709993,529.8,109.53,1288.6599999999999
985,0.985000,5096,6710993,5691.8,-179.47,1587.6599999999999
986,0.986000,5097,6711993,4160.8,-1426.47,2277.66
987,0.987000,5098,6712993,-2437.2,-2857.47,4191.66
988,0.988000,5099,6713993,-8569.2,-3807.47,8138.66
989,0.989000,5100,6714993,-22044.2,-1391.47,4308.66
990,0.990000,5101,6715993,-26939.2,1947.53,-3854.34
991,0.991000,5102,6716993,-23092.2,3238.53,-5666.34
992,0.992000,5103,6717993,-11626.2,1476.53,191.65999999999985
993,0.993000,5104,6718993,5061.8,-669.47,6819.66
994,0.994000,5105,6719993,15441.8,-410.47,7553.66
995,0.995000,5106,6720993,20187.8,466.53,3316.66
996,0.996000,5107,6721993,14145.8,1049.53,-1922.3400000000001
997,0.996999,5108,6722992,5205.8,1282.53,-5154.34
998,0.998000,5109,6723993,-45.19999999999999,1266.53,-5677.34
999,0.999000,5110,6724993,-858.2,833.53,-5858.34
1000,1.000000,5111,6725993,-1223.2,-288.47,-6336.34
1001,1.001000,5112,6726993,1621.8,-1227.47,-5017.34
1002,1.002000,5113,6727993,9626.8,-266.47,-5177.34
1003,1.003000,5114,6728993,13910.8,911.53,-6468.34
1004,1.004000,5115,6729993,14161.8,-200.47,-2010.3400000000001
1005,1.005000,5116,6730993,10421.8,-1457.47,3789.66
1006,1.006000,5117,6731993,1590.8,-413.47,5173.66
1007,1.007000,5118,6732993,-5996.2,917.53,3499.66
1008,1.008000,5119,6733993,-8684.2,580.53,1499.6599999999999
1009,1.009000,5120,6734993,-3511.2,225.53,1175.6599999999999
1010,1.010000,5121,6735993,2702.8,78.53,964.6599999999999
1011,1.011000,5122,6736993,5730.8,-560.47,1969.6599999999999
1012,1.012000,5123,6737993,2000.8,-1520.47,2556.66
1013,1.013000,5124,6738993,-4012.2,-3569.47,5486.66
1014,1.014000,5125,6739993,-10885.2,-3530.47,8104.66
1015,1.015000,5126,6740993,-24592.2,-333.47,2006.6599999999999
1016,1.016000,5127,6741993,-26934.2,2665.53,-5241.34
1017,1.017000,5128,6742993,-20544.2,2978.53,-4893.34
1018,1.018000,5129,6743993,-6932.2,696.53,2335.66
1019,1.019000,5130,6744993,8579.8,-689.47,7894.66
1020,1.020000,5131,6745993,16543.8,-142.47,6834.66
1021,1.021000,5132,6746993,18873.8,695.53,2045.6599999999999
1022,1.021999,5133,6747992,12396.8,1147.53,-3328.34
1023,1.022999,5134,6748992,3799.8,1364.53,-5616.34
1024,1.024000,5135,6749993,-464.2,993.53,-5396.34
1025,1.025000,5136,6750993,-775.2,575.53,-5995.34
1026,1.026000,5137,6751993,-1790.2,-304.47,-6320.34
1027,1.027000,5138,6752993,3791.8,-1403.47,-4996.34
1028,1.028000,5139,6753993,10815.8,-66.47,-5738.34
1029,1.028999,5140,6754992,13839.8,1015.53,-5758.34
1030,1.030000,5141,6755993,13789.8,-628.47,-302.34000000000015
1031,1.030999,5142,6756992,9099.8,-1611.47,4708.66
1032,1.032000,5143,6757993,-61.19999999999999,40.53,5073.66
1033,1.032999,5144,6758992,-8215.2,1088.53,2519.66
1034,1.034000,5145,6759993,-8195.2,441.53,1313.6599999999999
1035,1.035000,5146,6760993,-1679.2,154.53,1402.6599999999999
1036,1.036000,5147,6761993,4322.8,-117.47,1196.6599999999999
1037,1.036999,5148,6762992,5231.8,-680.47,2073.66
1038,1.038000,5149,6763993,876.8,-2028.47,2870.66
1039,1.038999,5150,6764992,-4856.2,-3804.47,6437.66
1040,1.040000,5151,6765993,-15159.2,-2798.47,7345.66
1041,1.041000,5152,6766993,-26467.2,589.53,-231.34000000000015
1042,1.041999,5153,6767992,-25844.2,2957.53,-5714.34
1043,1.043000,5154,6768993,-18268.2,2411.53,-3336.34
1044,1.044000,5155,6769993,-1696.2,201.53,3969.66
1045,1.045000,5156,6770993,11220.8,-713.47,8209.66
1046,1.045999,5157,6771992,17610.8,252.53,5515.66
1047,1.047000,5158,6772993,17838.8,844.53,608.6599999999999
1048,1.048000,5159,6773993,10063.8,936.53,-4060.34
1049,1.049000,5160,6774993,2295.8,1552.53,-5847.34
1050,1.049999,5161,6775992,-1147.2,1052.53,-5321.34
1051,1.050999,5162,6776992,-985.2,270.53,-6505.34
1052,1.051999,5163,6777992,-816.2,-726.47,-5866.34
1053,1.053000,5164,6778993,5669.8,-1382.47,-4300.34
1054,1.054000,5165,6779993,11321.8,627.53,-6642.34
1055,1.055000,5166,6780993,14705.8,710.53,-4799.34
1056,1.056000,5167,6781993,13949.8,-1219.47,1398.6599999999999
1057,1.057000,5168,6782993,6473.8,-1182.47,4892.66
1058,1.058000,5169,6783993,-3216.2,362.53,4645.66
1059,1.059000,5170,6784993,-8681.2,1211.53,2109.66
1060,1.060000,5171,6785993,-6137.2,154.53,1349.6599999999999
1061,1.061000,5172,6786993,-410.2,27.53,1079.6599999999999
1062,1.062000,5173,6787993,4457.8,-72.47,1629.6599999999999
1063,1.063000,5174,6788993,5503.8,-1145.47,2460.66
1064,1.064000,5175,6789993,-752.2,-2477.47,3482.66
1065,1.065000,5176,6790993,-7168.2,-3722.47,7654.66
1066,1.066000,5177,6791993,-19188.2,-2106.47,6025.66
1067,1.067000,5178,6792993,-27104.2,1249.53,-2554.34
1068,1.068000,5179,6793993,-24391.2,3288.53,-6155.34
1069,1.069000,5180,6794993,-15081.2,1921.53,-1503.3400000000001
1070,1.070000,5181,6795993,2406.8,-456.47,5878.66
1071,1.070999,5182,6796992,13355.8,-506.47,8260.66
1072,1.072000,5183,6797993,19483.8,401.53,4429.66
1073,1.072999,5184,6798992,16524.8,934.53,-1299.3400000000001
1074,1.074000,5185,6799993,7840.8,1111.53,-4789.34
1075,1.075000,5186,6800993,-17.19999999999999,1483.53,-5794.34
1076,1.076000,5187,6801993,-1172.2,921.53,-5446.34
1077,1.077000,5188,6802993,-667.2,-27.47,-6289.34
1078,1.078000,5189,6803993,-97.19999999999999,-1008.47,-5898.34
1079,1.079000,5190,6804993,7612.8,-810.47,-4608.34
1080,1.079999,5191,6805992,12918.8,764.53,-6278.34
1081,1.081000,5192,6806993,14914.8,427.53,-3403.34
1082,1.082000,5193,6807993,12180.8,-1289.47,3031.66
1083,1.082999,5194,6808992,3590.8,-1110.47,5205.66
1084,1.084000,5195,6809993,-4691.2,935.53,3873.66
1085,1.085000,5196,6810993,-8757.2,1142.53,1589.6599999999999
1086,1.085999,5197,6811992,-5496.2,-134.47,1237.6599999999999
1087,1.087000,5198,6812993,1214.8,126.53,1262.6599999999999
1088,1.087999,5199,6813992,5782.8,-239.47,1695.6599999999999
1089,1.089000,5200,6814993,4256.8,-1458.47,2196.66
1090,1.090000,5201,6815993,-2826.2,-3082.47,4509.66
1091,1.091000,5202,6816993,-9076.2,-3896.47,8220.66
1092,1.092000,5203,6817993,-22537.2,-1137.47,3802.66
1093,1.093000,5204,6818993,-27208.2,2215.53,-4235.34
1094,1.094000,5205,6819993,-22419.2,3178.53,-5603.34
1095,1.095000,5206,6820993,-11260.2,1275.53,593.6599999999999
1096,1.096000,5207,6821993,5970.8,-518.47,7073.66
1097,1.097000,5208,6822993,15459.8,-371.47,7492.66
1098,1.098000,5209,6823993,20657.8,297.53,3312.66
1099,1.098999,5210,6824992,14132.8,1143.53,-2219.34
1100,1.100000,5211,6825993,4458.8,1384.53,-5163.34
1101,1.101000,5212,6826993,20.80000000000001,1170.53,-5730.34
1102,1.102000,5213,6827993,-1093.2,799.53,-5863.34
1103,1.103000,5214,6828993,-1416.2,-178.47,-6289.34
1104,1.104000,5215,6829993,2167.8,-1210.47,-5256.34
1105,1.105000,5216,6830993,9711.8,-420.47,-5262.34
1106,1.106000,5217,6831993,13760.8,813.53,-6153.34
1107,1.107000,5218,6832993,14099.8,-21.47,-1807.3400000000001
1108,1.108000,5219,6833993,9914.8,-1473.47,3713.66
1109,1.108999,5220,6834992,1548.8,-464.47,5186.66
1110,1.110000,5221,6835993,-6663.2,974.53,3587.66
1111,1.111000,5222,6836993,-8575.2,670.53,1394.6599999999999
1112,1.112000,5223,6837993,-2710.2,177.53,1086.6599999999999
1113,1.113000,5224,6838993,1967.8,116.53,1170.6599999999999
1114,1.114000,5225,6839993,6390.8,-612.47,2078.66
1115,1.115000,5226,6840993,2072.8,-1787.47,2642.66
1116,1.116000,5227,6841993,-4226.2,-3405.47,5377.66
1117,1.117000,5228,6842993,-11182.2,-3458.47,8029.66
1118,1.118000,5229,6843993,-25672.2,-192.47,1470.6599999999999
1119,1.119000,5230,6844993,-26014.2,2669.53,-5305.34
1120,1.120000,5231,6845993,-20386.2,2642.53,-4415.34
1121,1.121000,5232,6846993,-6470.2,832.53,2433.66
1122,1.122000,5233,6847993,9105.8,-636.47,8008.66
1123,1.123000,5234,6848993,16501.8,-221.47,6370.66
1124,1.124000,5235,6849993,19238.8,789.53,1691.6599999999999
1125,1.125000,5236,6850993,11540.8,1106.53,-3092.34
1126,1.126000,5237,6851993,3349.8,1397.53,-5781.34
1127,1.127000,5238,6852993,-460.2,1045.53,-5267.34
1128,1.128000,5239,6853993,-1142.2,560.53,-5937.34
1129,1.129000,5240,6854993,-1418.2,-477.47,-6236.34
1130,1.130000,5241,6855993,4407.8,-1314.47,-4692.34
1131,1.130999,5242,6856992,10805.8,191.53,-5813.34
1132,1.132000,5243,6857993,14002.8,848.53,-5658.34
1133,1.133000,5244,6858993,14433.8,-870.47,-42.340000000000146
1134,1.134000,5245,6859993,8410.8,-1411.47,4725.66
1135,1.134999,5246,6860992,-1208.2,263.53,4715.66
1136,1.136000,5247,6861993,-8246.2,981.53,2409.66
1137,1.137000,5248,6862993,-7919.2,424.53,1422.6599999999999
1138,1.137999,5249,6863992,-674.2,122.53,1223.6599999999999
1139,1.139000,5250,6864993,4134.8,-155.47,1191.6599999999999
1140,1.140000,5251,6865993,4549.8,-641.47,2303.66
1141,1.141000,5252,6866993,1169.8,-2229.47,3061.66
1142,1.142000,5253,6867993,-5435.2,-3758.47,6653.66
1143,1.143000,5254,6868993,-14983.2,-2764.47,7368.66
1144,1.144000,5255,6869993,-26432.2,494.53,-660.3400000000001
1145,1.145000,5256,6870993,-26049.2,3283.53,-6090.34
1146,1.146000,5257,6871993,-17880.2,2279.53,-3185.34
1147,1.147000,5258,6872993,-1423.2,21.53,4162.66
1148,1.147999,5259,6873992,11382.8,-555.47,8405.66
1149,1.149000,5260,6874993,17421.8,257.53,5337.66
1150,1.149999,5261,6875992,17827.8,857.53,311.65999999999985
1151,1.151000,5262,6876993,10297.8,941.53,-3791.34
1152,1.152000,5263,6877993,2009.8,1556.53,-5852.34
1153,1.153000,5264,6878993,-1408.2,1033.53,-5277.34
1154,1.154000,5265,6879993,-541.2,250.53,-6410.34
1155,1.155000,5266,6880993,-775.2,-815.47,-6066.34
1156,1.156000,5267,6881993,5747.8,-1282.47,-4391.34
1157,1.157000,5268,6882993,11256.8,594.53,-6439.34
1158,1.158000,5269,6883993,14582.8,769.53,-5031.34
1159,1.159000,5270,6884993,14092.8,-1134.47,1557.6599999999999
1160,1.160000,5271,6885993,5966.8,-1272.47,5321.66
1161,1.161000,5272,6886993,-3126.2,494.53,4481.66
1162,1.161999,5273,6887992,-8474.2,1190.53,2005.6599999999999
1163,1.162999,5274,6888992,-6454.2,-0.46999999999999886,1443.6599999999999
1164,1.164000,5275,6889993,-413.2,172.53,1123.6599999999999
1165,1.165000,5276,6890993,4769.8,-89.47,1425.6599999999999
1166,1.166000,5277,6891993,4965.8,-1268.47,2160.66
1167,1.167000,5278,6892993,-646.2,-2429.47,3557.66
1168,1.168000,5279,6893993,-7239.2,-3848.47,7663.66
1169,1.169000,5280,6894993,-19149.2,-2089.47,5707.66
1170,1.170000,5281,6895993,-27244.2,1494.53,-2458.34
1171,1.171000,5282,6896993,-24680.2,3212.53,-6026.34
1172,1.172000,5283,6897993,-14248.2,1815.53,-1368.3400000000001
1173,1.172999,5284,6898992,2751.8,-403.47,5968.66
1174,1.174000,5285,6899993,13651.8,-500.47,8009.66
1175,1.174999,5286,6900992,19382.8,549.53,4345.66
1176,1.176000,5287,6901993,16176.8,856.53,-1102.3400000000001
1177,1.177000,5288,6902993,7471.8,1059.53,-4821.34
1178,1.178000,5289,6903993,128.8,1552.53,-5688.34
1179,1.179000,5290,6904993,-967.2,803.53,-5509.34
1180,1.180000,5291,6905993,-796.2,-18.47,-6410.34
1181,1.181000,5292,6906993,236.8,-1006.47,-5593.34
1182,1.182000,5293,6907993,7683.8,-826.47,-4599.34
1183,1.183000,5294,6908993,13190.8,867.53,-6536.34
1184,1.184000,5295,6909993,14780.8,254.53,-3325.34
1185,1.185000,5296,6910993,11601.8,-1297.47,3053.66
1186,1.186000,5297,6911993,3324.8,-872.47,5130.66
1187,1.187000,5298,6912993,-4963.2,668.53,3889.66
1188,1.188000,5299,6913993,-8463.2,1027.53,1613.6599999999999
1189,1.189000,5300,6914993,-5249.2,77.53,1281.6599999999999
1190,1.190000,5301,6915993,1412.8,132.53,1083.6599999999999
1191,1.191000,5302,6916993,5587.8,-296.47,1801.6599999999999
1192,1.191999,5303,6917992,3960.8,-1596.47,2449.66
1193,1.193000,5304,6918993,-2362.2,-3060.47,4596.66
1194,1.194000,5305,6919993,-9386.2,-3740.47,8238.66
1195,1.195000,5306,6920993,-22956.2,-988.47,3478.66
1196,1.196000,5307,6921993,-27029.2,2267.53,-4399.34
1197,1.196999,5308,6922992,-22422.2,3054.53,-5442.34
1198,1.198000,5309,6923993,-10298.2,1242.53,878.6599999999999
1199,1.198999,5310,6924992,5716.8,-496.47,7101.66
1200,1.199999,5311,6925992,15568.8,-379.47,7280.66
1201,1.201000,5312,6926993,20568.8,317.53,3178.66
1202,1.202000,5313,6927993,13720.8,1078.53,-2351.34
1203,1.203000,5314,6928993,4784.8,1402.53,-5424.34
1204,1.203999,5315,6929992,-361.2,1192.53,-5597.34
1205,1.205000,5316,6930993,-469.2,656.53,-5973.34
1206,1.206000,5317,6931993,-1710.2,-256.47,-6398.34
1207,1.207000,5318,6932993,1899.8,-1231.47,-4905.34
1208,1.207999,5319,6933992,9900.8,-347.47,-5291.34
1209,1.209000,5320,6934993,13418.8,931.53,-6395.34
1210,1.210000,5321,6935993,14812.8,-111.47,-1610.3400000000001
1211,1.211000,5322,6936993,10134.8,-1562.47,4089.66
1212,1.212000,5323,6937993,934.8,-408.47,5145.66
1213,1.213000,5324,6938993,-6555.2,1004.53,3442.66
1214,1.214000,5325,6939993,-8792.2,703.53,1346.6599999999999
1215,1.215000,5326,6940993,-2804.2,200.53,1152.6599999999999
1216,1.216000,5327,6941993,2882.8,-36.47,1356.6599999999999
1217,1.217000,5328,6942993,5767.8,-518.47,1850.6599999999999
1218,1.218000,5329,6943993,2202.8,-1739.47,2582.66
1219,1.219000,5330,6944993,-4114.2,-3598.47,5722.66
1220,1.220000,5331,6945993,-12025.2,-3358.47,7846.66
1221,1.220999,5332,6946992,-25539.2,-157.47,1444.6599999999999
1222,1.222000,5333,6947993,-26338.2,2598.53,-5251.34
1223,1.223000,5334,6948993,-20265.2,2828.53,-4677.34
1224,1.224000,5335,6949993,-6044.2,908.53,2457.66
1225,1.225000,5336,6950993,9564.8,-902.47,8151.66
1226,1.226000,5337,6951993,17131.8,-212.47,6532.66
1227,1.227000,5338,6952993,18786.8,988.53,1736.6599999999999
1228,1.228000,5339,6953993,11157.8,1036.53,-3443.34
1229,1.229000,5340,6954993,3594.8,1459.53,-5821.34
1230,1.230000,5341,6955993,-921.2,1123.53,-5257.34
1231,1.230999,5342,6956992,-866.2,410.53,-5862.34
1232,1.232000,5343,6957993,-1093.2,-442.47,-6139.34
1233,1.233000,5344,6958993,4351.8,-1309.47,-4937.34
1234,1.234000,5345,6959993,10827.8,75.53,-5961.34
1235,1.234999,5346,6960992,13724.8,851.53,-5531.34
1236,1.236000,5347,6961993,13595.8,-698.47,-44.340000000000146
1237,1.237000,5348,6962993,8387.8,-1526.47,4701.66
1238,1.238000,5349,6963993,-614.2,102.53,4834.66
1239,1.239000,5350,6964993,-8527.2,1104.53,2540.66
1240,1.239999,5351,6965992,-7046.2,294.53,1363.6599999999999
1241,1.241000,5352,6966993,-1469.2,184.53,1049.6599999999999
1242,1.242000,5353,6967993,4014.8,6.530000000000001,1433.6599999999999
1243,1.243000,5354,6968993,5272.8,-897.47,2337.66
1244,1.244000,5355,6969993,444.8,-2150.47,2946.66
1245,1.245000,5356,6970993,-4878.2,-3718.47,6635.66
1246,1.246000,5357,6971993,-15896.2,-2811.47,6988.66
1247,1.246999,5358,6972992,-26193.2,854.53,-778.3400000000001
1248,1.248000,5359,6973993,-25636.2,3047.53,-5788.34
1249,1.249000,5360,6974993,-17623.2,2129.53,-2935.34
1250,1.250000,5361,6975993,-1002.2,19.53,4537.66
1251,1.251000,5362,6976993,11487.8,-802.47,8204.66
1252,1.251999,5363,6977992,17871.8,388.53,5087.66
1253,1.252999,5364,6978992,17021.8,973.53,76.65999999999985
1254,1.254000,5365,6979993,9931.8,909.53,-4075.34
1255,1.255000,5366,6980993,1731.8,1594.53,-5670.34
1256,1.255999,5367,6981992,-1448.2,1100.53,-5250.34
1257,1.257000,5368,6982993,-490.2,234.53,-6327.34
1258,1.257999,5369,6983992,-851.2,-730.47,-5824.34
1259,1.258999,5370,6984992,5870.8,-1207.47,-4167.34
1260,1.260000,5371,6985993,11877.8,604.53,-6400.34
1261,1.260999,5372,6986992,14495.8,785.53,-4814.34
1262,1.262000,5373,6987993,14200.8,-1273.47,1666.6599999999999
1263,1.262999,5374,6988992,5946.8,-1255.47,4970.66
1264,1.264000,5375,6989993,-3742.2,558.53,4255.66
1265,1.265000,5376,6990993,-8809.2,1068.53,2015.6599999999999
1266,1.266000,5377,6991993,-6314.2,133.53,1231.6599999999999
1267,1.267000,5378,6992993,200.8,81.53,882.6599999999999
1268,1.268000,5379,6993993,5265.8,-245.47,1519.6599999999999
1269,1.268999,5380,6994992,5349.8,-1149.47,2373.66
1270,1.270000,5381,6995993,-856.2,-2536.47,3598.66
1271,1.271000,5382,6996993,-7278.2,-3853.47,7734.66
1272,1.272000,5383,6997993,-20058.2,-2017.47,5921.66
1273,1.273000,5384,6998993,-27536.2,1575.53,-2830.34
1274,1.274000,5385,6999993,-24137.2,3270.53,-6223.34
1275,1.275000,5386,7000993,-14821.2,1664.53,-1263.3400000000001
1276,1.276000,5387,7001993,2561.8,-279.47,5811.66
1277,1.277000,5388,7002993,13783.8,-414.47,8343.66
1278,1.278000,5389,7003993,19497.8,349.53,4314.66
1279,1.279000,5390,7004993,16973.8,977.53,-1079.3400000000001
1280,1.279999,5391,7005992,7223.8,1154.53,-4520.34
1281,1.281000,5392,7006993,-10.199999999999989,1436.53,-5783.34
1282,1.282000,5393,7007993,-914.2,801.53,-5560.34
1283,1.283000,5394,7008993,-1655.2,-69.47,-6470.34
1284,1.284000,5395,7009993,586.8,-960.47,-5659.34
1285,1.285000,5396,7010993,8428.8,-761.47,-4958.34
1286,1.286000,5397,7011993,13472.8,807.53,-6813.34
1287,1.287000,5398,7012993,15546.8,240.53,-2887.34
1288,1.288000,5399,7013993,11639.8,-1439.47,2995.66
1289,1.288999,5400,7014992,2643.8,-811.47,5073.66
1290,1.290000,5401,7015993,-5312.2,723.53,4079.66
1291,1.291000,5402,7016993,-8539.2,924.53,1514.6599999999999
1292,1.291999,5403,7017992,-4818.2,198.53,1253.6599999999999
1293,1.293000,5404,7018993,1794.8,-128.47,1056.6599999999999
1294,1.294000,5405,7019993,6002.8,-328.47,1984.6599999999999
1295,1.295000,5406,7020993,3362.8,-1341.47,2426.66
1296,1.296000,5407,7021993,-3735.2,-3138.47,4506.66
1297,1.297000,5408,7022993,-9577.2,-3884.47,8505.66
1298,1.298000,5409,7023993,-23477.2,-978.47,3349.66
1299,1.299000,5410,7024993,-27501.2,2504.53,-4615.34
1300,1.300000,5411,7025993,-22038.2,2896.53,-5198.34
1301,1.301000,5412,7026993,-10084.2,1193.53,852.6599999999999
1302,1.302000,5413,7027993,6510.8,-288.47,7305.66
1303,1.303000,5414,7028993,16000.8,-545.47,7330.66
1304,1.304000,5415,7029993,20739.8,352.53,3043.66
1305,1.305000,5416,7030993,13644.8,1270.53,-2171.34
1306,1.306000,5417,7031993,4714.8,1220.53,-5325.34
1307,1.306999,5418,7032992,-191.2,1137.53,-5855.34
1308,1.308000,5419,7033993,-1108.2,786.53,-6335.34
1309,1.309000,5420,7034993,-2087.2,-145.47,-6539.34
1310,1.310000,5421,7035993,2911.8,-1396.47,-4961.34
1311,1.311000,5422,7036993,11108.8,-286.47,-5966.34
1312,1.312000,5423,7037993,14280.8,1000.53,-6248.34
1313,1.313000,5424,7038993,14671.8,-562.47,-948.3400000000001
1314,1.314000,5425,7039993,9487.8,-1511.47,4034.66
1315,1.315000,5426,7040993,-274.2,-100.47,5289.66
1316,1.316000,5427,7041993,-7335.2,905.53,3318.66
1317,1.316999,5428,7042992,-8461.2,517.53,1482.6599999999999
1318,1.318000,5429,7043993,-1661.2,280.53,919.6599999999999
1319,1.318999,5430,7044992,3920.8,-130.47,995.6599999999999
1320,1.319999,5431,7045992,4533.8,-297.47,2233.66
1321,1.320999,5432,7046992,585.8,-1810.47,2543.66
1322,1.322000,5433,7047993,-5094.2,-4015.47,6311.66
1323,1.323000,5434,7048993,-13172.2,-3006.47,8547.66
1324,1.324000,5435,7049993,-26254.2,146.53,406.65999999999985
1325,1.325000,5436,7050993,-26185.2,2953.53,-5955.34
1326,1.326000,5437,7051993,-19374.2,2526.53,-3857.34
1327,1.327000,5438,7052993,-3514.2,538.53,3213.66
1328,1.328000,5439,7053993,9993.8,-461.47,8225.66
1329,1.329000,5440,7054993,17066.8,-198.47,6225.66
1330,1.330000,5441,7055993,18984.8,910.53,1256.6599999999999
1331,1.331000,5442,7056993,11737.8,942.53,-3556.34
1332,1.332000,5443,7057993,3355.8,1294.53,-6033.34
1333,1.333000,5444,7058993,-1719.2,1187.53,-5522.34
1334,1.334000,5445,7059993,-1077.2,462.53,-6650.34
1335,1.335000,5446,7060993,-1055.2,-642.47,-6577.34
1336,1.336000,5447,7061993,5399.8,-1393.47,-4736.34
1337,1.337000,5448,7062993,11712.8,481.53,-6583.34
1338,1.338000,5449,7063993,14955.8,830.53,-4945.34
1339,1.338999,5450,7064992,14198.8,-1204.47,1191.6599999999999
1340,1.340000,5451,7065993,6770.8,-1417.47,5173.66
1341,1.341000,5452,7066993,-2608.2,474.53,5159.66
1342,1.342000,5453,7067993,-8277.2,1176.53,2187.66
1343,1.343000,5454,7068993,-7154.2,122.53,1202.6599999999999
1344,1.343999,5455,7069992,-494.2,140.53,1176.6599999999999
1345,1.345000,5456,7070993,4457.8,-187.47,1518.6599999999999
1346,1.346000,5457,7071993,4438.8,-824.47,2143.66
1347,1.347000,5458,7072993,-1627.2,-2249.47,3135.66
1348,1.348000,5459,7073993,-6768.2,-4176.47,7903.66
1349,1.349000,5460,7074993,-18425.2,-2148.47,6567.66
1350,1.350000,5461,7075993,-27358.2,1335.53,-2304.34
1351,1.351000,5462,7076993,-24172.2,3098.53,-5925.34
1352,1.352000,5463,7077993,-15778.2,1973.53,-1592.3400000000001
1353,1.353000,5464,7078993,2296.8,-79.47,5465.66
1354,1.353999,5465,7079992,12797.8,-385.47,8127.66
1355,1.355000,5466,7080993,19257.8,366.53,4569.66
1356,1.356000,5467,7081993,17635.8,814.53,-754.3400000000001
1357,1.356999,5468,7082992,8524.8,846.53,-4324.34
1358,1.358000,5469,7083993,653.8,1449.53,-6206.34
1359,1.359000,5470,7084993,-1585.2,986.53,-5946.34
1360,1.360000,5471,7085993,-1219.2,56.53,-6920.34
1361,1.361000,5472,7086993,423.8,-1183.47,-6027.34
1362,1.362000,5473,7087993,8391.8,-881.47,-4770.34
1363,1.363000,5474,7088993,13295.8,777.53,-6814.34
1364,1.364000,5475,7089993,15063.8,289.53,-3240.34
1365,1.365000,5476,7090993,11635.8,-1257.47,2949.66
1366,1.366000,5477,7091993,3379.8,-837.47,5529.66
1367,1.366999,5478,7092992,-5080.2,723.53,4576.66
1368,1.368000,5479,7093993,-8751.2,714.53,1756.6599999999999
1369,1.369000,5480,7094993,-4326.2,175.53,1147.6599999999999
1370,1.370000,5481,7095993,734.8,336.53,949.6599999999999
1371,1.371000,5482,7096993,5253.8,-242.47,1870.6599999999999
1372,1.372000,5483,7097993,2893.8,-1473.47,2359.66
1373,1.373000,5484,7098993,-3996.2,-3189.47,4719.66
1374,1.374000,5485,7099993,-9101.2,-3880.47,8724.66
1375,1.374999,5486,7100992,-23705.2,-939.47,3413.66
1376,1.376000,5487,7101993,-26314.2,2409.53,-4575.34
1377,1.377000,5488,7102993,-21981.2,2819.53,-5361.34
1378,1.378000,5489,7103993,-9937.2,1301.53,882.6599999999999
1379,1.379000,5490,7104993,6032.8,-110.47,7083.66
1380,1.379999,5491,7105992,15209.8,-580.47,7446.66
1381,1.381000,5492,7106993,21529.8,178.53,3284.66
1382,1.382000,5493,7107993,14031.8,1144.53,-2495.34
1383,1.382999,5494,7108992,5173.8,1315.53,-5258.34
1384,1.383999,5495,7109992,-281.2,1012.53,-5939.34
1385,1.385000,5496,7110993,-1221.2,895.53,-6506.34
1386,1.386000,5497,7111993,-2050.2,-102.47,-6790.34
1387,1.387000,5498,7112993,2774.8,-1641.47,-5345.34
1388,1.388000,5499,7113993,10890.8,-82.47,-5741.34
1389,1.389000,5500,7114993,14203.8,828.53,-6008.34
1390,1.390000,5501,7115993,14520.8,-491.47,-1077.3400000000001
1391,1.390999,5502,7116992,9438.8,-1382.47,4563.66
1392,1.392000,5503,7117993,314.8,-405.47,5693.66
1393,1.393000,5504,7118993,-7315.2,1035.53,3291.66
1394,1.394000,5505,7119993,-8614.2,602.53,1484.6599999999999
1395,1.395000,5506,7120993,-1939.2,228.53,792.6599999999999
1396,1.396000,5507,7121993,2872.8,243.53,1227.6599999999999
1397,1.396999,5508,7122992,4969.8,-679.47,2192.66
1398,1.398000,5509,7123993,965.8,-1979.47,2566.66
1399,1.399000,5510,7124993,-5623.2,-3579.47,6392.66
1400,1.399999,5511,7125992,-13454.2,-3333.47,8127.66
1401,1.400999,5512,7126992,-25778.2,363.53,373.65999999999985
1402,1.402000,5513,7127993,-26457.2,2955.53,-5754.34
1403,1.403000,5514,7128993,-18970.2,2256.53,-3985.34
1404,1.404000,5515,7129993,-3253.2,738.53,3440.66
1405,1.405000,5516,7130993,10149.8,-594.47,7904.66
1406,1.406000,5517,7131993,18101.8,-261.47,6023.66
1407,1.407000,5518,7132993,18429.8,841.53,1267.6599999999999
1408,1.408000,5519,7133993,11811.8,939.53,-3978.34
1409,1.408999,5520,7134992,2928.8,1307.53,-5642.34
1410,1.410000,5521,7135993,-2037.2,1098.53,-5519.34
1411,1.411000,5522,7136993,-1254.2,684.53,-6908.34
1412,1.412000,5523,7137993,-955.2,-722.47,-6241.34
1413,1.412999,5524,7138992,6547.8,-1528.47,-4498.34
1414,1.414000,5525,7139993,12388.8,576.53,-6772.34
1415,1.415000,5526,7140993,14321.8,861.53,-4910.34
1416,1.416000,5527,7141993,13602.8,-1195.47,1363.6599999999999
1417,1.417000,5528,7142993,6359.8,-1359.47,5271.66
1418,1.418000,5529,7143993,-3018.2,445.53,5209.66
1419,1.419000,5530,7144993,-8170.2,963.53,2318.66
1420,1.420000,5531,7145993,-6984.2,193.53,1046.6599999999999
1421,1.421000,5532,7146993,82.80000000000001,136.53,765.6599999999999
1422,1.421999,5533,7147992,4512.8,-219.47,1719.6599999999999
1423,1.423000,5534,7148993,3934.8,-781.47,2100.66
1424,1.424000,5535,7149993,-2078.2,-2427.47,3269.66
1425,1.424999,5536,7150992,-7170.2,-4166.47,7999.66
1426,1.426000,5537,7151993,-18529.2,-2064.47,6341.66
1427,1.427000,5538,7152993,-27255.2,1551.53,-2638.34
1428,1.428000,5539,7153993,-24211.2,3140.53,-6126.34
1429,1.429000,5540,7154993,-14662.2,1882.53,-1248.3400000000001
1430,1.429999,5541,7155992,2279.8,-44.47,5921.66
1431,1.431000,5542,7156993,13422.8,-501.47,8249.66
1432,1.431999,5543,7157992,19841.8,282.53,4463.66
1433,1.433000,5544,7158993,17300.8,917.53,-1008.3400000000001
1434,1.433999,5545,7159992,8214.8,892.53,-4638.34
1435,1.435000,5546,7160993,-458.2,1366.53,-5945.34
1436,1.436000,5547,7161993,-1597.2,1006.53,-6218.34
1437,1.437000,5548,7162993,-1071.2,48.53,-7094.34
1438,1.438000,5549,7163993,694.8,-1198.47,-5794.34
1439,1.439000,5550,7164993,8743.8,-903.47,-4883.34
1440,1.440000,5551,7165993,13774.8,848.53,-6678.34
1441,1.441000,5552,7166993,14861.8,336.53,-3111.34
1442,1.442000,5553,7167993,11068.8,-1277.47,3122.66
1443,1.443000,5554,7168993,3156.8,-949.47,5690.66
1444,1.444000,5555,7169993,-5105.2,689.53,4675.66
1445,1.445000,5556,7170993,-8720.2,961.53,1677.6599999999999
1446,1.446000,5557,7171993,-4529.2,41.53,980.6599999999999
1447,1.446999,5558,7172992,1814.8,176.53,906.6599999999999
1448,1.448000,5559,7173993,5199.8,-21.47,1834.6599999999999
1449,1.449000,5560,7174993,1759.8,-1481.47,2248.66
1450,1.450000,5561,7175993,-3775.2,-3287.47,4771.66
1451,1.451000,5562,7176993,-9627.2,-3857.47,8916.66
1452,1.451999,5563,7177992,-23182.2,-1027.47,3336.66
1453,1.453000,5564,7178993,-26575.2,2511.53,-4727.34
1454,1.454000,5565,7179993,-21964.2,2912.53,-5516.34
1455,1.455000,5566,7180993,-9294.2,1215.53,931.6599999999999
1456,1.455999,5567,7181992,6005.8,-199.47,7278.66
1457,1.457000,5568,7182993,16268.8,-519.47,7381.66
1458,1.458000,5569,7183993,20552.8,293.53,3141.66
1459,1.458999,5570,7184992,14261.8,1105.53,-2412.34
1460,1.460000,5571,7185993,5370.8,1291.53,-5358.34
1461,1.461000,5572,7186993,-817.2,1032.53,-5753.34
1462,1.462000,5573,7187993,-1399.2,884.53,-6583.34
1463,1.463000,5574,7188993,-1998.2,-184.47,-6789.34
1464,1.464000,5575,7189993,3594.8,-1563.47,-5086.34
1465,1.465000,5576,7190993,11172.8,-152.47,-5976.34
1466,1.466000,5577,7191993,14450.8,810.53,-6031.34
1467,1.467000,5578,7192993,14319.8,-402.47,-894.3400000000001
1468,1.467999,5579,7193992,8380.8,-1406.47,4410.66
1469,1.469000,5580,7194993,-381.2,-325.47,5646.66
1470,1.470000,5581,7195993,-6649.2,931.53,3682.66
1471,1.471000,5582,7196993,-8157.2,477.53,1432.6599999999999
1472,1.471999,5583,7197992,-2147.2,363.53,617.6599999999999
1473,1.473000,5584,7198993,3565.8,74.53,1381.6599999999999
1474,1.474000,5585,7199993,4678.8,-561.47,2137.66
1475,1.475000,5586,7200993,-268.2,-1801.47,2513.66
1476,1.476000,5587,7201993,-5485.2,-3941.47,6533.66
1477,1.477000,5588,7202993,-13454.2,-3091.47,8237.66
1478,1.478000,5589,7203993,-25955.2,445.53,58.659999999999854
1479,1.479000,5590,7204993,-26021.2,2926.53,-6100.34
1480,1.480000,5591,7205993,-19024.2,2550.53,-3620.34
1481,1.481000,5592,7206993,-2415.2,400.53,3872.66
1482,1.482000,5593,7207993,10661.8,-667.47,8171.66
1483,1.483000,5594,7208993,17517.8,107.53,5836.66
1484,1.483999,5595,7209992,18834.8,795.53,829.6599999999999
1485,1.484999,5596,7210992,11515.8,759.53,-4079.34
1486,1.485999,5597,7211992,2503.8,1386.53,-5856.34
1487,1.486999,5598,7212992,-1806.2,1117.53,-5639.34
1488,1.488000,5599,7213993,-1147.2,481.53,-6724.34
1489,1.489000,5600,7214993,-1069.2,-749.47,-6145.34
1490,1.490000,5601,7215993,6448.8,-1464.47,-4529.34
1491,1.491000,5602,7216993,11773.8,719.53,-6894.34
1492,1.492000,5603,7217993,15691.8,609.53,-4549.34
1493,1.492999,5604,7218992,13390.8,-1135.47,1617.6599999999999
1494,1.494000,5605,7219993,5433.8,-1184.47,5143.66
1495,1.495000,5606,7220993,-2689.2,170.53,5230.66
1496,1.496000,5607,7221993,-8820.2,1102.53,2137.66
1497,1.497000,5608,7222993,-6183.2,219.53,965.6599999999999
1498,1.498000,5609,7223993,-600.2,306.53,673.6599999999999
1499,1.499000,5610,7224993,4356.8,-40.47,1536.6599999999999
1500,1.500000,5611,7225993,4892.8,-1131.47,2374.66
1501,1.501000,5612,7226993,-1960.2,-2597.47,3749.66
1502,1.502000,5613,7227993,-7064.2,-4027.47,8239.66
1503,1.503000,5614,7228993,-19777.2,-1964.47,5963.66
1504,1.504000,5615,7229993,-26839.2,1639.53,-3009.34
1505,1.505000,5616,7230993,-24145.2,3083.53,-6261.34
1506,1.506000,5617,7231993,-14631.2,1855.53,-1397.3400000000001
1507,1.507000,5618,7232993,2335.8,-89.47,5976.66
1508,1.508000,5619,7233993,13248.8,-456.47,8227.66
1509,1.509000,5620,7234993,20596.8,210.53,4610.66
1510,1.509999,5621,7235992,17258.8,786.53,-1123.3400000000001
1511,1.511000,5622,7236993,8230.8,1157.53,-4818.34
1512,1.512000,5623,7237993,-580.2,1363.53,-5994.34
1513,1.513000,5624,7238993,-1144.2,908.53,-5903.34
1514,1.513999,5625,7239992,-1582.2,56.53,-6767.34
1515,1.515000,5626,7240993,501.8,-1154.47,-6111.34
1516,1.516000,5627,7241993,9105.8,-888.47,-4849.34
1517,1.517000,5628,7242993,13798.8,818.53,-6597.34
1518,1.517999,5629,7243992,14638.8,341.53,-2972.34
1519,1.519000,5630,7244993,11308.8,-1411.47,3320.66
1520,1.520000,5631,7245993,2869.8,-921.47,5549.66
1521,1.520999,5632,7246992,-5394.2,782.53,4298.66
1522,1.522000,5633,7247993,-8693.2,1010.53,1578.6599999999999
1523,1.523000,5634,7248993,-4809.2,33.53,1160.6599999999999
1524,1.524000,5635,7249993,2134.8,-2.469999999999999,1155.6599999999999
1525,1.525000,5636,7250993,4955.8,-73.47,1768.6599999999999
1526,1.526000,5637,7251993,2421.8,-1285.47,2168.66
1527,1.527000,5638,7252993,-4115.2,-3304.47,4819.66
1528,1.528000,5639,7253993,-9343.2,-3881.47,8711.66
1529,1.528999,5640,7254992,-23842.2,-767.47,3149.66
1530,1.530000,5641,7255993,-27200.2,2387.53,-4648.34
1531,1.531000,5642,7256993,-21480.2,2825.53,-5224.34
1532,1.532000,5643,7257993,-8806.2,1362.53,1212.6599999999999
1533,1.533000,5644,7258993,6948.8,-355.47,7324.66
1534,1.534000,5645,7259993,16098.8,-534.47,7027.66
1535,1.535000,5646,7260993,20590.8,450.53,2894.66
1536,1.536000,5647,7261993,13377.8,997.53,-2562.34
1537,1.537000,5648,7262993,4845.8,1327.53,-5567.34
1538,1.538000,5649,7263993,-877.2,1161.53,-5873.34
1539,1.539000,5650,7264993,-1300.2,785.53,-6383.34
1540,1.540000,5651,7265993,-1886.2,-260.47,-6447.34
1541,1.540999,5652,7266992,4345.8,-1614.47,-4873.34
1542,1.542000,5653,7267993,11261.8,25.53,-6081.34
1543,1.543000,5654,7268993,14523.8,1027.53,-6051.34
1544,1.544000,5655,7269993,14074.8,-720.47,-437.34000000000015
1545,1.545000,5656,7270993,8333.8,-1325.47,4414.66
1546,1.546000,5657,7271993,-46.19999999999999,-101.47,5615.66
1547,1.546999,5658,7272992,-7880.2,787.53,3304.66
1548,1.547999,5659,7273992,-7495.2,413.53,1339.6599999999999
1549,1.548999,5660,7274992,-1928.2,290.53,809.6599999999999
1550,1.550000,5661,7275993,3185.8,49.53,903.6599999999999
1551,1.550999,5662,7276992,4765.8,-680.47,2331.66
1552,1.552000,5663,7277993,-433.2,-1914.47,2806.66
1553,1.553000,5664,7278993,-5143.2,-3914.47,6670.66
1554,1.554000,5665,7279993,-14333.2,-3064.47,8159.66
1555,1.555000,5666,7280993,-25963.2,609.53,-224.34000000000015
1556,1.556000,5667,7281993,-25645.2,3081.53,-6232.34
1557,1.557000,5668,7282993,-18524.2,2434.53,-3461.34
1558,1.558000,5669,7283993,-2078.2,345.53,4193.66
1559,1.559000,5670,7284993,10618.8,-589.47,8418.66
1560,1.560000,5671,7285993,17891.8,87.53,5781.66
1561,1.561000,5672,7286993,18561.8,876.53,537.6599999999999
1562,1.562000,5673,7287993,11432.8,824.53,-3867.34
1563,1.563000,5674,7288993,2395.8,1302.53,-5958.34
1564,1.564000,5675,7289993,-1881.2,1136.53,-5554.34
1565,1.565000,5676,7290993,-1274.2,427.53,-6804.34
1566,1.566000,5677,7291993,-987.2,-757.47,-6748.34
1567,1.567000,5678,7292993,5879.8,-1392.47,-4519.34
1568,1.568000,5679,7293993,11955.8,498.53,-6622.34
1569,1.569000,5680,7294993,15549.8,903.53,-4787.34
1570,1.570000,5681,7295993,13536.8,-1251.47,1788.6599999999999
1571,1.571000,5682,7296993,6257.8,-1343.47,5337.66
1572,1.572000,5683,7297993,-3318.2,646.53,5039.66
1573,1.573000,5684,7298993,-8742.2,1030.53,2112.66
1574,1.573999,5685,7299992,-6230.2,144.53,1259.6599999999999
1575,1.575000,5686,7300993,-429.2,227.53,1237.6599999999999
1576,1.576000,5687,7301993,4388.8,-51.47,1322.6599999999999
1577,1.577000,5688,7302993,4374.8,-1159.47,2131.66
1578,1.578000,5689,7303993,-1430.2,-2685.47,3556.66
1579,1.579000,5690,7304993,-7296.2,-3838.47,7869.66
1580,1.580000,5691,7305993,-20153.2,-1949.47,5871.66
1581,1.581000,5692,7306993,-27095.2,1397.53,-2681.34
1582,1.582000,5693,7307993,-24278.2,3133.53,-6012.34
1583,1.583000,5694,7308993,-14090.2,1826.53,-1308.3400000000001
1584,1.584000,5695,7309993,2985.8,-144.47,5991.66
1585,1.584999,5696,7310992,13551.8,-419.47,8060.66
1586,1.585999,5697,7311992,20382.8,332.53,4445.66
1587,1.587000,5698,7312993,16968.8,845.53,-967.3400000000001
1588,1.588000,5699,7313993,7810.8,1084.53,-4774.34
1589,1.589000,5700,7314993,-433.2,1444.53,-5896.34
1590,1.590000,5701,7315993,-1231.2,858.53,-5896.34
1591,1.591000,5702,7316993,-1502.2,-23.47,-6849.34
1592,1.592000,5703,7317993,666.8,-1160.47,-5765.34
1593,1.593000,5704,7318993,9328.8,-775.47,-5060.34
1594,1.594000,5705,7319993,13950.8,794.53,-6776.34
1595,1.595000,5706,7320993,14681.8,219.53,-2754.34
1596,1.596000,5707,7321993,10875.8,-1383.47,3292.66
1597,1.596999,5708,7322992,2252.8,-792.47,5418.66
1598,1.598000,5709,7323993,-5233.2,690.53,4368.66
1599,1.599000,5710,7324993,-8695.2,813.53,1791.6599999999999
1600,1.600000,5711,7325993,-4514.2,310.53,995.6599999999999
1601,1.600999,5712,7326992,2476.8,35.53,1003.6599999999999
1602,1.602000,5713,7327993,4995.8,-222.47,1970.6599999999999
1603,1.603000,5714,7328993,2161.8,-1405.47,2373.66
1604,1.604000,5715,7329993,-3872.2,-3362.47,5075.66
1605,1.605000,5716,7330993,-9833.2,-3677.47,8603.66
1606,1.605999,5717,7331992,-24007.2,-739.47,2686.66
1607,1.607000,5718,7332993,-27087.2,2516.53,-4885.34
1608,1.608000,5719,7333993,-21505.2,2808.53,-5135.34
1609,1.609000,5720,7334993,-8454.2,1124.53,1411.6599999999999
1610,1.610000,5721,7335993,6982.8,-334.47,7585.66
1611,1.611000,5722,7336993,16251.8,-600.47,6971.66
1612,1.612000,5723,7337993,20510.8,519.53,2658.66
1613,1.612999,5724,7338992,13099.8,1135.53,-2627.34
1614,1.614000,5725,7339993,4886.8,1261.53,-5676.34
1615,1.615000,5726,7340993,-857.2,1153.53,-5573.34
1616,1.615999,5727,7341992,-1269.2,714.53,-6313.34
1617,1.617000,5728,7342993,-1954.2,-155.47,-6784.34
1618,1.618000,5729,7343993,3865.8,-1467.47,-4905.34
1619,1.619000,5730,7344993,11510.8,-172.47,-5979.34
1620,1.620000,5731,7345993,14759.8,939.53,-5915.34
1621,1.620999,5732,7346992,13971.8,-550.47,-430.34000000000015
1622,1.622000,5733,7347993,8679.8,-1511.47,4459.66
1623,1.623000,5734,7348993,-431.2,-44.47,5434.66
1624,1.624000,5735,7349993,-8331.2,1002.53,3128.66
1625,1.625000,5736,7350993,-7384.2,296.53,1332.6599999999999
1626,1.626000,5737,7351993,-1955.2,229.53,937.6599999999999
1627,1.627000,5738,7352993,3598.8,38.53,1065.6599999999999
1628,1.628000,5739,7353993,5144.8,-448.47,2109.66
1629,1.629000,5740,7354993,-291.2,-2006.47,2650.66
1630,1.630000,5741,7355993,-5044.2,-3996.47,6702.66
1631,1.631000,5742,7356993,-14898.2,-2897.47,8200.66
1632,1.632000,5743,7357993,-25947.2,472.53,-112.34000000000015
1633,1.633000,5744,7358993,-25876.2,3047.53,-6173.34
1634,1.634000,5745,7359993,-18499.2,2391.53,-3581.34
1635,1.635000,5746,7360993,-1900.2,370.53,3829.66
1636,1.635999,5747,7361992,10590.8,-605.47,8382.66
1637,1.637000,5748,7362993,17798.8,34.53,5700.66
1638,1.638000,5749,7363993,18118.8,794.53,575.6599999999999
1639,1.639000,5750,7364993,11800.8,890.53,-3662.34
1640,1.640000,5751,7365993,1944.8,1375.53,-5943.34
1641,1.640999,5752,7366992,-1690.2,1105.53,-5608.34
1642,1.642000,5753,7367993,-1285.2,470.53,-6781.34
1643,1.643000,5754,7368993,-777.2,-797.47,-6438.34
1644,1.644000,5755,7369993,6758.8,-1416.47,-4528.34
1645,1.645000,5756,7370993,11746.8,480.53,-6641.34
1646,1.646000,5757,7371993,15391.8,902.53,-4714.34
1647,1.647000,5758,7372993,13178.8,-1193.47,1608.6599999999999
1648,1.648000,5759,7373993,5899.8,-1272.47,5039.66
1649,1.649000,5760,7374993,-3071.2,423.53,5231.66
1650,1.650000,5761,7375993,-8392.2,1050.53,2323.66
1651,1.651000,5762,7376993,-6482.2,173.53,1023.6599999999999
1652,1.652000,5763,7377993,-391.2,-25.47,1114.6599999999999
1653,1.652999,5764,7378992,4634.8,25.53,1458.6599999999999
1654,1.654000,5765,7379993,3653.8,-844.47,2035.6599999999999
1655,1.655000,5766,7380993,-1189.2,-2685.47,3429.66
1656,1.656000,5767,7381993,-7591.2,-3933.47,8013.66
1657,1.657000,5768,7382993,-19609.2,-1965.47,6151.66
1658,1.658000,5769,7383993,-26531.2,1385.53,-2579.34
1659,1.659000,5770,7384993,-24730.2,3320.53,-6162.34
1660,1.660000,5771,7385993,-13797.2,1760.53,-1222.3400000000001
1661,1.661000,5772,7386993,2847.8,-176.47,6054.66
1662,1.662000,5773,7387993,13462.8,-432.47,8145.66
1663,1.663000,5774,7388993,20140.8,193.53,4226.66
1664,1.664000,5775,7389993,16630.8,984.53,-1131.3400000000001
1665,1.665000,5776,7390993,7732.8,1076.53,-4792.34
1666,1.666000,5777,7391993,-164.2,1306.53,-5981.34
1667,1.667000,5778,7392993,-1517.2,962.53,-6018.34
1668,1.668000,5779,7393993,-1280.2,-30.47,-6810.34
1669,1.668999,5780,7394992,903.8,-1215.47,-5487.34
1670,1.670000,5781,7395993,9051.8,-673.47,-5153.34
1671,1.671000,5782,7396993,13761.8,804.53,-6772.34
1672,1.672000,5783,7397993,14603.8,284.53,-2775.34
1673,1.672999,5784,7398992,11343.8,-1312.47,3354.66
1674,1.674000,5785,7399993,2265.8,-948.47,5587.66
1675,1.675000,5786,7400993,-4996.2,739.53,4389.66
1676,1.676000,5787,7401993,-8600.2,832.53,1633.6599999999999
1677,1.676999,5788,7402992,-4859.2,134.53,856.6599999999999
1678,1.678000,5789,7403993,2303.8,208.53,807.6599999999999
1679,1.679000,5790,7404993,4891.8,-328.47,1866.6599999999999
1680,1.679999,5791,7405992,2581.8,-1399.47,2305.66
1681,1.681000,5792,7406993,-4144.2,-3282.47,4969.66
1682,1.682000,5793,7407993,-9662.2,-3901.47,8898.66
1683,1.683000,5794,7408993,-23283.2,-670.47,3052.66
1684,1.684000,5795,7409993,-26970.2,2536.53,-4984.34
1685,1.685000,5796,7410993,-21555.2,2882.53,-5425.34
1686,1.686000,5797,7411993,-8769.2,1176.53,1395.6599999999999
1687,1.687000,5798,7412993,6356.8,-401.47,7460.66
1688,1.688000,5799,7413993,16008.8,-418.47,7145.66
1689,1.688999,5800,7414992,20268.8,630.53,2828.66
1690,1.690000,5801,7415993,13570.8,992.53,-2611.34
1691,1.691000,5802,7416993,5464.8,1178.53,-5374.34
1692,1.692000,5803,7417993,-1044.2,1098.53,-5642.34
1693,1.693000,5804,7418993,-1128.2,775.53,-6346.34
1694,1.694000,5805,7419993,-2072.2,-142.47,-6864.34
1695,1.694999,5806,7420992,3358.8,-1610.47,-5173.34
1696,1.696000,5807,7421993,11196.8,-202.47,-5865.34
1697,1.697000,5808,7422993,14479.8,1045.53,-6096.34
1698,1.697999,5809,7423992,14091.8,-545.47,-788.3400000000001
1699,1.699000,5810,7424993,9012.8,-1417.47,4556.66
1700,1.700000,5811,7425993,22.80000000000001,-171.47,5609.66
1701,1.701000,5812,7426993,-7392.2,941.53,3246.66
1702,1.702000,5813,7427993,-7940.2,538.53,1375.6599999999999
1703,1.703000,5814,7428993,-2491.2,67.53,1138.6599999999999
1704,1.703999,5815,7429992,3638.8,158.53,1232.6599999999999
1705,1.705000,5816,7430993,4471.8,-538.47,1996.6599999999999
1706,1.706000,5817,7431993,844.8,-2060.47,2689.66
1707,1.707000,5818,7432993,-5559.2,-3630.47,6317.66
1708,1.708000,5819,7433993,-14139.2,-2999.47,7950.66
1709,1.709000,5820,7434993,-25561.2,176.53,156.65999999999985
1710,1.710000,5821,7435993,-26191.2,2987.53,-5809.34
1711,1.711000,5822,7436993,-18664.2,2514.53,-3534.34
1712,1.711999,5823,7437992,-3079.2,329.53,3666.66
1713,1.712999,5824,7438992,11132.8,-469.47,8101.66
1714,1.714000,5825,7439993,17027.8,114.53,5527.66
1715,1.715000,5826,7440993,18717.8,771.53,956.6599999999999
1716,1.716000,5827,7441993,11539.8,860.53,-3607.34
1717,1.717000,5828,7442993,2322.8,1268.53,-5691.34
1718,1.718000,5829,7443993,-1350.2,1136.53,-5748.34
1719,1.719000,5830,7444993,-1345.2,402.53,-6740.34
1720,1.720000,5831,7445993,-1098.2,-595.47,-6209.34
1721,1.721000,5832,7446993,6428.8,-1397.47,-4715.34
1722,1.722000,5833,7447993,11888.8,380.53,-6630.34
1723,1.722999,5834,7448992,14979.8,890.53,-4857.34
1724,1.723999,5835,7449992,13940.8,-1172.47,1318.6599999999999
1725,1.725000,5836,7450993,5614.8,-1357.47,5150.66
1726,1.725999,5837,7451992,-2718.2,371.53,5255.66
1727,1.727000,5838,7452993,-8646.2,1099.53,2242.66
1728,1.728000,5839,7453993,-6843.2,197.53,1106.6599999999999
1729,1.729000,5840,7454993,34.80000000000001,119.53,896.6599999999999
1730,1.729999,5841,7455992,4581.8,-85.47,1469.6599999999999
1731,1.731000,5842,7456993,4452.8,-904.47,2305.66
1732,1.731999,5843,7457992,-1748.2,-2604.47,3499.66
1733,1.733000,5844,7458993,-7084.2,-4039.47,8015.66
1734,1.734000,5845,7459993,-19269.2,-1984.47,6281.66
1735,1.734999,5846,7460992,-26720.2,1461.53,-2722.34
1736,1.736000,5847,7461993,-24220.2,3187.53,-6237.34
1737,1.737000,5848,7462993,-15280.2,1886.53,-1515.3400000000001
1738,1.738000,5849,7463993,2707.8,-114.47,5846.66
1739,1.739000,5850,7464993,13228.8,-586.47,8353.66
1740,1.740000,5851,7465993,19867.8,312.53,4443.66
1741,1.741000,5852,7466993,17287.8,959.53,-912.3400000000001
1742,1.742000,5853,7467993,8007.8,990.53,-4837.34
1743,1.743000,5854,7468993,143.8,1483.53,-6101.34
1744,1.744000,5855,7469993,-1715.2,842.53,-5783.34
1745,1.745000,5856,7470993,-1171.2,32.53,-6761.34
1746,1.746000,5857,7471993,97.80000000000001,-1071.47,-5752.34
1747,1.747000,5858,7472993,8715.8,-897.47,-5001.34
1748,1.748000,5859,7473993,13521.8,867.53,-6669.34
1749,1.749000,5860,7474993,14984.8,328.53,-2982.34
1750,1.750000,5861,7475993,11712.8,-1262.47,2954.66
1751,1.751000,5862,7476993,2686.8,-1031.47,5693.66
1752,1.752000,5863,7477993,-4551.2,725.53,4603.66
1753,1.753000,5864,7478993,-8994.2,905.53,1663.6599999999999
1754,1.754000,5865,7479993,-4705.2,60.53,1016.6599999999999
1755,1.755000,5866,7480993,1611.8,293.53,750.6599999999999
1756,1.756000,5867,7481993,4815.8,-125.47,1761.6599999999999
1757,1.757000,5868,7482993,3422.8,-1500.47,2289.66
1758,1.758000,5869,7483993,-3787.2,-3260.47,4895.66
1759,1.758999,5870,7484992,-9744.2,-3700.47,8672.66
1760,1.760000,5871,7485993,-23333.2,-1088.47,3342.66
1761,1.761000,5872,7486993,-26591.2,2396.53,-4573.34
1762,1.762000,5873,7487993,-21711.2,2928.53,-5389.34
1763,1.763000,5874,7488993,-9524.2,1196.53,822.6599999999999
1764,1.764000,5875,7489993,6219.8,-116.47,7388.66
1765,1.765000,5876,7490993,14948.8,-563.47,7240.66
1766,1.766000,5877,7491993,20875.8,362.53,2867.66
1767,1.767000,5878,7492993,13641.8,1159.53,-2330.34
1768,1.768000,5879,7493993,5278.8,1208.53,-5514.34
1769,1.768999,5880,7494992,-285.2,1127.53,-5508.34
1770,1.769999,5881,7495992,-1333.2,757.53,-6099.34
1771,1.771000,5882,7496993,-1691.2,-134.47,-6840.34
1772,1.772000,5883,7497993,3141.8,-1461.47,-5248.34
1773,1.773000,5884,7498993,10819.8,-221.47,-5748.34
1774,1.774000,5885,7499993,14221.8,963.53,-6108.34
1775,1.775000,5886,7500993,13981.8,-465.47,-1175.3400000000001
1776,1.776000,5887,7501993,9249.8,-1492.47,4252.66
1777,1.777000,5888,7502993,327.8,-240.47,5666.66
1778,1.778000,5889,7503993,-7136.2,1036.53,3295.66
1779,1.779000,5890,7504993,-8037.2,383.53,1458.6599999999999
1780,1.780000,5891,7505993,-2236.2,161.53,1184.6599999999999
1781,1.781000,5892,7506993,3166.8,186.53,1054.6599999999999
1782,1.782000,5893,7507993,4541.8,-464.47,2143.66
1783,1.783000,5894,7508993,784.8,-1956.47,2522.66
1784,1.784000,5895,7509993,-4925.2,-3825.47,6150.66
1785,1.784999,5896,7510992,-12986.2,-3065.47,8166.66
1786,1.786000,5897,7511993,-25700.2,106.53,337.65999999999985
1787,1.787000,5898,7512993,-26457.2,2922.53,-5899.34
1788,1.788000,5899,7513993,-19074.2,2542.53,-3688.34
1789,1.789000,5900,7514993,-3772.2,393.53,3498.66
1790,1.789999,5901,7515992,10331.8,-480.47,8123.66
1791,1.791000,5902,7516993,17146.8,112.53,5809.66
1792,1.792000,5903,7517993,18561.8,802.53,1067.6599999999999
1793,1.793000,5904,7518993,12064.8,888.53,-3441.34
1794,1.794000,5905,7519993,2772.8,1246.53,-5616.34
1795,1.794999,5906,7520992,-1585.2,1102.53,-5658.34
1796,1.796000,5907,7521993,-1377.2,570.53,-6789.34
1797,1.797000,5908,7522993,-1252.2,-568.47,-6270.34
1798,1.797999,5909,7523992,6088.8,-1479.47,-4685.34
1799,1.799000,5910,7524993,11570.8,411.53,-6467.34
1800,1.800000,5911,7525993,14955.8,854.53,-5100.34
1801,1.801000,5912,7526993,14177.8,-1127.47,947.6599999999999
1802,1.802000,5913,7527993,6348.8,-1256.47,5103.66
1803,1.803000,5914,7528993,-2537.2,216.53,5350.66
1804,1.804000,5915,7529993,-8714.2,1050.53,2366.66
1805,1.805000,5916,7530993,-6726.2,303.53,1009.6599999999999
1806,1.806000,5917,7531993,-315.2,60.53,869.6599999999999
1807,1.806999,5918,7532992,4384.8,20.53,1306.6599999999999
1808,1.808000,5919,7533993,4828.8,-894.47,2246.66
1809,1.809000,5920,7534993,-1114.2,-2564.47,3541.66
1810,1.810000,5921,7535993,-7004.2,-3909.47,7869.66
1811,1.811000,5922,7536993,-18533.2,-2310.47,6625.66
1812,1.812000,5923,7537993,-26592.2,1334.53,-2239.34
1813,1.813000,5924,7538993,-24512.2,3183.53,-6301.34
1814,1.814000,5925,7539993,-15601.2,1808.53,-1906.3400000000001
1815,1.815000,5926,7540993,1784.8,80.53,5484.66
1816,1.815999,5927,7541992,12383.8,-550.47,8393.66
1817,1.817000,5928,7542993,19341.8,340.53,4687.66
1818,1.818000,5929,7543993,17282.8,854.53,-674.3400000000001
1819,1.819000,5930,7544993,9089.8,899.53,-4542.34
1820,1.820000,5931,7545993,272.8,1616.53,-5998.34
1821,1.821000,5932,7546993,-1428.2,862.53,-5568.34
1822,1.822000,5933,7547993,-1018.2,87.53,-6742.34
1823,1.823000,5934,7548993,-225.2,-925.47,-6029.34
1824,1.823999,5935,7549992,8075.8,-1010.47,-4819.34
1825,1.825000,5936,7550993,13034.8,729.53,-6722.34
1826,1.826000,5937,7551993,15557.8,452.53,-3424.34
1827,1.827000,5938,7552993,11597.8,-1349.47,2769.66
1828,1.828000,5939,7553993,3554.8,-964.47,5431.66
1829,1.829000,5940,7554993,-4440.2,567.53,4646.66
1830,1.830000,5941,7555993,-8342.2,925.53,1803.6599999999999
1831,1.831000,5942,7556993,-5391.2,229.53,1060.6599999999999
1832,1.832000,5943,7557993,540.8,102.53,947.6599999999999
1833,1.833000,5944,7558993,5808.8,-205.47,1717.6599999999999
1834,1.834000,5945,7559993,3033.8,-1350.47,2249.66
1835,1.834999,5946,7560992,-3067.2,-3098.47,4595.66
1836,1.836000,5947,7561993,-9584.2,-3702.47,8462.66
1837,1.837000,5948,7562993,-22535.2,-1098.47,3921.66
1838,1.838000,5949,7563993,-26050.2,1959.53,-4028.34
1839,1.839000,5950,7564993,-22743.2,3072.53,-5667.34
1840,1.840000,5951,7565993,-10725.2,1426.53,549.6599999999999
1841,1.840999,5952,7566992,5622.8,-290.47,7060.66
1842,1.842000,5953,7567993,15108.8,-500.47,7463.66
1843,1.843000,5954,7568993,20993.8,173.53,3369.66
1844,1.843999,5955,7569992,14176.8,1091.53,-2287.34
1845,1.844999,5956,7570992,5345.8,1314.53,-5248.34
1846,1.846000,5957,7571993,-129.2,1140.53,-5992.34
1847,1.847000,5958,7572993,-1349.2,889.53,-6117.34
1848,1.848000,5959,7573993,-1778.2,-68.47,-6521.34
1849,1.849000,5960,7574993,2490.8,-1585.47,-5441.34
1850,1.849999,5961,7575992,10708.8,-257.47,-5519.34
1851,1.851000,5962,7576993,14124.8,1003.53,-6159.34
1852,1.852000,5963,7577993,14440.8,-280.47,-1419.3400000000001
1853,1.853000,5964,7578993,9588.8,-1513.47,4211.66
1854,1.854000,5965,7579993,841.8,-438.47,5525.66
1855,1.855000,5966,7580993,-6968.2,1103.53,3451.66
1856,1.856000,5967,7581993,-8495.2,525.53,1390.6599999999999
1857,1.856999,5968,7582992,-2595.2,49.53,924.6599999999999
1858,1.858000,5969,7583993,2732.8,230.53,1015.6599999999999
1859,1.859000,5970,7584993,5281.8,-450.47,2001.6599999999999
1860,1.860000,5971,7585993,949.8,-1838.47,2537.66
1861,1.861000,5972,7586993,-4967.2,-3661.47,6109.66
1862,1.862000,5973,7587993,-12397.2,-3402.47,8472.66
1863,1.862999,5974,7588992,-25055.2,82.53,917.6599999999999
1864,1.864000,5975,7589993,-26264.2,2835.53,-5776.34
1865,1.865000,5976,7590993,-19735.2,2606.53,-4387.34
1866,1.866000,5977,7591993,-4969.2,752.53,3115.66
1867,1.867000,5978,7592993,9162.8,-643.47,8244.66
1868,1.868000,5979,7593993,17597.8,-236.47,6282.66
1869,1.869000,5980,7594993,18589.8,936.53,1432.6599999999999
1870,1.869999,5981,7595992,12210.8,997.53,-3555.34
1871,1.871000,5982,7596993,3770.8,1191.53,-5672.34
1872,1.872000,5983,7597993,-1631.2,1095.53,-5450.34
1873,1.873000,5984,7598993,-1154.2,585.53,-6542.34
1874,1.874000,5985,7599993,-1285.2,-428.47,-6643.34
1875,1.875000,5986,7600993,5293.8,-1617.47,-4782.34
1876,1.876000,5987,7601993,11580.8,270.53,-6353.34
1877,1.877000,5988,7602993,14592.8,1048.53,-5341.34
1878,1.878000,5989,7603993,13981.8,-1072.47,630.6599999999999
1879,1.879000,5990,7604993,7517.8,-1461.47,5064.66
1880,1.879999,5991,7605992,-1953.2,262.53,5417.66
1881,1.881000,5992,7606993,-8061.2,1133.53,2466.66
1882,1.882000,5993,7607993,-7874.2,233.53,1183.6599999999999
1883,1.882999,5994,7608992,-674.2,1.5300000000000011,1270.6599999999999
1884,1.884000,5995,7609993,4644.8,-48.47,1321.6599999999999
1885,1.885000,5996,7610993,3949.8,-682.47,1968.6599999999999
1886,1.885999,5997,7611992,-551.2,-2355.47,3153.66
1887,1.887000,5998,7612993,-6364.2,-3992.47,7476.66
1888,1.888000,5999,7613993,-17311.2,-2398.47,6961.66
1889,1.889000,6000,7614993,-26491.2,933.53,-1706.3400000000001
1890,1.890000,6001,7615993,-25322.2,3250.53,-6168.34
1891,1.891000,6002,7616993,-16513.2,2138.53,-2228.34
1892,1.892000,6003,7617993,1405.8,-101.47,5184.66
1893,1.893000,6004,7618993,12076.8,-487.47,8185.66
1894,1.894000,6005,7619993,19157.8,327.53,4706.66
1895,1.895000,6006,7620993,17475.8,892.53,-518.3400000000001
1896,1.896000,6007,7621993,9428.8,785.53,-4022.34
1897,1.897000,6008,7622993,773.8,1425.53,-6044.34
1898,1.898000,6009,7623993,-2038.2,1189.53,-5814.34
1899,1.899000,6010,7624993,-849.2,126.53,-6710.34
1900,1.899999,6011,7625992,78.80000000000001,-1088.47,-6275.34
1901,1.900999,6012,7626992,7644.8,-939.47,-4483.34
1902,1.902000,6013,7627993,13074.8,596.53,-6463.34
1903,1.903000,6014,7628993,15063.8,576.53,-3814.34
1904,1.904000,6015,7629993,12025.8,-1284.47,2632.66
1905,1.904999,6016,7630992,4241.8,-1137.47,5174.66
1906,1.906000,6017,7631993,-4734.2,770.53,4475.66
1907,1.907000,6018,7632993,-8265.2,890.53,2007.6599999999999
1908,1.908000,6019,7633993,-5422.2,65.53,1127.6599999999999
1909,1.909000,6020,7634993,515.8,99.53,1069.6599999999999
1910,1.909999,6021,7635992,5360.8,-165.47,1639.6599999999999
1911,1.911000,6022,7636993,3530.8,-1175.47,2144.66
1912,1.912000,6023,7637993,-2966.2,-3015.47,4279.66
1913,1.913000,6024,7638993,-8500.2,-3911.47,8561.66
1914,1.914000,6025,7639993,-22166.2,-1189.47,4343.66
1915,1.915000,6026,7640993,-26603.2,1985.53,-3929.34
1916,1.916000,6027,7641993,-22542.2,3039.53,-5674.34
1917,1.917000,6028,7642993,-11787.2,1472.53,178.65999999999985
1918,1.917999,6029,7643992,5479.8,-217.47,6679.66
1919,1.919000,6030,7644993,14409.8,-558.47,7645.66
1920,1.920000,6031,7645993,20660.8,257.53,3492.66
1921,1.921000,6032,7646993,14952.8,1034.53,-1943.3400000000001
1922,1.922000,6033,7647993,76.80000000000001,1327.53,-6044.34
1923,1.923000,6034,7648993,76.80000000000001,1327.53,-6044.34
1924,1.924000,6035,7649993,-1392.2,-125.47,-6673.34
1925,1.925000,6036,7650993,1670.8,-1347.47,-5471.34
1926,1.926000,6037,7651993,9863.8,-431.47,-5467.34
1927,1.927000,6038,7652993,14173.8,958.53,-6234.34
1928,1.927999,6039,7653992,14450.8,-134.47,-1641.3400000000001
1929,1.929000,6040,7654993,10308.8,-1414.47,3855.66
1930,1.929999,6041,7655992,1538.8,-544.47,5680.66
1931,1.931000,6042,7656993,-6289.2,804.53,3545.66
1932,1.932000,6043,7657993,-8774.2,677.53,1433.6599999999999
1933,1.933000,6044,7658993,-3924.2,210.53,1094.6599999999999
1934,1.934000,6045,7659993,2894.8,78.53,843.6599999999999
1935,1.935000,6046,7660993,5481.8,-316.47,2015.6599999999999
1936,1.936000,6047,7661993,1566.8,-1663.47,2523.66
1937,1.936999,6048,7662992,-4786.2,-3557.47,5671.66
1938,1.938000,6049,7663993,-11344.2,-3417.47,8457.66
1939,1.939000,6050,7664993,-24587.2,-334.47,1672.6599999999999
1940,1.940000,6051,7665993,-27006.2,2688.53,-5367.34
1941,1.941000,6052,7666993,-20374.2,2791.53,-4541.34
1942,1.942000,6053,7667993,-5875.2,830.53,2407.66
1943,1.943000,6054,7668993,8871.8,-569.47,7753.66
1944,1.944000,6055,7669993,16841.8,-201.47,6427.66
1945,1.945000,6056,7670993,18967.8,801.53,1847.6599999999999
1946,1.946000,6057,7671993,12455.8,925.53,-3260.34
1947,1.947000,6058,7672993,4196.8,1264.53,-5486.34
1948,1.948000,6059,7673993,-1463.2,1212.53,-5584.34
1949,1.949000,6060,7674993,-892.2,542.53,-6461.34
1950,1.950000,6061,7675993,-1700.2,-375.47,-6407.34
1951,1.951000,6062,7676993,4899.8,-1446.47,-4908.34
1952,1.952000,6063,7677993,11583.8,170.53,-6138.34
1953,1.953000,6064,7678993,14399.8,935.53,-5433.34
1954,1.954000,6065,7679993,14454.8,-952.47,187.65999999999985
1955,1.955000,6066,7680993,7246.8,-1404.47,4731.66
1956,1.956000,6067,7681993,-1514.2,256.53,5373.66
1957,1.957000,6068,7682993,-7958.2,1079.53,2691.66
1958,1.958000,6069,7683993,-7533.2,122.53,1217.6599999999999
1959,1.959000,6070,7684993,-721.2,64.53,1151.6599999999999
1960,1.960000,6071,7685993,3980.8,-23.47,1316.6599999999999
1961,1.961000,6072,7686993,4196.8,-631.47,2092.66
1962,1.962000,6073,7687993,-258.2,-2228.47,2826.66
1963,1.963000,6074,7688993,-5463.2,-4011.47,7191.66
1964,1.964000,6075,7689993,-16589.2,-2462.47,7234.66
1965,1.965000,6076,7690993,-26541.2,802.53,-1344.3400000000001
1966,1.966000,6077,7691993,-25495.2,3134.53,-6090.34
1967,1.967000,6078,7692993,-17086.2,2222.53,-2530.34
1968,1.967999,6079,7693992,467.8,-37.47,4992.66
1969,1.969000,6080,7694993,11482.8,-576.47,8337.66
1970,1.970000,6081,7695993,18561.8,380.53,5018.66
1971,1.970999,6082,7696992,17864.8,895.53,-239.34000000000015
1972,1.972000,6083,7697993,9790.8,754.53,-4036.34
1973,1.973000,6084,7698993,1101.8,1504.53,-5971.34
1974,1.974000,6085,7699993,-2071.2,1129.53,-5601.34
1975,1.975000,6086,7700993,-423.2,162.53,-6695.34
1976,1.976000,6087,7701993,-138.2,-999.47,-6286.34
1977,1.977000,6088,7702993,6525.8,-1097.47,-4376.34
1978,1.978000,6089,7703993,12573.8,553.53,-6550.34
1979,1.979000,6090,7704993,14952.8,678.53,-4341.34
1980,1.980000,6091,7705993,12647.8,-1063.47,2274.66
1981,1.981000,6092,7706993,5082.8,-1341.47,5365.66
1982,1.982000,6093,7707993,-3804.2,582.53,4588.66
1983,1.983000,6094,7708993,-8354.2,1092.53,2016.6599999999999
1984,1.984000,6095,7709993,-6072.2,77.53,1191.6599999999999
1985,1.985000,6096,7710993,453.8,103.53,1101.6599999999999
1986,1.986000,6097,7711993,5066.8,-118.47,1463.6599999999999
1987,1.987000,6098,7712993,3710.8,-1039.47,2094.66
1988,1.987999,6099,7713992,-2432.2,-2882.47,4107.66
1989,1.989000,6100,7714993,-7463.2,-4071.47,8283.66
1990,1.990000,6101,7715993,-21241.2,-1511.47,5009.66
1991,1.991000,6102,7716993,-27083.2,1790.53,-3476.34
1992,1.991999,6103,7717992,-22971.2,3049.53,-5849.34
1993,1.993000,6104,7718993,-13357.2,1685.53,-454.34000000000015
1994,1.994000,6105,7719993,4414.8,-244.47,6386.66
1995,1.995000,6106,7720993,13935.8,-440.47,7775.66
1996,1.996000,6107,7721993,20544.8,342.53,3829.66
1997,1.996999,6108,7722992,16008.8,921.53,-1419.3400000000001
1998,1.998000,6109,7723993,6407.8,1164.53,-4679.34
1999,1.999000,6110,7724993,23.80000000000001,1369.53,-6034.34
2000,2.000000,6111,7725993,-1213.2,799.53,-5933.34
2001,2.001000,6112,7726993,-1544.2,-115.47,-6717.34
2002,2.002000,6113,7727993,1187.8,-1221.47,-5937.34
2003,2.002999,6114,7728992,9414.8,-684.47,-4918.34
2004,2.004000,6115,7729993,13854.8,867.53,-6353.34
2005,2.004999,6116,7730992,14871.8,98.53,-2533.34
2006,2.006000,6117,7731993,10246.8,-1418.47,3548.66
2007,2.007000,6118,7732993,2398.8,-692.47,5505.66
2008,2.007999,6119,7733992,-5620.2,914.53,4023.66
2009,2.009000,6120,7734993,-9087.2,768.53,1595.6599999999999
2010,2.010000,6121,7735993,-3695.2,-108.47,1302.6599999999999
2011,2.011000,6122,7736993,2000.8,140.53,1184.6599999999999
2012,2.012000,6123,7737993,5355.8,-211.47,1697.6599999999999
2013,2.013000,6124,7738993,2102.8,-1448.47,2260.66
2014,2.014000,6125,7739993,-4295.2,-3429.47,5192.66
2015,2.015000,6126,7740993,-9945.2,-3790.47,8456.66
2016,2.016000,6127,7741993,-24776.2,-383.47,2460.66
2017,2.017000,6128,7742993,-26898.2,2402.53,-4966.34
2018,2.018000,6129,7743993,-20603.2,2759.53,-4873.34
2019,2.019000,6130,7744993,-7927.2,1176.53,1897.6599999999999
2020,2.020000,6131,7745993,8191.8,-651.47,7531.66
2021,2.021000,6132,7746993,16429.8,-259.47,6720.66
2022,2.022000,6133,7747993,19524.8,725.53,2212.66
2023,2.022999,6134,7748992,12835.8,939.53,-2882.34
2024,2.024000,6135,7749993,4013.8,1280.53,-5478.34
2025,2.025000,6136,7750993,-513.2,1080.53,-5754.34
2026,2.025999,6137,7751992,-1033.2,726.53,-6333.34
2027,2.027000,6138,7752993,-1742.2,-376.47,-6365.34
2028,2.027999,6139,7753992,4402.8,-1466.47,-4870.34
2029,2.029000,6140,7754993,10888.8,153.53,-5967.34
2030,2.029999,6141,7755992,14437.8,916.53,-5906.34
2031,2.030999,6142,7756992,14324.8,-747.47,-266.34000000000015
2032,2.032000,6143,7757993,8061.8,-1460.47,4579.66
2033,2.033000,6144,7758993,-278.2,107.53,5327.66
2034,2.033999,6145,7759992,-8006.2,965.53,2957.66
2035,2.034999,6146,7760992,-7964.2,193.53,1345.6599999999999
2036,2.036000,6147,7761993,-1417.2,177.53,1050.6599999999999
2037,2.037000,6148,7762993,4079.8,100.53,1180.6599999999999
2038,2.038000,6149,7763993,4365.8,-657.47,2074.66
2039,2.039000,6150,7764993,-233.2,-1965.47,2647.66
2040,2.040000,6151,7765993,-5078.2,-3860.47,6921.66
2041,2.041000,6152,7766993,-14784.2,-3022.47,7763.66
2042,2.042000,6153,7767993,-25882.2,750.53,-403.34000000000015
2043,2.043000,6154,7768993,-26369.2,3035.53,-6055.34
2044,2.044000,6155,7769993,-17605.2,2259.53,-3422.34
2045,2.045000,6156,7770993,-1805.2,334.53,4203.66
2046,2.046000,6157,7771993,11094.8,-688.47,8373.66
2047,2.047000,6158,7772993,17628.8,191.53,5580.66
2048,2.048000,6159,7773993,17744.8,857.53,435.65999999999985
2049,2.049000,6160,7774993,11528.8,864.53,-4051.34
2050,2.049999,6161,7775992,1885.8,1358.53,-5778.34
2051,2.050999,6162,7776992,-1663.2,1107.53,-5558.34
2052,2.051999,6163,7777992,-694.2,400.53,-6693.34
2053,2.053000,6164,7778993,-1073.2,-851.47,-6229.34
2054,2.054000,6165,7779993,6106.8,-1348.47,-4560.34
2055,2.054999,6166,7780992,11935.8,638.53,-6575.34
2056,2.056000,6167,7781993,15084.8,879.53,-4694.34
2057,2.057000,6168,7782993,13770.8,-1236.47,1618.6599999999999
2058,2.058000,6169,7783993,5327.8,-1319.47,5159.66
2059,2.059000,6170,7784993,-2575.2,409.53,5149.66
2060,2.060000,6171,7785993,-8814.2,1078.53,2210.66
2061,2.061000,6172,7786993,-6595.2,180.53,1048.6599999999999
2062,2.062000,6173,7787993,-259.2,88.53,1063.6599999999999
2063,2.063000,6174,7788993,4391.8,-39.47,1452.6599999999999
2064,2.063999,6175,7789992,4951.8,-968.47,2078.66
2065,2.065000,6176,7790993,-1481.2,-2607.47,3576.66
2066,2.066000,6177,7791993,-7090.2,-3899.47,8097.66
2067,2.067000,6178,7792993,-20002.2,-2082.47,5976.66
2068,2.068000,6179,7793993,-26722.2,1495.53,-2681.34
2069,2.068999,6180,7794992,-24512.2,3226.53,-6108.34
2070,2.070000,6181,7795993,-14188.2,1766.53,-1454.3400000000001
2071,2.071000,6182,7796993,2955.8,-95.47,5937.66
2072,2.072000,6183,7797993,13317.8,-582.47,8158.66
2073,2.073000,6184,7798993,20361.8,386.53,4320.66
2074,2.073999,6185,7799992,16429.8,822.53,-1072.3400000000001
2075,2.075000,6186,7800993,7778.8,1048.53,-4743.34
2076,2.076000,6187,7801993,-435.2,1598.53,-6189.34
2077,2.077000,6188,7802993,-1164.2,849.53,-5726.34
2078,2.078000,6189,7803993,-791.2,62.53,-6500.34
2079,2.079000,6190,7804993,648.8,-1276.47,-5719.34
2080,2.080000,6191,7805993,8661.8,-730.47,-4757.34
2081,2.081000,6192,7806993,13399.8,881.53,-6501.34
2082,2.081999,6193,7807992,14723.8,128.53,-3101.34
2083,2.083000,6194,7808993,11399.8,-1237.47,3171.66
2084,2.084000,6195,7809993,2504.8,-857.47,5494.66
2085,2.085000,6196,7810993,-4976.2,752.53,3923.66
2086,2.086000,6197,7811993,-8528.2,924.53,1682.6599999999999
2087,2.087000,6198,7812993,-4756.2,-101.47,1284.6599999999999
2088,2.088000,6199,7813993,1827.8,168.53,1027.6599999999999
2089,2.089000,6200,7814993,4850.8,-98.47,1822.6599999999999
2090,2.090000,6201,7815993,3033.8,-1562.47,2220.66
2091,2.091000,6202,7816993,-3807.2,-3102.47,4945.66
2092,2.092000,6203,7817993,-9423.2,-3752.47,8587.66
2093,2.093000,6204,7818993,-23465.2,-980.47,3025.66
2094,2.093999,6205,7819992,-27006.2,2549.53,-4683.34
2095,2.095000,6206,7820993,-21661.2,2863.53,-5198.34
2096,2.095999,6207,7821992,-9252.2,1170.53,1234.6599999999999
2097,2.097000,6208,7822993,7080.8,-268.47,7437.66
2098,2.097999,6209,7823992,15496.8,-566.47,7033.66
2099,2.099000,6210,7824993,20627.8,539.53,2825.66
2100,2.100000,6211,7825993,13431.8,1052.53,-2440.34
2101,2.101000,6212,7826993,4745.8,1201.53,-5547.34
2102,2.101999,6213,7827992,-614.2,1218.53,-5665.34
2103,2.103000,6214,7828993,-981.2,589.53,-6202.34
2104,2.104000,6215,7829993,-1587.2,-55.47,-6878.34
2105,2.105000,6216,7830993,3060.8,-1447.47,-5280.34
2106,2.106000,6217,7831993,10878.8,-328.47,-5330.34
2107,2.107000,6218,7832993,14073.8,1138.53,-5995.34
2108,2.108000,6219,7833993,14161.8,-503.47,-1153.3400000000001
2109,2.109000,6220,7834993,9312.8,-1516.47,4592.66
2110,2.109999,6221,7835992,428.8,-232.47,5550.66
2111,2.111000,6222,7836993,-7182.2,1025.53,2953.66
2112,2.112000,6223,7837993,-8454.2,486.53,1302.6599999999999
2113,2.112999,6224,7838992,-2357.2,29.53,1378.6599999999999
2114,2.114000,6225,7839993,3401.8,187.53,1123.6599999999999
2115,2.115000,6226,7840993,4712.8,-483.47,1882.6599999999999
2116,2.115999,6227,7841992,1281.8,-1921.47,2705.66
2117,2.117000,6228,7842993,-4861.2,-3752.47,6222.66
2118,2.117999,6229,7843992,-13351.2,-3115.47,7976.66
2119,2.119000,6230,7844993,-26279.2,298.53,466.65999999999985
2120,2.120000,6231,7845993,-26309.2,2829.53,-5716.34
2121,2.121000,6232,7846993,-18662.2,2589.53,-3842.34
2122,2.122000,6233,7847993,-3986.2,413.53,3459.66
2123,2.123000,6234,7848993,10689.8,-630.47,8103.66
2124,2.124000,6235,7849993,17159.8,160.53,5858.66
2125,2.125000,6236,7850993,18345.8,808.53,935.6599999999999
2126,2.126000,6237,7851993,11985.8,880.53,-3380.34
2127,2.127000,6238,7852993,2437.8,1324.53,-5673.34
2128,2.128000,6239,7853993,-1087.2,1156.53,-5722.34
2129,2.129000,6240,7854993,-927.2,466.53,-6476.34
2130,2.129999,6241,7855992,-1379.2,-680.47,-6412.34
2131,2.130999,6242,7856992,6125.8,-1469.47,-4597.34
2132,2.132000,6243,7857993,11314.8,311.53,-6232.34
2133,2.133000,6244,7858993,14280.8,985.53,-5395.34
2134,2.134000,6245,7859993,14174.8,-1037.47,853.6599999999999
2135,2.135000,6246,7860993,6189.8,-1486.47,5127.66
2136,2.136000,6247,7861993,-1669.2,355.53,5262.66
2137,2.136999,6248,7862992,-8434.2,1090.53,2443.66
2138,2.138000,6249,7863993,-7058.2,215.53,1118.6599999999999
2139,2.139000,6250,7864993,-406.2,75.53,1244.6599999999999
2140,2.140000,6251,7865993,4116.8,-94.47,1364.6599999999999
2141,2.141000,6252,7866993,4761.8,-809.47,2043.6599999999999
2142,2.141999,6253,7867992,-1072.2,-2522.47,3311.66
2143,2.142999,6254,7868992,-6214.2,-3817.47,7569.66
2144,2.144000,6255,7869993,-18782.2,-2211.47,6438.66
2145,2.145000,6256,7870993,-26184.2,1010.53,-2078.34
2146,2.146000,6257,7871993,-25248.2,3280.53,-6024.34
2147,2.147000,6258,7872993,-16105.2,1971.53,-2019.3400000000001
2148,2.148000,6259,7873993,2245.8,-207.47,5418.66
2149,2.149000,6260,7874993,12301.8,-491.47,8453.66
2150,2.150000,6261,7875993,19675.8,367.53,4638.66
2151,2.151000,6262,7876993,17262.8,820.53,-731.3400000000001
2152,2.152000,6263,7877993,8636.8,942.53,-4409.34
2153,2.153000,6264,7878993,396.8,1592.53,-6198.34
2154,2.154000,6265,7879993,-1599.2,1027.53,-5641.34
2155,2.155000,6266,7880993,-506.2,-0.46999999999999886,-6501.34
2156,2.156000,6267,7881993,147.8,-1163.47,-5991.34
2157,2.157000,6268,7882993,7410.8,-946.47,-4400.34
2158,2.158000,6269,7883993,12717.8,819.53,-6635.34
2159,2.159000,6270,7884993,14684.8,504.53,-3839.34
2160,2.160000,6271,7885993,12470.8,-1348.47,2867.66
2161,2.161000,6272,7886993,4065.8,-1210.47,5490.66
2162,2.162000,6273,7887993,-4708.2,784.53,4176.66
2163,2.163000,6274,7888993,-8588.2,1059.53,1696.6599999999999
2164,2.164000,6275,7889993,-5416.2,32.53,1267.6599999999999
2165,2.165000,6276,7890993,602.8,183.53,1116.6599999999999
2166,2.166000,6277,7891993,5400.8,-126.47,1647.6599999999999
2167,2.167000,6278,7892993,3870.8,-1263.47,2184.66
2168,2.168000,6279,7893993,-2830.2,-3034.47,4608.66
2169,2.169000,6280,7894993,-8599.2,-3902.47,8456.66
2170,2.170000,6281,7895993,-22326.2,-1234.47,4018.66
2171,2.171000,6282,7896993,-27155.2,2115.53,-4082.34
2172,2.171999,6283,7897992,-23048.2,3078.53,-5811.34
2173,2.172999,6284,7898992,-10814.2,1359.53,311.65999999999985
2174,2.173999,6285,7899992,5365.8,-419.47,6948.66
2175,2.175000,6286,7900993,15055.8,-470.47,7547.66
2176,2.175999,6287,7901992,20538.8,382.53,3345.66
2177,2.176999,6288,7902992,14647.8,931.53,-2135.34
2178,2.178000,6289,7903993,5763.8,1339.53,-5038.34
2179,2.179000,6290,7904993,-920.2,1367.53,-6023.34
2180,2.179999,6291,7905992,-620.2,811.53,-5908.34
2181,2.181000,6292,7906993,-1312.2,-165.47,-6389.34
2182,2.182000,6293,7907993,1948.8,-1481.47,-5465.34
2183,2.182999,6294,7908992,10103.8,-407.47,-5223.34
2184,2.184000,6295,7909993,13747.8,1001.53,-6188.34
2185,2.185000,6296,7910993,13876.8,-99.47,-2125.34
2186,2.186000,6297,7911993,10339.8,-1543.47,4084.66
2187,2.187000,6298,7912993,1526.8,-450.47,5741.66
2188,2.188000,6299,7913993,-6221.2,933.53,3161.66
2189,2.189000,6300,7914993,-8491.2,639.53,1387.6599999999999
2190,2.190000,6301,7915993,-3715.2,37.53,1331.6599999999999
2191,2.190999,6302,7916992,2597.8,132.53,1237.6599999999999
2192,2.192000,6303,7917993,5056.8,-325.47,1809.6599999999999
2193,2.193000,6304,7918993,2180.8,-1795.47,2466.66
2194,2.194000,6305,7919993,-4529.2,-3366.47,5786.66
2195,2.195000,6306,7920993,-11402.2,-3450.47,8162.66
2196,2.196000,6307,7921993,-24946.2,-271.47,1400.6599999999999
2197,2.197000,6308,7922993,-27392.2,2840.53,-5434.34
2198,2.198000,6309,7923993,-19898.2,2594.53,-4276.34
2199,2.199000,6310,7924993,-6072.2,708.53,2784.66
2200,2.200000,6311,7925993,9107.8,-482.47,7822.66
2201,2.201000,6312,7926993,17633.8,-154.47,6242.66
2202,2.202000,6313,7927993,19075.8,688.53,1548.6599999999999
2203,2.203000,6314,7928993,11800.8,1022.53,-3181.34
2204,2.204000,6315,7929993,3208.8,1309.53,-5591.34
2205,2.205000,6316,7930993,-838.2,1064.53,-5645.34
2206,2.206000,6317,7931993,-1009.2,677.53,-6558.34
2207,2.207000,6318,7932993,-1272.2,-512.47,-6330.34
2208,2.208000,6319,7933993,5323.8,-1483.47,-4477.34
2209,2.208999,6320,7934992,11243.8,295.53,-6056.34
2210,2.210000,6321,7935993,13919.8,973.53,-5764.34
2211,2.211000,6322,7936993,13961.8,-831.47,324.65999999999985
2212,2.212000,6323,7937993,7383.8,-1482.47,4865.66
2213,2.213000,6324,7938993,-597.2,115.53,5175.66
