row,seconds,esp32_index,micros,ax,ay,az
0,0.000000,4118,5732994,8395.04,367.2,-3580.59
1,0.001000,4119,5733994,7910.04,-740.8,-3273.59
2,0.002000,4120,5734994,494.04,-646.8,-3417.59
3,0.002999,4121,5735993,-1755.96,123.2,-3741.59
4,0.004000,4122,5736994,3715.04,530.2,-5568.59
5,0.005000,4123,5737994,11159.04,241.2,-5666.59
6,0.006000,4124,5738994,18418.04,-399.8,-1075.5900000000001
7,0.007000,4125,5739994,15440.04,-159.8,642.4099999999999
8,0.008000,4126,5740994,2047.04,776.2,-359.59000000000015
9,0.009000,4127,5741994,-7900.96,968.2,1483.4099999999999
10,0.009999,4128,5742993,-7904.96,45.2,3444.41
11,0.011000,4129,5743994,-2001.96,-555.8,3646.41
12,0.012000,4130,5744994,4773.04,-1032.8,4177.41
13,0.013000,4131,5745994,4727.04,-986.8,3221.41
14,0.014000,4132,5746994,-3144.96,-76.8,605.4099999999999
15,0.014999,4133,5747993,-11692.96,-444.8,1264.4099999999999
16,0.016000,4134,5748994,-23815.96,-1534.8,3046.41
17,0.017000,4135,5749994,-24718.96,-531.8,1890.4099999999999
18,0.018000,4136,5750994,-18100.96,478.2,676.4099999999999
19,0.019000,4137,5751994,-5767.96,55.2,2809.41
20,0.020000,4138,5752994,5500.04,31.2,3871.41
21,0.020999,4139,5753993,8968.04,-104.8,2280.41
22,0.022000,4140,5754994,7649.04,474.2,38.409999999999854
23,0.023000,4141,5755994,2471.04,1265.2,-2604.59
24,0.024000,4142,5756994,4827.04,1405.2,-3500.59
25,0.025000,4143,5757994,8323.04,704.2,-3574.59
26,0.026000,4144,5758994,8600.04,-523.8,-3274.59
27,0.026999,4145,5759993,3502.04,-705.8,-3330.59
28,0.028000,4146,5760994,-2359.96,-8.8,-3812.59
29,0.029000,4147,5761994,582.04,442.2,-5069.59
30,0.030000,4148,5762994,9036.04,270.2,-6061.59
31,0.030999,4149,5763993,17676.04,-364.8,-2338.59
32,0.032000,4150,5764994,17960.04,-245.8,615.4099999999999
33,0.033000,4151,5765994,6025.04,469.2,-266.59000000000015
34,0.034000,4152,5766994,-5688.96,998.2,786.4099999999999
35,0.034999,4153,5767993,-9063.96,408.2,3123.41
36,0.036000,4154,5768994,-3983.96,-481.8,3743.41
37,0.036999,4155,5769993,3178.04,-943.8,4006.41
38,0.038000,4156,5770994,5053.04,-988.8,3469.41
39,0.038999,4157,5771993,-1258.96,-448.8,1133.4099999999999
40,0.040000,4158,5772994,-8472.96,-366.8,901.4099999999999
41,0.040999,4159,5773993,-20301.96,-1250.8,2745.41
42,0.042000,4160,5774994,-24729.96,-1027.8,2772.41
43,0.043000,4161,5775994,-21374.96,441.2,740.4099999999999
44,0.044000,4162,5776994,-10664.96,375.2,1753.4099999999999
45,0.045000,4163,5777994,3309.04,14.2,4011.41
46,0.046000,4164,5778994,8985.04,-273.8,3000.41
47,0.047000,4165,5779994,9299.04,378.2,649.4099999999999
48,0.048000,4166,5780994,3012.04,1258.2,-2093.59
49,0.049000,4167,5781994,3965.04,1229.2,-3328.59
50,0.050000,4168,5782994,7855.04,1003.2,-3713.59
51,0.051000,4169,5783994,8698.04,-146.8,-3564.59
52,0.052000,4170,5784994,5605.04,-782.8,-3245.59
53,0.053000,4171,5785994,-2348.96,-121.8,-3702.59
54,0.054000,4172,5786994,-315.96,244.2,-4357.59
55,0.054999,4173,5787993,7064.04,400.2,-6254.59
56,0.056000,4174,5788994,15590.04,-169.8,-3804.59
57,0.056999,4175,5789993,19263.04,-452.8,483.40999999999985
58,0.057999,4176,5790993,9053.04,278.2,78.40999999999985
59,0.059000,4177,5791994,-3378.96,991.2,131.40999999999985
60,0.060000,4178,5792994,-8937.96,709.2,2596.41
61,0.061000,4179,5793994,-5671.96,-205.8,3740.41
62,0.062000,4180,5794994,1449.04,-845.8,3858.41
63,0.063000,4181,5795994,5745.04,-1198.8,4024.41
64,0.063999,4182,5796993,1120.04,-578.8,1878.4099999999999
65,0.065000,4183,5797994,-5644.96,-282.8,642.4099999999999
66,0.065999,4184,5798993,-18732.96,-834.8,2230.41
67,0.067000,4185,5799994,-25672.96,-1253.8,2691.41
68,0.068000,4186,5800994,-21997.96,-3.8000000000000007,1071.4099999999999
69,0.069000,4187,5801994,-14127.96,489.2,1295.4099999999999
70,0.070000,4188,5802994,817.04,-7.800000000000001,3643.41
71,0.070999,4189,5803993,8837.04,-236.8,3460.41
72,0.072000,4190,5804994,9064.04,274.2,1284.4099999999999
73,0.072999,4191,5805993,4170.04,1051.2,-1330.5900000000001
74,0.074000,4192,5806994,3482.04,1157.2,-3040.59
75,0.075000,4193,5807994,6475.04,1257.2,-3652.59
76,0.076000,4194,5808994,8795.04,141.2,-3677.59
77,0.077000,4195,5809994,7327.04,-819.8,-3257.59
78,0.078000,4196,5810994,-1246.96,-460.8,-3585.59
79,0.079000,4197,5811994,-994.96,127.2,-4012.59
80,0.080000,4198,5812994,5339.04,515.2,-5951.59
81,0.081000,4199,5813994,12640.04,194.2,-5087.59
82,0.082000,4200,5814994,19351.04,-420.8,-372.59000000000015
83,0.083000,4201,5815994,13027.04,-6.800000000000001,460.40999999999985
84,0.084000,4202,5816994,-45.96,903.2,-178.59000000000015
85,0.084999,4203,5817993,-8478.96,839.2,2015.4099999999999
86,0.086000,4204,5818994,-7334.96,-91.8,3623.41
87,0.087000,4205,5819994,-866.96,-678.8,3787.41
88,0.088000,4206,5820994,5031.04,-1130.8,4134.41
89,0.088999,4207,5821993,3461.04,-805.8,2624.41
90,0.090000,4208,5822994,-4015.96,-26.8,451.40999999999985
91,0.091000,4209,5823994,-14171.96,-557.8,1723.4099999999999
92,0.092000,4210,5824994,-25340.96,-1475.8,3067.41
93,0.093000,4211,5825994,-23406.96,-384.8,1628.4099999999999
94,0.094000,4212,5826994,-16201.96,456.2,1001.4099999999999
95,0.095000,4213,5827994,-3651.96,132.2,3178.41
96,0.096000,4214,5828994,7126.04,-16.8,3686.41
97,0.097000,4215,5829994,9083.04,8.2,1852.4099999999999
98,0.098000,4216,5830994,6412.04,710.2,-603.5900000000001
99,0.099000,4217,5831994,3263.04,1174.2,-2816.59
100,0.100000,4218,5832994,5154.04,1375.2,-3559.59
101,0.101000,4219,5833994,8286.04,531.2,-3733.59
102,0.102000,4220,5834994,8161.04,-732.8,-3245.59
103,0.103000,4221,5835994,1243.04,-664.8,-3379.59
104,0.104000,4222,5836994,-1746.96,79.2,-3767.59
105,0.105000,4223,5837994,2813.04,544.2,-5458.59
106,0.105999,4224,5838993,10617.04,238.2,-5689.59
107,0.107000,4225,5839994,18257.04,-435.8,-1299.5900000000001
108,0.108000,4226,5840994,16126.04,-147.8,567.4099999999999
109,0.109000,4227,5841994,3198.04,703.2,-431.59000000000015
110,0.110000,4228,5842994,-7438.96,950.2,1328.4099999999999
111,0.111000,4229,5843994,-8078.96,109.2,3442.41
112,0.112000,4230,5844994,-2348.96,-488.8,3574.41
113,0.113000,4231,5845994,4534.04,-1005.8,4137.41
114,0.114000,4232,5846994,4702.04,-1038.8,3303.41
115,0.115000,4233,5847994,-2695.96,-135.8,754.4099999999999
116,0.116000,4234,5848994,-11096.96,-460.8,1287.4099999999999
117,0.117000,4235,5849994,-22750.96,-1537.8,2989.41
118,0.118000,4236,5850994,-24817.96,-590.8,2047.4099999999999
119,0.119000,4237,5851994,-19404.96,518.2,615.4099999999999
120,0.120000,4238,5852994,-6677.96,92.2,2642.41
121,0.121000,4239,5853994,4719.04,115.2,3905.41
122,0.122000,4240,5854994,9167.04,-92.8,2495.41
123,0.123000,4241,5855994,8141.04,390.2,348.40999999999985
124,0.124000,4242,5856994,2403.04,1258.2,-2489.59
125,0.125000,4243,5857994,4611.04,1422.2,-3540.59
126,0.125999,4244,5858993,8052.04,727.2,-3754.59
127,0.126999,4245,5859993,8934.04,-467.8,-3344.59
128,0.127999,4246,5860993,4230.04,-684.8,-3280.59
129,0.129000,4247,5861994,-2095.96,-84.8,-3817.59
130,0.130000,4248,5862994,137.04,449.2,-4949.59
131,0.130999,4249,5863993,8195.04,325.2,-6161.59
132,0.131999,4250,5864993,17185.04,-272.8,-2727.59
133,0.132999,4251,5865993,18271.04,-316.8,632.4099999999999
134,0.134000,4252,5866994,7157.04,334.2,-20.590000000000146
135,0.135000,4253,5867994,-5085.96,1020.2,515.4099999999999
136,0.136000,4254,5868994,-9009.96,474.2,3002.41
137,0.137000,4255,5869994,-4769.96,-342.8,3798.41
138,0.137999,4256,5870993,2669.04,-893.8,3920.41
139,0.139000,4257,5871994,5171.04,-1096.8,3629.41
140,0.140000,4258,5872994,-536.96,-446.8,1265.4099999999999
141,0.141000,4259,5873994,-7314.96,-408.8,999.4099999999999
142,0.142000,4260,5874994,-19912.96,-1182.8,2716.41
143,0.143000,4261,5875994,-25144.96,-1015.8,2667.41
144,0.144000,4262,5876994,-22053.96,357.2,808.4099999999999
145,0.145000,4263,5877994,-11762.96,406.2,1644.4099999999999
146,0.146000,4264,5878994,2822.04,-6.800000000000001,3927.41
147,0.146999,4265,5879993,9302.04,-300.8,3092.41
148,0.148000,4266,5880994,9315.04,348.2,706.4099999999999
149,0.149000,4267,5881994,3498.04,1166.2,-1794.5900000000001
150,0.149999,4268,5882993,3562.04,1226.2,-3234.59
151,0.151000,4269,5883994,7243.04,1118.2,-3857.59
152,0.152000,4270,5884994,8753.04,-57.8,-3596.59
153,0.153000,4271,5885994,6315.04,-836.8,-3201.59
154,0.154000,4272,5886994,-1776.96,-264.8,-3581.59
155,0.155000,4273,5887994,-376.96,254.2,-4294.59
156,0.156000,4274,5888994,6594.04,467.2,-6231.59
157,0.157000,4275,5889994,14653.04,-124.8,-4091.59
158,0.158000,4276,5890994,19214.04,-496.8,266.40999999999985
159,0.159000,4277,5891994,9812.04,230.2,230.40999999999985
160,0.160000,4278,5892994,-2499.96,918.2,69.40999999999985
161,0.161000,4279,5893994,-8855.96,779.2,2394.41
162,0.162000,4280,5894994,-6067.96,-181.8,3747.41
163,0.163000,4281,5895994,844.04,-833.8,3836.41
164,0.164000,4282,5896994,5905.04,-1195.8,4154.41
165,0.165000,4283,5897994,1686.04,-671.8,2073.41
166,0.166000,4284,5898994,-4970.96,-208.8,449.40999999999985
167,0.166999,4285,5899993,-17753.96,-750.8,2081.41
168,0.168000,4286,5900994,-26203.96,-1279.8,2724.41
169,0.169000,4287,5901994,-21993.96,-116.8,1236.4099999999999
170,0.170000,4288,5902994,-14656.96,460.2,1228.4099999999999
171,0.171000,4289,5903994,-186.96,16.2,3543.41
172,0.172000,4290,5904994,8685.04,-217.8,3653.41
173,0.172999,4291,5905993,8908.04,150.2,1481.4099999999999
174,0.174000,4292,5906994,4503.04,963.2,-1151.5900000000001
175,0.174999,4293,5907993,3315.04,1199.2,-3078.59
176,0.176000,4294,5908994,6080.04,1298.2,-3660.59
177,0.177000,4295,5909994,8851.04,227.2,-3630.59
178,0.178000,4296,5910994,7551.04,-787.8,-3293.59
179,0.179000,4297,5911994,-332.96,-587.8,-3478.59
180,0.180000,4298,5912994,-1411.96,90.2,-3824.59
181,0.181000,4299,5913994,4553.04,544.2,-5825.59
182,0.182000,4300,5914994,12131.04,229.2,-5351.59
183,0.183000,4301,5915994,18806.04,-337.8,-664.5900000000001
184,0.184000,4302,5916994,14503.04,-157.8,663.4099999999999
185,0.185000,4303,5917994,870.04,787.2,-253.59000000000015
186,0.186000,4304,5918994,-8391.96,957.2,1725.4099999999999
187,0.187000,4305,5919994,-7585.96,-73.8,3645.41
188,0.188000,4306,5920994,-1445.96,-652.8,3772.41
189,0.189000,4307,5921994,4887.04,-1052.8,4137.41
190,0.190000,4308,5922994,3883.04,-895.8,2739.41
191,0.190999,4309,5923993,-3275.96,-16.8,421.40999999999985
192,0.192000,4310,5924994,-13647.96,-525.8,1609.4099999999999
193,0.192999,4311,5925993,-25040.96,-1635.8,3187.41
194,0.193999,4312,5926993,-23959.96,-459.8,1649.4099999999999
195,0.195000,4313,5927994,-17507.96,542.2,572.4099999999999
196,0.196000,4314,5928994,-4261.96,89.2,3101.41
197,0.196999,4315,5929993,6503.04,-33.8,3927.41
198,0.198000,4316,5930994,9320.04,-4.800000000000001,2037.4099999999999
199,0.198999,4317,5931993,7043.04,640.2,-312.59000000000015
200,0.200000,4318,5932994,2772.04,1183.2,-2773.59
201,0.201000,4319,5933994,5383.04,1382.2,-3516.59
202,0.202000,4320,5934994,8228.04,605.2,-3719.59
203,0.202999,4321,5935993,8268.04,-658.8,-3456.59
204,0.204000,4322,5936994,2061.04,-728.8,-3308.59
205,0.205000,4323,5937994,-1939.96,-9.8,-3709.59
206,0.206000,4324,5938994,2498.04,521.2,-5658.59
207,0.206999,4325,5939993,10188.04,307.2,-6074.59
208,0.207999,4326,5940993,18738.04,-437.8,-1401.5900000000001
209,0.208999,4327,5941993,16913.04,-271.8,740.4099999999999
210,0.209999,4328,5942993,3704.04,733.2,-553.5900000000001
211,0.211000,4329,5943994,-7288.96,1048.2,1117.4099999999999
212,0.211999,4330,5944993,-8364.96,168.2,3391.41
213,0.213000,4331,5945994,-2150.96,-529.8,3767.41
214,0.213999,4332,5946993,4095.04,-994.8,4060.41
215,0.215000,4333,5947994,5063.04,-1020.8,3262.41
216,0.216000,4334,5948994,-2750.96,-230.8,834.4099999999999
217,0.217000,4335,5949994,-11221.96,-397.8,1277.4099999999999
218,0.218000,4336,5950994,-23283.96,-1460.8,3046.41
219,0.219000,4337,5951994,-25532.96,-691.8,1987.4099999999999
220,0.220000,4338,5952994,-19592.96,476.2,611.4099999999999
221,0.221000,4339,5953994,-7165.96,169.2,2635.41
222,0.222000,4340,5954994,4938.04,124.2,4163.41
223,0.223000,4341,5955994,9055.04,-68.8,2712.41
224,0.224000,4342,5956994,8410.04,375.2,444.40999999999985
225,0.225000,4343,5957994,2900.04,1158.2,-2278.59
226,0.226000,4344,5958994,4726.04,1404.2,-3650.59
227,0.227000,4345,5959994,8305.04,833.2,-3934.59
228,0.228000,4346,5960994,9060.04,-488.8,-3525.59
229,0.229000,4347,5961994,3950.04,-764.8,-3514.59
230,0.230000,4348,5962994,-2325.96,-86.8,-3938.59
231,0.231000,4349,5963994,467.04,487.2,-5180.59
232,0.232000,4350,5964994,8705.04,325.2,-6399.59
233,0.233000,4351,5965994,17957.04,-448.8,-2475.59
234,0.234000,4352,5966994,18780.04,-310.8,906.4099999999999
235,0.235000,4353,5967994,6562.04,502.2,-255.59000000000015
236,0.236000,4354,5968994,-5851.96,1072.2,506.40999999999985
237,0.236999,4355,5969993,-9210.96,445.2,3058.41
238,0.238000,4356,5970994,-4107.96,-409.8,3692.41
239,0.238999,4357,5971993,3367.04,-950.8,4024.41
240,0.240000,4358,5972994,5484.04,-1100.8,3739.41
241,0.241000,4359,5973994,-1409.96,-322.8,1258.4099999999999
242,0.242000,4360,5974994,-8835.96,-298.8,1101.4099999999999
243,0.243000,4361,5975994,-21118.96,-1386.8,2932.41
244,0.243999,4362,5976993,-26139.96,-921.8,2537.41
245,0.245000,4363,5977994,-22286.96,501.2,656.4099999999999
246,0.246000,4364,5978994,-10470.96,329.2,2026.4099999999999
247,0.246999,4365,5979993,3464.04,67.2,4193.41
248,0.248000,4366,5980994,9611.04,-232.8,3078.41
249,0.249000,4367,5981994,9787.04,335.2,795.4099999999999
250,0.250000,4368,5982994,3227.04,1098.2,-1905.5900000000001
251,0.251000,4369,5983994,4187.04,1273.2,-3460.59
252,0.252000,4370,5984994,7573.04,1040.2,-4062.59
253,0.252999,4371,5985993,8944.04,-171.8,-3833.59
254,0.253999,4372,5986993,5858.04,-835.8,-3486.59
255,0.255000,4373,5987994,-2070.96,-255.8,-3824.59
256,0.256000,4374,5988994,-88.96000000000001,354.2,-4725.59
257,0.257000,4375,5989994,7423.04,366.2,-6480.59
258,0.257999,4376,5990993,16269.04,-282.8,-3424.59
259,0.259000,4377,5991994,19371.04,-428.8,702.4099999999999
260,0.260000,4378,5992994,8488.04,331.2,-216.59000000000015
261,0.261000,4379,5993994,-3683.96,999.2,131.40999999999985
262,0.261999,4380,5994993,-9050.96,675.2,2819.41
263,0.263000,4381,5995994,-5291.96,-193.8,3670.41
264,0.264000,4382,5996994,2327.04,-871.8,3966.41
265,0.264999,4383,5997993,5530.04,-1237.8,4094.41
266,0.266000,4384,5998994,195.04,-541.8,1747.4099999999999
267,0.267000,4385,5999994,-6996.96,-331.8,789.4099999999999
268,0.268000,4386,6000994,-20150.96,-1008.8,2528.41
269,0.268999,4387,6001993,-26344.96,-1094.8,2782.41
270,0.270000,4388,6002994,-22857.96,181.2,944.4099999999999
271,0.271000,4389,6003994,-13387.96,541.2,1394.4099999999999
272,0.272000,4390,6004994,2132.04,39.2,4080.41
273,0.273000,4391,6005994,9432.04,-297.8,3762.41
274,0.274000,4392,6006994,9794.04,273.2,1277.4099999999999
275,0.275000,4393,6007994,4155.04,1059.2,-1528.5900000000001
276,0.276000,4394,6008994,3540.04,1239.2,-3481.59
277,0.277000,4395,6009994,7065.04,1231.2,-4070.59
278,0.277999,4396,6010993,9304.04,-13.8,-3843.59
279,0.279000,4397,6011994,7001.04,-913.8,-3596.59
280,0.280000,4398,6012994,-1706.96,-414.8,-3819.59
281,0.280999,4399,6013993,-532.96,91.2,-4195.59
282,0.282000,4400,6014994,6234.04,608.2,-6450.59
283,0.282999,4401,6015993,14530.04,-38.8,-4504.59
284,0.283999,4402,6016993,19769.04,-550.8,303.40999999999985
285,0.285000,4403,6017994,11300.04,238.2,326.40999999999985
286,0.286000,4404,6018994,-1925.96,933.2,-122.59000000000015
287,0.287000,4405,6019994,-9076.96,824.2,2314.41
288,0.288000,4406,6020994,-6739.96,-85.8,3806.41
289,0.289000,4407,6021994,597.04,-782.8,3883.41
290,0.289999,4408,6022993,5837.04,-1266.8,4268.41
291,0.290999,4409,6023993,1995.04,-667.8,2356.41
292,0.292000,4410,6024994,-4919.96,-129.8,715.4099999999999
293,0.293000,4411,6025994,-18344.96,-735.8,2184.41
294,0.294000,4412,6026994,-26963.96,-1416.8,2888.41
295,0.295000,4413,6027994,-23456.96,-118.8,1122.4099999999999
296,0.295999,4414,6028993,-15558.96,609.2,1091.4099999999999
297,0.297000,4415,6029994,-380.96,50.2,3787.41
298,0.298000,4416,6030994,9035.04,-192.8,3797.41
299,0.298999,4417,6031993,9934.04,137.2,1582.4099999999999
300,0.299999,4418,6032993,5325.04,765.2,-980.5900000000001
301,0.301000,4419,6033994,3542.04,1184.2,-3127.59
302,0.302000,4420,6034994,5876.04,1370.2,-3898.59
303,0.303000,4421,6035994,8844.04,268.2,-3990.59
304,0.304000,4422,6036994,8102.04,-835.8,-3537.59
305,0.305000,4423,6037994,-1008.96,-617.8,-3591.59
306,0.306000,4424,6038994,-419.96,25.2,-3935.59
307,0.307000,4425,6039994,5178.04,535.2,-6224.59
308,0.307999,4426,6040993,12419.04,124.2,-5310.59
309,0.308999,4427,6041993,19760.04,-569.8,-214.59000000000015
310,0.310000,4428,6042994,13023.04,13.2,406.40999999999985
311,0.311000,4429,6043994,359.04,952.2,-438.59000000000015
312,0.311999,4430,6044993,-8560.96,885.2,1916.4099999999999
313,0.313000,4431,6045994,-7294.96,-54.8,3664.41
314,0.314000,4432,6046994,-391.96,-557.8,3750.41
315,0.315000,4433,6047994,5412.04,-1194.8,4290.41
316,0.316000,4434,6048994,3211.04,-942.8,2966.41
317,0.317000,4435,6049994,-4453.96,75.2,528.4099999999999
318,0.317999,4436,6050993,-15561.96,-556.8,1795.4099999999999
319,0.319000,4437,6051994,-26950.96,-1526.8,3104.41
320,0.320000,4438,6052994,-23738.96,-240.8,1554.4099999999999
321,0.321000,4439,6053994,-16498.96,586.2,950.4099999999999
322,0.322000,4440,6054994,-3082.96,96.2,3346.41
323,0.323000,4441,6055994,7775.04,-85.8,4060.41
324,0.324000,4442,6056994,9289.04,41.2,2125.41
325,0.325000,4443,6057994,6477.04,627.2,-356.59000000000015
326,0.325999,4444,6058993,3294.04,1159.2,-3041.59
327,0.327000,4445,6059994,5485.04,1488.2,-3992.59
328,0.328000,4446,6060994,8698.04,523.2,-3885.59
329,0.329000,4447,6061994,8543.04,-831.8,-3537.59
330,0.330000,4448,6062994,1339.04,-725.8,-3702.59
331,0.331000,4449,6063994,-1772.96,41.2,-3926.59
332,0.332000,4450,6064994,3334.04,394.2,-5640.59
333,0.333000,4451,6065994,10999.04,331.2,-5870.59
334,0.333999,4452,6066993,18916.04,-342.8,-1104.5900000000001
335,0.335000,4453,6067994,16173.04,-270.8,796.4099999999999
336,0.336000,4454,6068994,2619.04,823.2,-425.59000000000015
337,0.336999,4455,6069993,-7932.96,991.2,1416.4099999999999
338,0.338000,4456,6070994,-8229.96,75.2,3518.41
339,0.339000,4457,6071994,-1764.96,-481.8,3842.41
340,0.340000,4458,6072994,4304.04,-1034.8,4112.41
341,0.340999,4459,6073993,4797.04,-978.8,3144.41
342,0.342000,4460,6074994,-3469.96,-79.8,768.4099999999999
343,0.343000,4461,6075994,-12651.96,-431.8,1540.4099999999999
344,0.344000,4462,6076994,-24954.96,-1548.8,3251.41
345,0.344999,4463,6077993,-25777.96,-569.8,1854.4099999999999
346,0.346000,4464,6078994,-18595.96,576.2,658.4099999999999
347,0.347000,4465,6079994,-5529.96,181.2,2969.41
348,0.348000,4466,6080994,6159.04,75.2,4199.41
349,0.349000,4467,6081994,9500.04,-34.8,2485.41
350,0.350000,4468,6082994,8350.04,410.2,68.40999999999985
351,0.350999,4469,6083993,2796.04,1083.2,-2659.59
352,0.352000,4470,6084994,5007.04,1454.2,-3878.59
353,0.353000,4471,6085994,8418.04,758.2,-4165.59
354,0.354000,4472,6086994,8574.04,-640.8,-3622.59
355,0.355000,4473,6087994,3164.04,-829.8,-3455.59
356,0.355999,4474,6088993,-1884.96,-104.8,-3970.59
357,0.357000,4475,6089994,1940.04,490.2,-5501.59
358,0.358000,4476,6090994,9767.04,253.2,-6097.59
359,0.359000,4477,6091994,18182.04,-367.8,-1775.5900000000001
360,0.360000,4478,6092994,17663.04,-233.8,815.4099999999999
361,0.361000,4479,6093994,4642.04,614.2,-515.5900000000001
362,0.362000,4480,6094994,-6737.96,1051.2,883.4099999999999
363,0.362999,4481,6095993,-8527.96,275.2,3350.41
364,0.363999,4482,6096993,-2999.96,-356.8,3757.41
365,0.365000,4483,6097994,4135.04,-980.8,4254.41
366,0.366000,4484,6098994,4808.04,-1079.8,3504.41
367,0.366999,4485,6099993,-2471.96,-249.8,956.4099999999999
368,0.368000,4486,6100994,-10357.96,-398.8,1342.4099999999999
369,0.369000,4487,6101994,-23277.96,-1440.8,3067.41
370,0.369999,4488,6102993,-26138.96,-692.8,2152.41
371,0.371000,4489,6103994,-20825.96,595.2,430.40999999999985
372,0.371999,4490,6104993,-8009.96,237.2,2438.41
373,0.372999,4491,6105993,4516.04,55.2,4354.41
374,0.374000,4492,6106994,9716.04,-120.8,2930.41
375,0.374999,4493,6107993,9242.04,367.2,585.4099999999999
376,0.376000,4494,6108994,2756.04,1111.2,-2285.59
377,0.377000,4495,6109994,4668.04,1411.2,-3746.59
378,0.378000,4496,6110994,8043.04,953.2,-4165.59
379,0.379000,4497,6111994,9363.04,-405.8,-3659.59
380,0.380000,4498,6112994,4617.04,-879.8,-3557.59
381,0.381000,4499,6113994,-1891.96,-156.8,-3933.59
382,0.382000,4500,6114994,156.04,395.2,-5006.59
383,0.382999,4501,6115993,8362.04,302.2,-6437.59
384,0.384000,4502,6116994,17488.04,-311.8,-2741.59
385,0.384999,4503,6117993,18527.04,-342.8,850.4099999999999
386,0.386000,4504,6118994,7531.04,367.2,3.4099999999998545
387,0.386999,4505,6119993,-5461.96,1100.2,314.40999999999985
388,0.388000,4506,6120994,-9142.96,604.2,2862.41
389,0.389000,4507,6121994,-4608.96,-355.8,3896.41
390,0.390000,4508,6122994,3236.04,-978.8,4165.41
391,0.391000,4509,6123994,5667.04,-1080.8,3797.41
392,0.392000,4510,6124994,-1123.96,-356.8,1268.4099999999999
393,0.393000,4511,6125994,-8309.96,-397.8,1289.4099999999999
394,0.393999,4512,6126993,-21425.96,-1325.8,2953.41
395,0.395000,4513,6127994,-26519.96,-959.8,2459.41
396,0.396000,4514,6128994,-22825.96,469.2,532.4099999999999
397,0.397000,4515,6129994,-11280.96,385.2,1740.4099999999999
398,0.398000,4516,6130994,3525.04,-24.8,4301.41
399,0.399000,4517,6131994,10070.04,-286.8,3333.41
400,0.399999,4518,6132993,10133.04,348.2,814.4099999999999
401,0.401000,4519,6133994,3447.04,1095.2,-1877.5900000000001
402,0.402000,4520,6134994,3893.04,1308.2,-3472.59
403,0.402999,4521,6135993,7323.04,1134.2,-4071.59
404,0.404000,4522,6136994,9116.04,-161.8,-3728.59
405,0.405000,4523,6137994,6100.04,-831.8,-3485.59
406,0.406000,4524,6138994,-1806.96,-237.8,-3878.59
407,0.407000,4525,6139994,383.04,223.2,-4585.59
408,0.407999,4526,6140993,7251.04,387.2,-6528.59
409,0.409000,4527,6141994,15854.04,-191.8,-3685.59
410,0.410000,4528,6142994,19148.04,-436.8,672.4099999999999
411,0.411000,4529,6143994,8786.04,306.2,-21.590000000000146
412,0.412000,4530,6144994,-3498.96,1045.2,117.40999999999985
413,0.413000,4531,6145994,-8999.96,698.2,2678.41
414,0.414000,4532,6146994,-5068.96,-248.8,3772.41
415,0.415000,4533,6147994,1928.04,-812.8,4008.41
416,0.416000,4534,6148994,5436.04,-1171.8,4072.41
417,0.417000,4535,6149994,349.04,-577.8,1889.4099999999999
418,0.417999,4536,6150993,-7081.96,-288.8,842.4099999999999
419,0.419000,4537,6151994,-19993.96,-1001.8,2471.41
420,0.420000,4538,6152994,-26509.96,-1193.8,2797.41
421,0.421000,4539,6153994,-23151.96,206.2,964.4099999999999
422,0.422000,4540,6154994,-13444.96,503.2,1455.4099999999999
423,0.423000,4541,6155994,1700.04,53.2,3954.41
424,0.424000,4542,6156994,9366.04,-256.8,3548.41
425,0.425000,4543,6157994,10044.04,236.2,1342.4099999999999
426,0.426000,4544,6158994,4282.04,1036.2,-1391.5900000000001
427,0.427000,4545,6159994,3807.04,1205.2,-3411.59
428,0.428000,4546,6160994,6934.04,1341.2,-4042.59
429,0.429000,4547,6161994,9080.04,69.2,-3878.59
430,0.430000,4548,6162994,7231.04,-915.8,-3527.59
431,0.430999,4549,6163993,-1818.96,-382.8,-3879.59
432,0.432000,4550,6164994,-120.96000000000001,104.2,-4302.59
433,0.432999,4551,6165993,6589.04,471.2,-6322.59
434,0.434000,4552,6166994,14205.04,-1.8000000000000007,-4586.59
435,0.435000,4553,6167994,19934.04,-513.8,220.40999999999985
436,0.436000,4554,6168994,10884.04,140.2,261.40999999999985
437,0.437000,4555,6169994,-2207.96,972.2,-216.59000000000015
438,0.437999,4556,6170993,-8978.96,916.2,2265.41
439,0.439000,4557,6171994,-6446.96,-165.8,3869.41
440,0.440000,4558,6172994,781.04,-780.8,3970.41
441,0.441000,4559,6173994,5889.04,-1121.8,4152.41
442,0.442000,4560,6174994,1963.04,-779.8,2301.41
443,0.443000,4561,6175994,-5012.96,-159.8,703.4099999999999
444,0.443999,4562,6176993,-18756.96,-696.8,2243.41
445,0.445000,4563,6177994,-27034.96,-1439.8,2978.41
446,0.446000,4564,6178994,-23695.96,-50.8,1181.4099999999999
447,0.447000,4565,6179994,-15866.96,674.2,971.4099999999999
448,0.448000,4566,6180994,126.03999999999999,46.2,3757.41
449,0.449000,4567,6181994,9068.04,-271.8,4047.41
450,0.450000,4568,6182994,10152.04,136.2,1705.4099999999999
451,0.451000,4569,6183994,5358.04,886.2,-1024.5900000000001
452,0.452000,4570,6184994,3371.04,1122.2,-3235.59
453,0.453000,4571,6185994,5931.04,1428.2,-4054.59
454,0.454000,4572,6186994,8865.04,317.2,-4043.59
455,0.454999,4573,6187993,7859.04,-846.8,-3572.59
456,0.456000,4574,6188994,-613.96,-585.8,-3649.59
457,0.457000,4575,6189994,-163.96,-64.8,-3983.59
458,0.458000,4576,6190994,5385.04,565.2,-6337.59
459,0.458999,4577,6191993,12517.04,172.2,-5333.59
460,0.460000,4578,6192994,19619.04,-500.8,-230.59000000000015
461,0.461000,4579,6193994,13017.04,-11.8,422.40999999999985
462,0.462000,4580,6194994,-385.96,967.2,-387.59000000000015
463,0.462999,4581,6195993,-8404.96,896.2,1976.4099999999999
464,0.464000,4582,6196994,-6996.96,-40.8,3685.41
465,0.465000,4583,6197994,-383.96,-639.8,3835.41
466,0.466000,4584,6198994,5388.04,-1157.8,4353.41
467,0.467000,4585,6199994,3165.04,-804.8,2842.41
468,0.468000,4586,6200994,-4543.96,-47.8,634.4099999999999
469,0.469000,4587,6201994,-16151.96,-560.8,1946.4099999999999
470,0.470000,4588,6202994,-26954.96,-1549.8,3089.41
471,0.471000,4589,6203994,-23806.96,-324.8,1487.4099999999999
472,0.472000,4590,6204994,-16376.96,624.2,967.4099999999999
473,0.472999,4591,6205993,-2843.96,167.2,3391.41
474,0.474000,4592,6206994,7800.04,-44.8,4065.41
475,0.475000,4593,6207994,9134.04,48.2,1995.4099999999999
476,0.475999,4594,6208993,6812.04,610.2,-475.59000000000015
477,0.476999,4595,6209993,3227.04,1075.2,-2945.59
478,0.478000,4596,6210994,5594.04,1400.2,-4018.59
479,0.478999,4597,6211993,9139.04,607.2,-4011.59
480,0.480000,4598,6212994,8245.04,-859.8,-3611.59
481,0.481000,4599,6213994,1013.04,-789.8,-3680.59
482,0.482000,4600,6214994,-1502.96,39.2,-4041.59
483,0.483000,4601,6215994,3781.04,461.2,-5921.59
484,0.484000,4602,6216994,11375.04,263.2,-5734.59
485,0.485000,4603,6217994,19174.04,-453.8,-887.5900000000001
486,0.486000,4604,6218994,15853.04,-144.8,716.4099999999999
487,0.487000,4605,6219994,1872.04,818.2,-468.59000000000015
488,0.488000,4606,6220994,-8551.96,978.2,1447.4099999999999
489,0.489000,4607,6221994,-7649.96,157.2,3501.41
490,0.490000,4608,6222994,-1600.96,-554.8,3864.41
491,0.491000,4609,6223994,4809.04,-1137.8,4409.41
492,0.492000,4610,6224994,4652.04,-955.8,3221.41
493,0.493000,4611,6225994,-3872.96,-8.8,683.4099999999999
494,0.494000,4612,6226994,-13412.96,-452.8,1655.4099999999999
495,0.495000,4613,6227994,-25698.96,-1621.8,3217.41
496,0.496000,4614,6228994,-25481.96,-523.8,1655.4099999999999
497,0.496999,4615,6229993,-18182.96,602.2,604.4099999999999
498,0.497999,4616,6230993,-5066.96,132.2,3078.41
499,0.499000,4617,6231994,6478.04,62.2,4160.41
500,0.500000,4618,6232994,9957.04,-92.8,2445.41
501,0.501000,4619,6233994,7833.04,395.2,-46.590000000000146
502,0.502000,4620,6234994,2887.04,1207.2,-2776.59
503,0.503000,4621,6235994,5046.04,1379.2,-3792.59
504,0.504000,4622,6236994,8481.04,693.2,-4085.59
505,0.504999,4623,6237993,8795.04,-618.8,-3680.59
506,0.505999,4624,6238993,2681.04,-888.8,-3610.59
507,0.507000,4625,6239994,-1644.96,-25.8,-3982.59
508,0.508000,4626,6240994,2198.04,494.2,-5566.59
509,0.509000,4627,6241994,10212.04,209.2,-6031.59
510,0.510000,4628,6242994,18516.04,-354.8,-1529.5900000000001
511,0.511000,4629,6243994,16911.04,-231.8,721.4099999999999
512,0.512000,4630,6244994,4259.04,730.2,-487.59000000000015
513,0.512999,4631,6245993,-7108.96,1075.2,1125.4099999999999
514,0.514000,4632,6246994,-8436.96,193.2,3334.41
515,0.515000,4633,6247994,-2278.96,-364.8,3756.41
516,0.516000,4634,6248994,4024.04,-983.8,4272.41
517,0.517000,4635,6249994,4935.04,-1058.8,3558.41
518,0.518000,4636,6250994,-3084.96,-180.8,996.4099999999999
519,0.518999,4637,6251993,-11601.96,-323.8,1274.4099999999999
520,0.520000,4638,6252994,-23437.96,-1498.8,3148.41
521,0.521000,4639,6253994,-25896.96,-759.8,2205.41
522,0.522000,4640,6254994,-19867.96,650.2,540.4099999999999
523,0.523000,4641,6255994,-7561.96,280.2,2490.41
524,0.524000,4642,6256994,4668.04,72.2,4221.41
525,0.525000,4643,6257994,9764.04,-111.8,2925.41
526,0.526000,4644,6258994,8938.04,328.2,450.40999999999985
527,0.527000,4645,6259994,2955.04,1119.2,-2555.59
528,0.528000,4646,6260994,4967.04,1419.2,-3783.59
529,0.529000,4647,6261994,8339.04,865.2,-4144.59
530,0.529999,4648,6262993,9098.04,-475.8,-3728.59
531,0.531000,4649,6263994,4030.04,-838.8,-3556.59
532,0.532000,4650,6264994,-2293.96,-99.8,-4132.59
533,0.532999,4651,6265993,964.04,440.2,-5166.59
534,0.534000,4652,6266994,9107.04,125.2,-6144.59
535,0.535000,4653,6267994,17972.04,-371.8,-2499.59
536,0.536000,4654,6268994,18319.04,-182.8,839.4099999999999
537,0.536999,4655,6269993,6196.04,431.2,-125.59000000000015
538,0.538000,4656,6270994,-6087.96,1064.2,595.4099999999999
539,0.539000,4657,6271994,-9255.96,480.2,3064.41
540,0.540000,4658,6272994,-3667.96,-414.8,3824.41
541,0.541000,4659,6273994,3756.04,-953.8,4188.41
542,0.542000,4660,6274994,5371.04,-1130.8,3814.41
543,0.543000,4661,6275994,-1529.96,-353.8,1397.4099999999999
544,0.544000,4662,6276994,-9520.96,-314.8,1119.4099999999999
545,0.545000,4663,6277994,-22026.96,-1403.8,2896.41
546,0.546000,4664,6278994,-26472.96,-910.8,2519.41
547,0.547000,4665,6279994,-22319.96,510.2,552.4099999999999
548,0.548000,4666,6280994,-9728.96,376.2,1991.4099999999999
549,0.549000,4667,6281994,3953.04,32.2,4277.41
550,0.549999,4668,6282993,9404.04,-253.8,3151.41
551,0.551000,4669,6283994,10242.04,311.2,870.4099999999999
552,0.552000,4670,6284994,3258.04,1081.2,-2000.5900000000001
553,0.553000,4671,6285994,3826.04,1341.2,-3691.59
554,0.554000,4672,6286994,7998.04,1059.2,-4101.59
555,0.555000,4673,6287994,9038.04,-218.8,-3816.59
556,0.556000,4674,6288994,5591.04,-870.8,-3550.59
557,0.557000,4675,6289994,-1778.96,-261.8,-3962.59
558,0.558000,4676,6290994,370.04,340.2,-4785.59
559,0.558999,4677,6291993,7768.04,318.2,-6359.59
560,0.560000,4678,6292994,16469.04,-320.8,-3366.59
561,0.561000,4679,6293994,18967.04,-360.8,658.4099999999999
562,0.561999,4680,6294993,8102.04,405.2,-74.59000000000015
563,0.563000,4681,6295994,-4023.96,999.2,281.40999999999985
564,0.563999,4682,6296993,-9199.96,687.2,2741.41
565,0.565000,4683,6297994,-5120.96,-168.8,3682.41
566,0.566000,4684,6298994,2783.04,-981.8,4140.41
567,0.567000,4685,6299994,5449.04,-1219.8,4143.41
568,0.567999,4686,6300993,-453.96,-379.8,1657.4099999999999
569,0.569000,4687,6301994,-7484.96,-298.8,823.4099999999999
570,0.570000,4688,6302994,-20689.96,-1057.8,2568.41
571,0.570999,4689,6303993,-26630.96,-1085.8,2808.41
572,0.572000,4690,6304994,-22711.96,259.2,940.4099999999999
573,0.573000,4691,6305994,-12716.96,622.2,1457.4099999999999
574,0.574000,4692,6306994,2374.04,-3.8000000000000007,4212.41
575,0.575000,4693,6307994,9526.04,-331.8,3659.41
576,0.575999,4694,6308993,10182.04,292.2,1136.4099999999999
577,0.577000,4695,6309994,4136.04,1030.2,-1747.5900000000001
578,0.577999,4696,6310993,3583.04,1250.2,-3665.59
579,0.579000,4697,6311994,7160.04,1203.2,-4013.59
580,0.579999,4698,6312993,9000.04,-65.8,-3904.59
581,0.581000,4699,6313994,6919.04,-863.8,-3706.59
582,0.581999,4700,6314993,-1911.96,-351.8,-3932.59
583,0.583000,4701,6315994,313.04,152.2,-4267.59
584,0.583999,4702,6316993,7189.04,470.2,-6263.59
585,0.585000,4703,6317994,14784.04,-107.8,-4284.59
586,0.585999,4704,6318993,19549.04,-422.8,417.40999999999985
587,0.587000,4705,6319994,9733.04,258.2,277.40999999999985
588,0.587999,4706,6320993,-2661.96,937.2,26.409999999999854
589,0.588999,4707,6321993,-9167.96,775.2,2301.41
590,0.590000,4708,6322994,-5872.96,-154.8,3694.41
591,0.591000,4709,6323994,1317.04,-750.8,3932.41
592,0.591999,4710,6324993,5817.04,-1186.8,4240.41
593,0.593000,4711,6325994,1525.04,-720.8,2376.41
594,0.594000,4712,6326994,-5888.96,-187.8,628.4099999999999
595,0.595000,4713,6327994,-19057.96,-784.8,2301.41
596,0.596000,4714,6328994,-27418.96,-1377.8,2953.41
597,0.597000,4715,6329994,-23441.96,125.2,1052.4099999999999
598,0.598000,4716,6330994,-14883.96,650.2,1222.4099999999999
599,0.598999,4717,6331993,477.04,-1.8000000000000007,3730.41
600,0.600000,4718,6332994,9839.04,-237.8,3955.41
601,0.601000,4719,6333994,9915.04,100.2,1667.4099999999999
602,0.601999,4720,6334993,5025.04,911.2,-1276.5900000000001
603,0.603000,4721,6335994,3552.04,1188.2,-3287.59
604,0.604000,4722,6336994,5950.04,1359.2,-4133.59
605,0.605000,4723,6337994,9303.04,264.2,-3914.59
606,0.606000,4724,6338994,7267.04,-893.8,-3563.59
607,0.607000,4725,6339994,-1007.96,-472.8,-3888.59
608,0.608000,4726,6340994,286.04,-21.8,-3930.59
609,0.608999,4727,6341993,5775.04,457.2,-6162.59
610,0.610000,4728,6342994,13315.04,232.2,-5049.59
611,0.611000,4729,6343994,19216.04,-574.8,-121.59000000000015
612,0.612000,4730,6344994,12052.04,79.2,311.40999999999985
613,0.612999,4731,6345993,-827.96,1014.2,-313.59000000000015
614,0.614000,4732,6346994,-8619.96,748.2,2199.41
615,0.614999,4733,6347993,-6527.96,-75.8,3770.41
616,0.616000,4734,6348994,-214.96,-544.8,3703.41
617,0.617000,4735,6349994,5538.04,-1233.8,4397.41
618,0.618000,4736,6350994,2589.04,-898.8,2715.41
619,0.619000,4737,6351994,-4734.96,63.2,434.40999999999985
620,0.619999,4738,6352993,-16772.96,-580.8,2057.41
621,0.621000,4739,6353994,-27228.96,-1511.8,3151.41
622,0.621999,4740,6354993,-23462.96,-156.8,1457.4099999999999
623,0.623000,4741,6355994,-16006.96,652.2,986.4099999999999
624,0.624000,4742,6356994,-2081.96,115.2,3443.41
625,0.625000,4743,6357994,8406.04,-154.8,4126.41
626,0.626000,4744,6358994,9734.04,29.2,2044.4099999999999
627,0.627000,4745,6359994,6097.04,759.2,-809.5900000000001
628,0.628000,4746,6360994,3408.04,1170.2,-3298.59
629,0.629000,4747,6361994,5554.04,1373.2,-4050.59
630,0.630000,4748,6362994,8655.04,456.2,-3973.59
631,0.631000,4749,6363994,8067.04,-781.8,-3651.59
632,0.632000,4750,6364994,519.04,-736.8,-3699.59
633,0.633000,4751,6365994,-627.96,3.1999999999999993,-3814.59
634,0.634000,4752,6366994,4757.04,468.2,-5793.59
635,0.634999,4753,6367993,11653.04,269.2,-5652.59
636,0.636000,4754,6368994,18947.04,-411.8,-781.5900000000001
637,0.636999,4755,6369993,14425.04,-191.8,606.4099999999999
638,0.638000,4756,6370994,1188.04,887.2,-402.59000000000015
639,0.639000,4757,6371994,-8383.96,917.2,1654.4099999999999
640,0.640000,4758,6372994,-7668.96,43.2,3501.41
641,0.641000,4759,6373994,-1007.96,-514.8,3807.41
642,0.642000,4760,6374994,5049.04,-1095.8,4303.41
643,0.642999,4761,6375993,4344.04,-916.8,3146.41
644,0.644000,4762,6376994,-3795.96,-6.800000000000001,769.4099999999999
645,0.645000,4763,6377994,-14113.96,-482.8,1770.4099999999999
646,0.645999,4764,6378993,-26477.96,-1495.8,3184.41
647,0.646999,4765,6379993,-25401.96,-396.8,1627.4099999999999
648,0.648000,4766,6380994,-17545.96,588.2,665.4099999999999
649,0.649000,4767,6381994,-4159.96,158.2,3082.41
650,0.649999,4768,6382993,7255.04,-71.8,4232.41
651,0.651000,4769,6383994,9811.04,-34.8,2444.41
652,0.652000,4770,6384994,7419.04,532.2,-202.59000000000015
653,0.653000,4771,6385994,3026.04,1083.2,-2932.59
654,0.654000,4772,6386994,4875.04,1466.2,-3931.59
655,0.655000,4773,6387994,8178.04,737.2,-4054.59
656,0.656000,4774,6388994,8736.04,-719.8,-3565.59
657,0.657000,4775,6389994,2282.04,-834.8,-3571.59
658,0.657999,4776,6390993,-1222.96,-10.8,-4032.59
659,0.659000,4777,6391994,3299.04,474.2,-5604.59
660,0.660000,4778,6392994,10294.04,173.2,-5942.59
661,0.660999,4779,6393993,18307.04,-378.8,-1486.5900000000001
662,0.662000,4780,6394994,16293.04,-152.8,643.4099999999999
663,0.662999,4781,6395993,3436.04,667.2,-467.59000000000015
664,0.664000,4782,6396994,-7068.96,975.2,1347.4099999999999
665,0.664999,4783,6397993,-8401.96,190.2,3343.41
666,0.666000,4784,6398994,-2328.96,-413.8,3643.41
667,0.666999,4785,6399993,4368.04,-1072.8,4373.41
668,0.668000,4786,6400994,4579.04,-1044.8,3490.41
669,0.669000,4787,6401994,-3148.96,-79.8,841.4099999999999
670,0.670000,4788,6402994,-11753.96,-420.8,1361.4099999999999
671,0.671000,4789,6403994,-24022.96,-1505.8,3135.41
672,0.671999,4790,6404993,-25702.96,-617.8,2166.41
673,0.673000,4791,6405994,-19447.96,555.2,694.4099999999999
674,0.674000,4792,6406994,-6836.96,246.2,2580.41
675,0.675000,4793,6407994,5196.04,114.2,4186.41
676,0.676000,4794,6408994,9720.04,-162.8,2755.41
677,0.677000,4795,6409994,8789.04,313.2,270.40999999999985
678,0.678000,4796,6410994,2834.04,1145.2,-2720.59
679,0.679000,4797,6411994,4670.04,1434.2,-3984.59
680,0.680000,4798,6412994,8331.04,799.2,-4025.59
681,0.681000,4799,6413994,8988.04,-500.8,-3712.59
682,0.682000,4800,6414994,4152.04,-794.8,-3622.59
683,0.682999,4801,6415993,-1764.96,-107.8,-3822.59
684,0.683999,4802,6416993,1073.04,484.2,-5125.59
685,0.685000,4803,6417994,9085.04,296.2,-6202.59
686,0.686000,4804,6418994,17718.04,-419.8,-2267.59
687,0.687000,4805,6419994,17888.04,-303.8,778.4099999999999
688,0.687999,4806,6420993,5813.04,522.2,-345.59000000000015
689,0.689000,4807,6421994,-6101.96,1038.2,756.4099999999999
690,0.689999,4808,6422993,-9206.96,451.2,3061.41
691,0.691000,4809,6423994,-3439.96,-317.8,3643.41
692,0.691999,4810,6424993,3760.04,-969.8,4210.41
693,0.693000,4811,6425994,5547.04,-1136.8,3862.41
694,0.694000,4812,6426994,-1700.96,-276.8,1354.4099999999999
695,0.695000,4813,6427994,-9851.96,-306.8,1133.4099999999999
696,0.696000,4814,6428994,-22122.96,-1446.8,2970.41
697,0.697000,4815,6429994,-26513.96,-810.8,2395.41
698,0.698000,4816,6430994,-21760.96,586.2,483.40999999999985
699,0.699000,4817,6431994,-9566.96,285.2,2019.4099999999999
700,0.699999,4818,6432993,4142.04,0.1999999999999993,4232.41
701,0.701000,4819,6433994,9928.04,-244.8,3135.41
702,0.701999,4820,6434993,9916.04,242.2,754.4099999999999
703,0.703000,4821,6435994,2894.04,1114.2,-2132.59
704,0.704000,4822,6436994,3796.04,1473.2,-3763.59
705,0.705000,4823,6437994,7771.04,986.2,-4062.59
706,0.706000,4824,6438994,8773.04,-267.8,-3699.59
707,0.707000,4825,6439994,5644.04,-789.8,-3529.59
708,0.708000,4826,6440994,-1149.96,-247.8,-3864.59
709,0.709000,4827,6441994,730.04,355.2,-4737.59
710,0.710000,4828,6442994,7874.04,370.2,-6335.59
711,0.711000,4829,6443994,16259.04,-273.8,-3293.59
712,0.711999,4830,6444993,18330.04,-295.8,560.4099999999999
713,0.713000,4831,6445994,7716.04,336.2,-71.59000000000015
714,0.713999,4832,6446993,-4072.96,988.2,414.40999999999985
715,0.714999,4833,6447993,-8823.96,594.2,2802.41
716,0.716000,4834,6448994,-5007.96,-278.8,3585.41
717,0.717000,4835,6449994,2576.04,-865.8,4007.41
718,0.717999,4836,6450993,5311.04,-1184.8,4013.41
719,0.719000,4837,6451994,-247.96,-431.8,1582.4099999999999
720,0.720000,4838,6452994,-7743.96,-283.8,920.4099999999999
721,0.720999,4839,6453993,-20953.96,-1105.8,2710.41
722,0.722000,4840,6454994,-25970.96,-1084.8,2869.41
723,0.723000,4841,6455994,-22815.96,325.2,884.4099999999999
724,0.724000,4842,6456994,-12714.96,609.2,1453.4099999999999
725,0.725000,4843,6457994,2787.04,-32.8,4203.41
726,0.726000,4844,6458994,9498.04,-330.8,3616.41
727,0.727000,4845,6459994,10039.04,348.2,1033.4099999999999
728,0.728000,4846,6460994,4130.04,961.2,-1741.5900000000001
729,0.728999,4847,6461993,3381.04,1268.2,-3707.59
730,0.730000,4848,6462994,7240.04,1198.2,-4113.59
731,0.731000,4849,6463994,8901.04,-96.8,-3792.59
732,0.732000,4850,6464994,6634.04,-868.8,-3588.59
733,0.733000,4851,6465994,-1425.96,-336.8,-3795.59
734,0.734000,4852,6466994,419.04,175.2,-4289.59
735,0.735000,4853,6467994,7046.04,518.2,-6408.59
736,0.736000,4854,6468994,14825.04,-76.8,-4133.59
737,0.737000,4855,6469994,19276.04,-559.8,461.40999999999985
738,0.737999,4856,6470993,9578.04,262.2,-2.5900000000001455
739,0.738999,4857,6471993,-2564.96,924.2,112.40999999999985
740,0.740000,4858,6472994,-9305.96,727.2,2494.41
741,0.741000,4859,6473994,-5760.96,-92.8,3591.41
742,0.742000,4860,6474994,1463.04,-802.8,3927.41
743,0.743000,4861,6475994,5837.04,-1223.8,4227.41
744,0.744000,4862,6476994,1464.04,-686.8,2247.41
745,0.745000,4863,6477994,-6146.96,-241.8,717.4099999999999
746,0.746000,4864,6478994,-19235.96,-793.8,2360.41
747,0.747000,4865,6479994,-27233.96,-1354.8,2881.41
748,0.747999,4866,6480993,-23277.96,89.2,1038.4099999999999
749,0.749000,4867,6481994,-14736.96,686.2,1140.4099999999999
750,0.750000,4868,6482994,840.04,-12.8,3808.41
751,0.751000,4869,6483994,9793.04,-280.8,3953.41
752,0.752000,4870,6484994,9967.04,175.2,1568.4099999999999
753,0.753000,4871,6485994,4739.04,927.2,-1281.5900000000001
754,0.754000,4872,6486994,3355.04,1231.2,-3384.59
755,0.755000,4873,6487994,6094.04,1351.2,-4074.59
756,0.756000,4874,6488994,9053.04,205.2,-3812.59
757,0.757000,4875,6489994,7503.04,-897.8,-3490.59
758,0.758000,4876,6490994,-835.96,-561.8,-3806.59
759,0.759000,4877,6491994,260.04,70.2,-4039.59
760,0.760000,4878,6492994,5883.04,537.2,-6254.59
761,0.761000,4879,6493994,13189.04,95.2,-4976.59
762,0.761999,4880,6494993,19001.04,-524.8,-120.59000000000015
763,0.763000,4881,6495994,12214.04,69.2,403.40999999999985
764,0.764000,4882,6496994,-800.96,954.2,-173.59000000000015
765,0.765000,4883,6497994,-8602.96,837.2,2055.41
766,0.766000,4884,6498994,-6827.96,-161.8,3623.41
767,0.767000,4885,6499994,-109.96000000000001,-660.8,3802.41
768,0.768000,4886,6500994,5541.04,-1158.8,4391.41
769,0.769000,4887,6501994,2607.04,-808.8,2637.41
770,0.770000,4888,6502994,-4478.96,-50.8,649.4099999999999
771,0.770999,4889,6503993,-17152.96,-627.8,2002.4099999999999
772,0.772000,4890,6504994,-27067.96,-1471.8,3005.41
773,0.773000,4891,6505994,-23392.96,-244.8,1591.4099999999999
774,0.774000,4892,6506994,-15898.96,617.2,985.4099999999999
775,0.775000,4893,6507994,-1829.96,167.2,3503.41
776,0.775999,4894,6508993,8225.04,-155.8,3914.41
777,0.777000,4895,6509994,9570.04,73.2,1758.4099999999999
778,0.778000,4896,6510994,6048.04,754.2,-667.5900000000001
779,0.779000,4897,6511994,3350.04,1073.2,-3121.59
780,0.780000,4898,6512994,5573.04,1426.2,-4018.59
781,0.781000,4899,6513994,8505.04,507.2,-4058.59
782,0.782000,4900,6514994,8358.04,-792.8,-3633.59
783,0.783000,4901,6515994,417.04,-733.8,-3664.59
784,0.784000,4902,6516994,-627.96,97.2,-4010.59
785,0.785000,4903,6517994,5052.04,495.2,-5864.59
786,0.786000,4904,6518994,11641.04,85.2,-5388.59
787,0.787000,4905,6519994,18822.04,-354.8,-773.5900000000001
788,0.787999,4906,6520993,14283.04,-73.8,491.40999999999985
789,0.788999,4907,6521993,987.04,783.2,-351.59000000000015
790,0.790000,4908,6522994,-8308.96,938.2,1638.4099999999999
791,0.791000,4909,6523994,-7501.96,35.2,3469.41
792,0.792000,4910,6524994,-1194.96,-546.8,3756.41
793,0.793000,4911,6525994,5175.04,-1084.8,4352.41
794,0.793999,4912,6526993,4226.04,-936.8,3090.41
795,0.795000,4913,6527994,-3775.96,-45.8,699.4099999999999
796,0.796000,4914,6528994,-14302.96,-547.8,1835.4099999999999
797,0.797000,4915,6529994,-26243.96,-1487.8,3093.41
798,0.798000,4916,6530994,-25059.96,-420.8,1537.4099999999999
799,0.799000,4917,6531994,-17418.96,575.2,692.4099999999999
800,0.800000,4918,6532994,-4001.96,187.2,3108.41
801,0.801000,4919,6533994,6925.04,-87.8,4098.41
802,0.802000,4920,6534994,9837.04,-34.8,2266.41
803,0.802999,4921,6535993,7441.04,556.2,-191.59000000000015
804,0.804000,4922,6536994,2960.04,1056.2,-2814.59
805,0.805000,4923,6537994,4794.04,1447.2,-3902.59
806,0.806000,4924,6538994,8251.04,700.2,-3980.59
807,0.807000,4925,6539994,8545.04,-664.8,-3581.59
808,0.808000,4926,6540994,2376.04,-829.8,-3628.59
809,0.809000,4927,6541994,-1162.96,-59.8,-3974.59
810,0.810000,4928,6542994,3207.04,518.2,-5550.59
811,0.811000,4929,6543994,10635.04,180.2,-5749.59
812,0.812000,4930,6544994,17960.04,-340.8,-1480.5900000000001
813,0.813000,4931,6545994,16146.04,-92.8,571.4099999999999
814,0.814000,4932,6546994,3524.04,614.2,-317.59000000000015
815,0.814999,4933,6547993,-7187.96,970.2,1250.4099999999999
816,0.816000,4934,6548994,-7972.96,225.2,3252.41
817,0.817000,4935,6549994,-2412.96,-539.8,3741.41
818,0.818000,4936,6550994,4067.04,-973.8,4266.41
819,0.818999,4937,6551993,4735.04,-995.8,3361.41
820,0.820000,4938,6552994,-3217.96,-232.8,908.4099999999999
821,0.821000,4939,6553994,-11295.96,-381.8,1516.4099999999999
822,0.822000,4940,6554994,-24029.96,-1501.8,3143.41
823,0.823000,4941,6555994,-25842.96,-660.8,2160.41
824,0.823999,4942,6556993,-19425.96,558.2,734.4099999999999
825,0.824999,4943,6557993,-7120.96,256.2,2489.41
826,0.826000,4944,6558994,5232.04,121.2,4136.41
827,0.827000,4945,6559994,9616.04,-183.8,2732.41
828,0.827999,4946,6560993,8986.04,396.2,221.40999999999985
829,0.829000,4947,6561994,3024.04,1106.2,-2557.59
830,0.830000,4948,6562994,4569.04,1310.2,-3817.59
831,0.830999,4949,6563993,8163.04,907.2,-4080.59
832,0.832000,4950,6564994,8742.04,-476.8,-3675.59
833,0.833000,4951,6565994,3847.04,-871.8,-3605.59
834,0.834000,4952,6566994,-1670.96,-78.8,-3923.59
835,0.835000,4953,6567994,1603.04,467.2,-5189.59
836,0.836000,4954,6568994,9576.04,218.2,-6110.59
837,0.837000,4955,6569994,17447.04,-396.8,-2238.59
838,0.838000,4956,6570994,17667.04,-212.8,691.4099999999999
839,0.839000,4957,6571994,5660.04,534.2,-278.59000000000015
840,0.840000,4958,6572994,-6277.96,979.2,748.4099999999999
841,0.841000,4959,6573994,-8639.96,422.2,3061.41
842,0.841999,4960,6574993,-3494.96,-305.8,3644.41
843,0.843000,4961,6575994,3670.04,-932.8,4181.41
844,0.843999,4962,6576993,5522.04,-1080.8,3733.41
845,0.845000,4963,6577994,-1913.96,-343.8,1251.4099999999999
846,0.845999,4964,6578993,-9795.96,-348.8,1196.4099999999999
847,0.846999,4965,6579993,-22240.96,-1411.8,2925.41
848,0.848000,4966,6580994,-26675.96,-850.8,2359.41
849,0.849000,4967,6581994,-21598.96,546.2,587.4099999999999
850,0.850000,4968,6582994,-9213.96,328.2,2109.41
851,0.850999,4969,6583993,4035.04,94.2,4142.41
852,0.852000,4970,6584994,9742.04,-261.8,3113.41
853,0.853000,4971,6585994,9884.04,210.2,810.4099999999999
854,0.854000,4972,6586994,3047.04,1170.2,-2135.59
855,0.855000,4973,6587994,3895.04,1379.2,-3749.59
856,0.856000,4974,6588994,7825.04,943.2,-4071.59
857,0.857000,4975,6589994,8831.04,-224.8,-3716.59
858,0.858000,4976,6590994,5408.04,-820.8,-3565.59
859,0.859000,4977,6591994,-1392.96,-235.8,-3904.59
860,0.860000,4978,6592994,588.04,416.2,-4893.59
861,0.861000,4979,6593994,8293.04,373.2,-6337.59
862,0.862000,4980,6594994,16638.04,-390.8,-3080.59
863,0.863000,4981,6595994,18397.04,-277.8,596.4099999999999
864,0.864000,4982,6596994,7571.04,439.2,-103.59000000000015
865,0.865000,4983,6597994,-4430.96,940.2,403.40999999999985
866,0.866000,4984,6598994,-8966.96,584.2,2793.41
867,0.867000,4985,6599994,-4731.96,-266.8,3629.41
868,0.868000,4986,6600994,2710.04,-914.8,4064.41
869,0.869000,4987,6601994,5241.04,-1139.8,3941.41
870,0.870000,4988,6602994,-403.96,-455.8,1610.4099999999999
871,0.871000,4989,6603994,-8022.96,-353.8,1051.4099999999999
872,0.872000,4990,6604994,-20622.96,-1102.8,2715.41
873,0.873000,4991,6605994,-26228.96,-1064.8,2802.41
874,0.874000,4992,6606994,-22818.96,344.2,859.4099999999999
875,0.874999,4993,6607993,-12219.96,536.2,1646.4099999999999
876,0.875999,4994,6608993,2405.04,6.199999999999999,4067.41
877,0.876999,4995,6609993,9929.04,-278.8,3447.41
878,0.878000,4996,6610994,9859.04,219.2,1083.4099999999999
879,0.879000,4997,6611994,3987.04,987.2,-1808.5900000000001
880,0.880000,4998,6612994,3915.04,1281.2,-3575.59
881,0.881000,4999,6613994,6789.04,1164.2,-4246.59
882,0.882000,5000,6614994,9279.04,-42.8,-3895.59
883,0.883000,5001,6615994,6080.04,-871.8,-3616.59
884,0.883999,5002,6616993,-1453.96,-326.8,-3881.59
885,0.885000,5003,6617994,849.04,205.2,-4271.59
886,0.885999,5004,6618993,7012.04,459.2,-6403.59
887,0.887000,5005,6619994,15558.04,-53.8,-3940.59
888,0.887999,5006,6620993,18741.04,-555.8,461.40999999999985
889,0.889000,5007,6621994,9146.04,292.2,-77.59000000000015
890,0.890000,5008,6622994,-2760.96,990.2,130.40999999999985
891,0.891000,5009,6623994,-9267.96,625.2,2592.41
892,0.891999,5010,6624993,-5469.96,-75.8,3657.41
893,0.893000,5011,6625994,1418.04,-798.8,3898.41
894,0.894000,5012,6626994,5822.04,-1237.8,4214.41
895,0.894999,5013,6627993,1274.04,-620.8,2159.41
896,0.896000,5014,6628994,-6209.96,-281.8,863.4099999999999
897,0.897000,5015,6629994,-19300.96,-919.8,2474.41
898,0.898000,5016,6630994,-27135.96,-1267.8,2781.41
899,0.899000,5017,6631994,-23351.96,165.2,1016.4099999999999
900,0.900000,5018,6632994,-14423.96,637.2,1226.4099999999999
901,0.901000,5019,6633994,939.04,-16.8,3851.41
902,0.902000,5020,6634994,9675.04,-298.8,3913.41
903,0.902999,5021,6635993,9975.04,232.2,1508.4099999999999
904,0.903999,5022,6636993,4848.04,925.2,-1260.5900000000001
905,0.905000,5023,6637994,3454.04,1187.2,-3316.59
906,0.906000,5024,6638994,5969.04,1406.2,-4189.59
907,0.907000,5025,6639994,9237.04,164.2,-3857.59
908,0.908000,5026,6640994,7176.04,-886.8,-3514.59
909,0.909000,5027,6641994,-1128.96,-444.8,-3844.59
910,0.910000,5028,6642994,249.04,55.2,-4147.59
911,0.911000,5029,6643994,6380.04,475.2,-6345.59
912,0.912000,5030,6644994,13749.04,89.2,-4778.59
913,0.913000,5031,6645994,19121.04,-442.8,12.409999999999854
914,0.914000,5032,6646994,11779.04,99.2,335.40999999999985
915,0.915000,5033,6647994,-1398.96,933.2,-203.59000000000015
916,0.916000,5034,6648994,-8704.96,859.2,2164.41
917,0.917000,5035,6649994,-6439.96,-123.8,3705.41
918,0.918000,5036,6650994,3.039999999999999,-746.8,3787.41
919,0.919000,5037,6651994,5750.04,-1141.8,4303.41
920,0.920000,5038,6652994,2271.04,-708.8,2536.41
921,0.921000,5039,6653994,-4916.96,-80.8,651.4099999999999
922,0.922000,5040,6654994,-17147.96,-675.8,2164.41
923,0.923000,5041,6655994,-27148.96,-1467.8,2984.41
924,0.924000,5042,6656994,-23308.96,-231.8,1501.4099999999999
925,0.925000,5043,6657994,-15967.96,600.2,1184.4099999999999
926,0.926000,5044,6658994,-1671.96,182.2,3468.41
927,0.927000,5045,6659994,8631.04,-152.8,3969.41
928,0.928000,5046,6660994,9257.04,59.2,1748.4099999999999
929,0.928999,5047,6661993,6253.04,759.2,-802.5900000000001
930,0.930000,5048,6662994,3543.04,1059.2,-2953.59
931,0.931000,5049,6663994,5228.04,1392.2,-4079.59
932,0.932000,5050,6664994,9194.04,488.2,-4018.59
933,0.933000,5051,6665994,7719.04,-892.8,-3594.59
934,0.933999,5052,6666993,-121.96000000000001,-665.8,-3746.59
935,0.935000,5053,6667994,-132.96,40.2,-3859.59
936,0.936000,5054,6668994,4807.04,504.2,-6063.59
937,0.937000,5055,6669994,12314.04,216.2,-5435.59
938,0.938000,5056,6670994,19232.04,-536.8,-404.59000000000015
939,0.939000,5057,6671994,13792.04,-43.8,425.40999999999985
940,0.940000,5058,6672994,734.04,922.2,-476.59000000000015
941,0.941000,5059,6673994,-8625.96,834.2,1876.4099999999999
942,0.942000,5060,6674994,-7196.96,41.2,3549.41
943,0.943000,5061,6675994,-965.96,-476.8,3653.41
944,0.944000,5062,6676994,5069.04,-1223.8,4360.41
945,0.945000,5063,6677994,4362.04,-952.8,3154.41
946,0.946000,5064,6678994,-4161.96,28.2,642.4099999999999
947,0.947000,5065,6679994,-14782.96,-603.8,1864.4099999999999
948,0.948000,5066,6680994,-26759.96,-1527.8,3099.41
949,0.949000,5067,6681994,-25011.96,-273.8,1358.4099999999999
950,0.950000,5068,6682994,-16922.96,574.2,836.4099999999999
951,0.951000,5069,6683994,-3937.96,124.2,3226.41
952,0.951999,5070,6684993,7474.04,-10.8,4053.41
953,0.953000,5071,6685994,9828.04,-30.8,2394.41
954,0.953999,5072,6686993,6846.04,531.2,-243.59000000000015
955,0.955000,5073,6687994,3498.04,1126.2,-2799.59
956,0.956000,5074,6688994,4916.04,1491.2,-3879.59
957,0.957000,5075,6689994,8260.04,607.2,-4118.59
958,0.958000,5076,6690994,8760.04,-727.8,-3568.59
959,0.959000,5077,6691994,1508.04,-774.8,-3723.59
960,0.960000,5078,6692994,-1010.96,-49.8,-4005.59
961,0.961000,5079,6693994,3436.04,466.2,-5714.59
962,0.962000,5080,6694994,10993.04,279.2,-5802.59
963,0.963000,5081,6695994,18592.04,-362.8,-1161.5900000000001
964,0.964000,5082,6696994,15846.04,-213.8,657.4099999999999
965,0.964999,5083,6697993,2848.04,809.2,-481.59000000000015
966,0.966000,5084,6698994,-7347.96,999.2,1294.4099999999999
967,0.967000,5085,6699994,-8194.96,33.2,3445.41
968,0.968000,5086,6700994,-2116.96,-499.8,3693.41
969,0.969000,5087,6701994,4536.04,-978.8,4121.41
970,0.969999,5088,6702993,4437.04,-962.8,3177.41
971,0.971000,5089,6703994,-3111.96,-154.8,996.4099999999999
972,0.972000,5090,6704994,-11984.96,-442.8,1774.4099999999999
973,0.973000,5091,6705994,-24604.96,-1487.8,3201.41
974,0.974000,5092,6706994,-25949.96,-624.8,1970.4099999999999
975,0.975000,5093,6707994,-18752.96,572.2,696.4099999999999
976,0.976000,5094,6708994,-6662.96,283.2,2762.41
977,0.977000,5095,6709994,5470.04,67.2,4118.41
978,0.978000,5096,6710994,9724.04,-160.8,2482.41
979,0.979000,5097,6711994,8546.04,388.2,91.40999999999985
980,0.980000,5098,6712994,3325.04,1092.2,-2511.59
981,0.981000,5099,6713994,4437.04,1341.2,-3837.59
982,0.982000,5100,6714994,8307.04,862.2,-4186.59
983,0.983000,5101,6715994,8652.04,-516.8,-3688.59
984,0.984000,5102,6716994,3363.04,-844.8,-3497.59
985,0.985000,5103,6717994,-1367.96,-22.8,-3853.59
986,0.986000,5104,6718994,2037.04,554.2,-5465.59
987,0.987000,5105,6719994,9926.04,202.2,-6161.59
988,0.987999,5106,6720993,17789.04,-473.8,-1870.5900000000001
989,0.989000,5107,6721994,17279.04,-157.8,756.4099999999999
990,0.990000,5108,6722994,4903.04,603.2,-457.59000000000015
991,0.990999,5109,6723993,-6869.96,954.2,713.4099999999999
992,0.991999,5110,6724993,-8507.96,346.2,3182.41
993,0.992999,5111,6725993,-3020.96,-324.8,3680.41
994,0.994000,5112,6726994,4159.04,-997.8,4243.41
995,0.995000,5113,6727994,5226.04,-1110.8,3648.41
996,0.996000,5114,6728994,-2213.96,-223.8,982.4099999999999
997,0.997000,5115,6729994,-10104.96,-453.8,1419.4099999999999
998,0.998000,5116,6730994,-22946.96,-1511.8,3201.41
999,0.999000,5117,6731994,-26601.96,-641.8,2173.41
1000,0.999999,5118,6732993,-21121.96,564.2,516.4099999999999
1001,1.001000,5119,6733994,-8533.96,292.2,2261.41
1002,1.002000,5120,6734994,4268.04,163.2,4155.41
1003,1.002999,5121,6735993,9949.04,-237.8,3120.41
1004,1.004000,5122,6736994,9443.04,217.2,707.4099999999999
1005,1.005000,5123,6737994,3210.04,1159.2,-2304.59
1006,1.006000,5124,6738994,4001.04,1438.2,-3829.59
1007,1.007000,5125,6739994,7665.04,905.2,-4170.59
1008,1.007999,5126,6740993,9016.04,-309.8,-3740.59
1009,1.008999,5127,6741993,4746.04,-792.8,-3682.59
1010,1.010000,5128,6742994,-1095.96,-159.8,-3894.59
1011,1.011000,5129,6743994,1032.04,359.2,-4832.59
1012,1.012000,5130,6744994,8498.04,316.2,-6375.59
1013,1.013000,5131,6745994,17105.04,-312.8,-2845.59
1014,1.013999,5132,6746993,17779.04,-282.8,703.4099999999999
1015,1.014999,5133,6747993,7209.04,512.2,-211.59000000000015
1016,1.016000,5134,6748994,-4707.96,932.2,506.40999999999985
1017,1.017000,5135,6749994,-9236.96,510.2,2839.41
1018,1.018000,5136,6750994,-4171.96,-255.8,3641.41
1019,1.019000,5137,6751994,2752.04,-920.8,4128.41
1020,1.020000,5138,6752994,5096.04,-1118.8,3894.41
1021,1.021000,5139,6753994,-718.96,-402.8,1434.4099999999999
1022,1.022000,5140,6754994,-8256.96,-369.8,1063.4099999999999
1023,1.023000,5141,6755994,-20663.96,-1253.8,2968.41
1024,1.024000,5142,6756994,-26472.96,-989.8,2760.41
1025,1.025000,5143,6757994,-22798.96,449.2,719.4099999999999
1026,1.026000,5144,6758994,-11841.96,516.2,1660.4099999999999
1027,1.026999,5145,6759993,2725.04,37.2,4145.41
1028,1.028000,5146,6760994,9957.04,-301.8,3461.41
1029,1.029000,5147,6761994,10308.04,266.2,930.4099999999999
1030,1.030000,5148,6762994,4107.04,981.2,-1872.5900000000001
1031,1.031000,5149,6763994,3592.04,1296.2,-3640.59
1032,1.032000,5150,6764994,7218.04,1177.2,-4205.59
1033,1.033000,5151,6765994,8869.04,-125.8,-3848.59
1034,1.034000,5152,6766994,5863.04,-795.8,-3624.59
1035,1.035000,5153,6767994,-1252.96,-263.8,-3776.59
1036,1.036000,5154,6768994,789.04,194.2,-4357.59
1037,1.036999,5155,6769993,7676.04,439.2,-6409.59
1038,1.038000,5156,6770994,15787.04,-206.8,-3685.59
1039,1.039000,5157,6771994,18548.04,-483.8,585.4099999999999
1040,1.040000,5158,6772994,8616.04,408.2,-168.59000000000015
1041,1.041000,5159,6773994,-3424.96,925.2,128.40999999999985
1042,1.042000,5160,6774994,-9035.96,626.2,2659.41
1043,1.043000,5161,6775994,-5027.96,-95.8,3594.41
1044,1.044000,5162,6776994,1972.04,-810.8,3924.41
1045,1.045000,5163,6777994,5634.04,-1255.8,4186.41
1046,1.046000,5164,6778994,591.04,-561.8,1948.4099999999999
1047,1.046999,5165,6779993,-6623.96,-314.8,940.4099999999999
1048,1.048000,5166,6780994,-19727.96,-1015.8,2638.41
1049,1.049000,5167,6781994,-27237.96,-1119.8,2704.41
1050,1.050000,5168,6782994,-23563.96,255.2,849.4099999999999
1051,1.051000,5169,6783994,-13692.96,530.2,1402.4099999999999
1052,1.052000,5170,6784994,1490.04,-20.8,4009.41
1053,1.053000,5171,6785994,9983.04,-262.8,3796.41
1054,1.053999,5172,6786993,10170.04,199.2,1346.4099999999999
1055,1.055000,5173,6787994,4357.04,918.2,-1488.5900000000001
1056,1.056000,5174,6788994,3512.04,1243.2,-3388.59
1057,1.057000,5175,6789994,6126.04,1358.2,-4192.59
1058,1.058000,5176,6790994,8961.04,87.2,-3925.59
1059,1.058999,5177,6791993,7317.04,-821.8,-3512.59
1060,1.060000,5178,6792994,-1005.96,-448.8,-3830.59
1061,1.061000,5179,6793994,720.04,73.2,-4157.59
1062,1.062000,5180,6794994,6638.04,465.2,-6284.59
1063,1.063000,5181,6795994,13637.04,83.2,-4784.59
1064,1.064000,5182,6796994,19232.04,-443.8,125.40999999999985
1065,1.065000,5183,6797994,10893.04,65.2,388.40999999999985
1066,1.066000,5184,6798994,-1613.96,953.2,-237.59000000000015
1067,1.067000,5185,6799994,-8584.96,846.2,2184.41
1068,1.068000,5186,6800994,-6609.96,-164.8,3719.41
1069,1.069000,5187,6801994,584.04,-760.8,3895.41
1070,1.070000,5188,6802994,5489.04,-1153.8,4234.41
1071,1.071000,5189,6803994,1897.04,-683.8,2319.41
1072,1.072000,5190,6804994,-4787.96,-159.8,802.4099999999999
1073,1.073000,5191,6805994,-18294.96,-733.8,2368.41
1074,1.074000,5192,6806994,-27090.96,-1358.8,2985.41
1075,1.075000,5193,6807994,-23556.96,-100.8,1275.4099999999999
1076,1.076000,5194,6808994,-15782.96,662.2,1111.4099999999999
1077,1.077000,5195,6809994,-686.96,105.2,3699.41
1078,1.078000,5196,6810994,9262.04,-242.8,3934.41
1079,1.079000,5197,6811994,9987.04,128.2,1621.4099999999999
1080,1.080000,5198,6812994,5604.04,772.2,-1004.5900000000001
1081,1.081000,5199,6813994,3569.04,1085.2,-3158.59
1082,1.082000,5200,6814994,5394.04,1400.2,-4111.59
1083,1.083000,5201,6815994,8864.04,388.2,-4133.59
1084,1.084000,5202,6816994,7748.04,-851.8,-3632.59
1085,1.085000,5203,6817994,-154.96,-633.8,-3586.59
1086,1.086000,5204,6818994,269.04,15.2,-3903.59
1087,1.086999,5205,6819993,5626.04,490.2,-6174.59
1088,1.088000,5206,6820994,12208.04,176.2,-5265.59
1089,1.089000,5207,6821994,19081.04,-523.8,-314.59000000000015
1090,1.090000,5208,6822994,13080.04,-7.800000000000001,395.40999999999985
1091,1.091000,5209,6823994,-344.96,1007.2,-467.59000000000015
1092,1.092000,5210,6824994,-8305.96,872.2,1893.4099999999999
1093,1.093000,5211,6825994,-6785.96,-68.8,3667.41
1094,1.094000,5212,6826994,-534.96,-468.8,3783.41
1095,1.095000,5213,6827994,5240.04,-1166.8,4333.41
1096,1.096000,5214,6828994,3593.04,-941.8,2923.41
1097,1.096999,5215,6829993,-4348.96,-23.8,693.4099999999999
1098,1.098000,5216,6830994,-16127.96,-576.8,1980.4099999999999
1099,1.099000,5217,6831994,-27152.96,-1447.8,2995.41
1100,1.099999,5218,6832993,-24479.96,-236.8,1373.4099999999999
1101,1.101000,5219,6833994,-16584.96,608.2,937.4099999999999
1102,1.101999,5220,6834993,-2608.96,141.2,3388.41
1103,1.103000,5221,6835994,8115.04,-97.8,4068.41
1104,1.103999,5222,6836993,9797.04,-15.8,2139.41
1105,1.104999,5223,6837993,6666.04,627.2,-419.59000000000015
1106,1.105999,5224,6838993,3101.04,1155.2,-3019.59
1107,1.107000,5225,6839994,5249.04,1414.2,-3997.59
1108,1.108000,5226,6840994,8421.04,571.2,-4075.59
1109,1.109000,5227,6841994,8350.04,-805.8,-3634.59
1110,1.110000,5228,6842994,1417.04,-810.8,-3648.59
1111,1.111000,5229,6843994,-917.96,27.2,-3985.59
1112,1.112000,5230,6844994,4305.04,482.2,-5769.59
1113,1.113000,5231,6845994,11211.04,198.2,-5697.59
1114,1.114000,5232,6846994,18301.04,-360.8,-1083.5900000000001
1115,1.115000,5233,6847994,15519.04,-113.8,735.4099999999999
1116,1.115999,5234,6848993,2090.04,746.2,-399.59000000000015
1117,1.117000,5235,6849994,-7708.96,971.2,1399.4099999999999
1118,1.118000,5236,6850994,-7754.96,49.2,3487.41
1119,1.118999,5237,6851993,-2042.96,-493.8,3719.41
1120,1.120000,5238,6852994,4739.04,-1058.8,4271.41
1121,1.121000,5239,6853994,4357.04,-1024.8,3177.41
1122,1.122000,5240,6854994,-3550.96,10.2,789.4099999999999
1123,1.122999,5241,6855993,-13143.96,-444.8,1793.4099999999999
1124,1.123999,5242,6856993,-25683.96,-1583.8,3275.41
1125,1.125000,5243,6857994,-25616.96,-410.8,1705.4099999999999
1126,1.126000,5244,6858994,-18156.96,567.2,729.4099999999999
1127,1.127000,5245,6859994,-5269.96,130.2,3104.41
1128,1.128000,5246,6860994,6394.04,103.2,4135.41
1129,1.129000,5247,6861994,10005.04,-87.8,2440.41
1130,1.130000,5248,6862994,8023.04,370.2,-42.590000000000146
1131,1.131000,5249,6863994,3145.04,1169.2,-2797.59
1132,1.132000,5250,6864994,4799.04,1408.2,-3924.59
1133,1.132999,5251,6865993,8084.04,702.2,-4145.59
1134,1.134000,5252,6866994,8559.04,-593.8,-3765.59
1135,1.135000,5253,6867994,3012.04,-830.8,-3581.59
1136,1.136000,5254,6868994,-1080.96,-69.8,-3784.59
1137,1.137000,5255,6869994,2509.04,489.2,-5553.59
1138,1.138000,5256,6870994,10350.04,253.2,-6022.59
1139,1.139000,5257,6871994,17765.04,-418.8,-1552.5900000000001
1140,1.140000,5258,6872994,16741.04,-172.8,728.4099999999999
1141,1.141000,5259,6873994,4345.04,681.2,-407.59000000000015
1142,1.142000,5260,6874994,-7386.96,1039.2,981.4099999999999
1143,1.143000,5261,6875994,-8263.96,249.2,3325.41
1144,1.144000,5262,6876994,-2398.96,-417.8,3713.41
1145,1.145000,5263,6877994,4275.04,-962.8,4229.41
1146,1.145999,5264,6878993,5050.04,-1044.8,3557.41
1147,1.147000,5265,6879994,-2594.96,-288.8,1133.4099999999999
1148,1.148000,5266,6880994,-11535.96,-381.8,1418.4099999999999
1149,1.149000,5267,6881994,-24076.96,-1468.8,2912.41
1150,1.149999,5268,6882993,-26408.96,-654.8,2065.41
1151,1.151000,5269,6883994,-20261.96,606.2,604.4099999999999
1152,1.152000,5270,6884994,-6850.96,176.2,2691.41
1153,1.153000,5271,6885994,5057.04,56.2,4177.41
1154,1.154000,5272,6886994,9972.04,-149.8,2773.41
1155,1.155000,5273,6887994,9073.04,314.2,637.4099999999999
1156,1.155999,5274,6888993,2572.04,1107.2,-2372.59
1157,1.157000,5275,6889994,4481.04,1438.2,-3843.59
1158,1.158000,5276,6890994,7897.04,889.2,-4187.59
1159,1.159000,5277,6891994,8951.04,-416.8,-3659.59
1160,1.160000,5278,6892994,4529.04,-909.8,-3454.59
1161,1.161000,5279,6893994,-1242.96,-140.8,-3996.59
1162,1.162000,5280,6894994,1132.04,435.2,-5233.59
1163,1.163000,5281,6895994,8806.04,190.2,-6195.59
1164,1.164000,5282,6896994,17237.04,-322.8,-2503.59
1165,1.164999,5283,6897993,17884.04,-201.8,664.4099999999999
1166,1.166000,5284,6898994,6570.04,443.2,-218.59000000000015
1167,1.167000,5285,6899994,-5604.96,1005.2,480.40999999999985
1168,1.168000,5286,6900994,-8817.96,460.2,2986.41
1169,1.169000,5287,6901994,-3942.96,-404.8,3853.41
1170,1.170000,5288,6902994,3187.04,-907.8,4117.41
1171,1.171000,5289,6903994,5094.04,-1033.8,3688.41
1172,1.171999,5290,6904993,-1489.96,-394.8,1323.4099999999999
1173,1.173000,5291,6905994,-8903.96,-378.8,1268.4099999999999
1174,1.174000,5292,6906994,-21982.96,-1329.8,2909.41
1175,1.175000,5293,6907994,-26769.96,-793.8,2379.41
1176,1.175999,5294,6908993,-22300.96,505.2,740.4099999999999
1177,1.177000,5295,6909994,-10373.96,354.2,2043.4099999999999
1178,1.178000,5296,6910994,3935.04,83.2,4236.41
1179,1.179000,5297,6911994,9971.04,-288.8,3269.41
1180,1.179999,5298,6912993,10372.04,296.2,835.4099999999999
1181,1.180999,5299,6913993,3590.04,1119.2,-1983.5900000000001
1182,1.182000,5300,6914994,3697.04,1318.2,-3705.59
1183,1.183000,5301,6915994,7436.04,1060.2,-4193.59
1184,1.183999,5302,6916993,8517.04,-194.8,-3795.59
1185,1.185000,5303,6917994,5351.04,-888.8,-3526.59
1186,1.186000,5304,6918994,-1075.96,-227.8,-3807.59
1187,1.187000,5305,6919994,1132.04,355.2,-4808.59
1188,1.188000,5306,6920994,8244.04,279.2,-6557.59
1189,1.189000,5307,6921994,16321.04,-317.8,-3265.59
1190,1.189999,5308,6922993,18343.04,-322.8,661.4099999999999
1191,1.191000,5309,6923994,7566.04,388.2,-347.59000000000015
1192,1.191999,5310,6924993,-4315.96,971.2,178.40999999999985
1193,1.192999,5311,6925993,-8806.96,569.2,2812.41
1194,1.194000,5312,6926994,-4409.96,-192.8,3633.41
1195,1.195000,5313,6927994,2568.04,-855.8,4051.41
1196,1.195999,5314,6928993,5463.04,-1185.8,4110.41
1197,1.197000,5315,6929994,-249.96,-454.8,1760.4099999999999
1198,1.198000,5316,6930994,-7897.96,-355.8,1071.4099999999999
1199,1.199000,5317,6931994,-20334.96,-1209.8,2744.41
1200,1.200000,5318,6932994,-27004.96,-922.8,2421.41
1201,1.201000,5319,6933994,-23411.96,416.2,760.4099999999999
1202,1.202000,5320,6934994,-12599.96,372.2,1907.4099999999999
1203,1.202999,5321,6935993,2806.04,16.2,4189.41
1204,1.203999,5322,6936993,9914.04,-245.8,3573.41
1205,1.205000,5323,6937994,10078.04,280.2,1277.4099999999999
1206,1.205999,5324,6938993,4398.04,1023.2,-1451.5900000000001
1207,1.207000,5325,6939994,3402.04,1287.2,-3522.59
1208,1.207999,5326,6940993,6977.04,1236.2,-4245.59
1209,1.209000,5327,6941994,8785.04,-35.8,-3872.59
1210,1.209999,5328,6942993,6380.04,-871.8,-3585.59
1211,1.211000,5329,6943994,-1023.96,-393.8,-3888.59
1212,1.211999,5330,6944993,639.04,107.2,-4501.59
1213,1.212999,5331,6945993,7250.04,417.2,-6527.59
1214,1.214000,5332,6946994,14840.04,-57.8,-4298.59
1215,1.215000,5333,6947994,19081.04,-494.8,329.40999999999985
1216,1.215999,5334,6948993,9663.04,222.2,-2.5900000000001455
1217,1.216999,5335,6949993,-2616.96,950.2,-195.59000000000015
1218,1.217999,5336,6950993,-8734.96,734.2,2463.41
1219,1.219000,5337,6951994,-6011.96,-137.8,3783.41
1220,1.220000,5338,6952994,1256.04,-731.8,3950.41
1221,1.220999,5339,6953993,5581.04,-1111.8,4168.41
1222,1.222000,5340,6954994,1065.04,-628.8,2153.41
1223,1.222999,5341,6955993,-5376.96,-303.8,1020.4099999999999
1224,1.224000,5342,6956994,-19246.96,-855.8,2474.41
1225,1.225000,5343,6957994,-27152.96,-1176.8,2783.41
1226,1.226000,5344,6958994,-23711.96,103.2,1128.4099999999999
1227,1.226999,5345,6959993,-15195.96,645.2,1314.4099999999999
1228,1.227999,5346,6960993,745.04,-17.8,4064.41
1229,1.229000,5347,6961994,9501.04,-290.8,3880.41
1230,1.230000,5348,6962994,10541.04,245.2,1542.4099999999999
1231,1.231000,5349,6963994,5271.04,850.2,-1027.5900000000001
1232,1.232000,5350,6964994,3653.04,1158.2,-3295.59
1233,1.233000,5351,6965994,5693.04,1401.2,-4271.59
1234,1.234000,5352,6966994,8487.04,234.2,-4121.59
1235,1.235000,5353,6967994,7267.04,-887.8,-3529.59
1236,1.236000,5354,6968994,-758.96,-588.8,-3596.59
1237,1.237000,5355,6969994,1109.04,62.2,-4119.59
1238,1.238000,5356,6970994,6464.04,508.2,-6472.59
1239,1.239000,5357,6971994,13188.04,31.2,-4916.59
1240,1.240000,5358,6972994,19143.04,-532.8,-103.59000000000015
1241,1.241000,5359,6973994,11201.04,90.2,-0.5900000000001455
1242,1.242000,5360,6974994,-1257.96,880.2,-337.59000000000015
1243,1.243000,5361,6975994,-8302.96,740.2,2265.41
1244,1.244000,5362,6976994,-6507.96,-55.8,3680.41
1245,1.244999,5363,6977993,345.04,-579.8,3832.41
1246,1.246000,5364,6978994,5620.04,-1187.8,4415.41
1247,1.246999,5365,6979993,2362.04,-757.8,2673.41
1248,1.248000,5366,6980994,-4341.96,-114.8,863.4099999999999
1249,1.248999,5367,6981993,-17277.96,-670.8,2248.41
1250,1.249999,5368,6982993,-27498.96,-1267.8,2732.41
1251,1.251000,5369,6983994,-23877.96,-48.8,1251.4099999999999
1252,1.251999,5370,6984993,-16262.96,526.2,1244.4099999999999
1253,1.252999,5371,6985993,-1478.96,46.2,3758.41
1254,1.254000,5372,6986994,8593.04,-99.8,4061.41
1255,1.255000,5373,6987994,10096.04,64.2,2029.4099999999999
1256,1.256000,5374,6988994,6058.04,748.2,-495.59000000000015
1257,1.257000,5375,6989994,3371.04,1141.2,-3145.59
1258,1.258000,5376,6990994,5420.04,1382.2,-4153.59
1259,1.258999,5377,6991993,8125.04,475.2,-4113.59
1260,1.260000,5378,6992994,8038.04,-805.8,-3553.59
1261,1.261000,5379,6993994,354.04,-766.8,-3605.59
1262,1.262000,5380,6994994,-118.96000000000001,9.2,-4082.59
1263,1.262999,5381,6995993,5293.04,450.2,-6107.59
1264,1.264000,5382,6996994,11906.04,164.2,-5509.59
1265,1.265000,5383,6997994,18777.04,-377.8,-720.5900000000001
1266,1.266000,5384,6998994,13911.04,-59.8,295.40999999999985
1267,1.267000,5385,6999994,1049.04,764.2,-459.59000000000015
1268,1.268000,5386,7000994,-8042.96,846.2,1684.4099999999999
1269,1.268999,5387,7001993,-7217.96,-29.8,3498.41
1270,1.270000,5388,7002994,-1103.96,-502.8,3800.41
1271,1.271000,5389,7003994,4599.04,-1013.8,4217.41
1272,1.272000,5390,7004994,3711.04,-914.8,3025.41
1273,1.273000,5391,7005994,-3566.96,-69.8,917.4099999999999
1274,1.274000,5392,7006994,-14099.96,-518.8,2019.4099999999999
1275,1.275000,5393,7007994,-26080.96,-1468.8,3058.41
1276,1.276000,5394,7008994,-25051.96,-303.8,1527.4099999999999
1277,1.277000,5395,7009994,-18012.96,592.2,878.4099999999999
1278,1.277999,5396,7010993,-4359.96,86.2,3439.41
1279,1.279000,5397,7011994,6891.04,62.2,4151.41
1280,1.280000,5398,7012994,10112.04,22.2,2275.41
1281,1.281000,5399,7013994,7857.04,449.2,11.409999999999854
1282,1.282000,5400,7014994,3380.04,1079.2,-2776.59
1283,1.283000,5401,7015994,4876.04,1424.2,-3954.59
1284,1.284000,5402,7016994,7702.04,701.2,-4166.59
1285,1.285000,5403,7017994,8300.04,-644.8,-3671.59
1286,1.286000,5404,7018994,2085.04,-877.8,-3489.59
1287,1.287000,5405,7019994,-806.96,-75.8,-3972.59
1288,1.287999,5406,7020993,3917.04,453.2,-5811.59
1289,1.289000,5407,7021994,10870.04,170.2,-5895.59
1290,1.289999,5408,7022993,17946.04,-402.8,-1386.5900000000001
1291,1.291000,5409,7023994,15668.04,-159.8,476.40999999999985
1292,1.292000,5410,7024994,3152.04,695.2,-629.5900000000001
1293,1.293000,5411,7025994,-7322.96,957.2,1165.4099999999999
1294,1.294000,5412,7026994,-8105.96,128.2,3342.41
1295,1.295000,5413,7027994,-1620.96,-493.8,3790.41
1296,1.296000,5414,7028994,4402.04,-955.8,4280.41
1297,1.296999,5415,7029993,4499.04,-893.8,3362.41
1298,1.298000,5416,7030994,-2978.96,-252.8,1168.4099999999999
1299,1.299000,5417,7031994,-12031.96,-490.8,1617.4099999999999
1300,1.300000,5418,7032994,-24523.96,-1407.8,2863.41
1301,1.301000,5419,7033994,-25902.96,-606.8,1860.4099999999999
1302,1.302000,5420,7034994,-19369.96,527.2,849.4099999999999
1303,1.303000,5421,7035994,-6692.96,231.2,2937.41
1304,1.304000,5422,7036994,5287.04,138.2,4126.41
1305,1.304999,5423,7037993,9594.04,-65.8,2641.41
1306,1.306000,5424,7038994,8967.04,365.2,586.4099999999999
1307,1.306999,5425,7039993,3036.04,1043.2,-2264.59
1308,1.307999,5426,7040993,4543.04,1394.2,-3928.59
1309,1.309000,5427,7041994,7918.04,872.2,-4301.59
1310,1.310000,5428,7042994,8294.04,-460.8,-3740.59
1311,1.311000,5429,7043994,3936.04,-894.8,-3456.59
1312,1.312000,5430,7044994,-1040.96,-149.8,-4056.59
1313,1.312999,5431,7045993,2082.04,444.2,-5503.59
1314,1.314000,5432,7046994,9718.04,137.2,-6095.59
1315,1.315000,5433,7047994,17521.04,-407.8,-2237.59
1316,1.315999,5434,7048993,17218.04,-88.8,393.40999999999985
1317,1.317000,5435,7049994,5429.04,505.2,-485.59000000000015
1318,1.317999,5436,7050993,-6067.96,813.2,758.4099999999999
1319,1.319000,5437,7051994,-8585.96,414.2,3047.41
1320,1.319999,5438,7052993,-3406.96,-366.8,3788.41
1321,1.321000,5439,7053994,3302.04,-935.8,4170.41
1322,1.322000,5440,7054994,5090.04,-939.8,3574.41
1323,1.323000,5441,7055994,-1681.96,-343.8,1354.4099999999999
1324,1.324000,5442,7056994,-9497.96,-443.8,1495.4099999999999
1325,1.325000,5443,7057994,-21925.96,-1361.8,3074.41
1326,1.326000,5444,7058994,-26832.96,-755.8,2300.41
1327,1.327000,5445,7059994,-22098.96,601.2,679.4099999999999
1328,1.327999,5446,7060993,-9514.96,292.2,2326.41
1329,1.328999,5447,7061993,3831.04,51.2,4195.41
1330,1.329999,5448,7062993,10272.04,-168.8,3090.41
1331,1.331000,5449,7063994,10071.04,261.2,959.4099999999999
1332,1.332000,5450,7064994,3315.04,1098.2,-1965.5900000000001
1333,1.333000,5451,7065994,3821.04,1353.2,-3808.59
1334,1.334000,5452,7066994,7237.04,988.2,-4326.59
1335,1.335000,5453,7067994,8684.04,-210.8,-3829.59
1336,1.336000,5454,7068994,5372.04,-848.8,-3453.59
1337,1.337000,5455,7069994,-959.96,-302.8,-3808.59
1338,1.338000,5456,7070994,1211.04,378.2,-5035.59
1339,1.339000,5457,7071994,8321.04,323.2,-6517.59
1340,1.340000,5458,7072994,16335.04,-360.8,-3023.59
1341,1.340999,5459,7073993,18161.04,-379.8,576.4099999999999
1342,1.342000,5460,7074994,7272.04,400.2,-432.59000000000015
1343,1.343000,5461,7075994,-4548.96,982.2,279.40999999999985
1344,1.344000,5462,7076994,-8711.96,531.2,2965.41
1345,1.345000,5463,7077994,-4355.96,-280.8,3734.41
1346,1.346000,5464,7078994,2638.04,-726.8,3969.41
1347,1.347000,5465,7079994,5367.04,-1113.8,4014.41
1348,1.347999,5466,7080993,-397.96,-629.8,1813.4099999999999
1349,1.349000,5467,7081994,-7813.96,-368.8,1204.4099999999999
1350,1.350000,5468,7082994,-20703.96,-1110.8,2669.41
1351,1.351000,5469,7083994,-27046.96,-906.8,2410.41
1352,1.351999,5470,7084993,-22927.96,446.2,871.4099999999999
1353,1.353000,5471,7085994,-12156.96,399.2,1835.4099999999999
1354,1.353999,5472,7086993,2659.04,-10.8,4127.41
1355,1.355000,5473,7087994,10024.04,-228.8,3636.41
1356,1.356000,5474,7088994,10261.04,264.2,1418.4099999999999
1357,1.357000,5475,7089994,3950.04,1088.2,-1525.5900000000001
1358,1.358000,5476,7090994,3399.04,1268.2,-3667.59
1359,1.359000,5477,7091994,6857.04,1191.2,-4401.59
1360,1.360000,5478,7092994,8729.04,-28.8,-3882.59
1361,1.360999,5479,7093993,6659.04,-919.8,-3428.59
1362,1.362000,5480,7094994,-1045.96,-383.8,-3895.59
1363,1.363000,5481,7095994,769.04,133.2,-4611.59
1364,1.364000,5482,7096994,7249.04,400.2,-6516.59
1365,1.365000,5483,7097994,14840.04,-128.8,-4109.59
1366,1.365999,5484,7098993,18954.04,-454.8,338.40999999999985
1367,1.367000,5485,7099994,9425.04,232.2,106.40999999999985
1368,1.368000,5486,7100994,-2809.96,928.2,-91.59000000000015
1369,1.369000,5487,7101994,-8695.96,727.2,2405.41
1370,1.370000,5488,7102994,-5714.96,-206.8,3840.41
1371,1.371000,5489,7103994,1180.04,-763.8,3882.41
1372,1.372000,5490,7104994,5526.04,-1089.8,4133.41
1373,1.373000,5491,7105994,987.04,-656.8,2215.41
1374,1.374000,5492,7106994,-5573.96,-308.8,988.4099999999999
1375,1.375000,5493,7107994,-19167.96,-832.8,2416.41
1376,1.376000,5494,7108994,-27236.96,-1190.8,2585.41
1377,1.377000,5495,7109994,-23542.96,81.2,1140.4099999999999
1378,1.378000,5496,7110994,-15040.96,562.2,1429.4099999999999
1379,1.379000,5497,7111994,1242.04,37.2,3961.41
1380,1.380000,5498,7112994,9342.04,-202.8,3879.41
1381,1.381000,5499,7113994,10344.04,240.2,1545.4099999999999
1382,1.382000,5500,7114994,5667.04,876.2,-967.5900000000001
1383,1.383000,5501,7115994,3122.04,1116.2,-3288.59
1384,1.384000,5502,7116994,5946.04,1348.2,-4309.59
1385,1.385000,5503,7117994,8424.04,219.2,-4066.59
1386,1.386000,5504,7118994,7149.04,-880.8,-3565.59
1387,1.387000,5505,7119994,-712.96,-489.8,-3756.59
1388,1.388000,5506,7120994,1005.04,-51.8,-4140.59
1389,1.389000,5507,7121994,6639.04,466.2,-6379.59
1390,1.390000,5508,7122994,13179.04,104.2,-4902.59
1391,1.390999,5509,7123993,19077.04,-551.8,32.409999999999854
1392,1.392000,5510,7124994,10972.04,138.2,101.40999999999985
1393,1.393000,5511,7125994,-1169.96,897.2,-441.59000000000015
1394,1.394000,5512,7126994,-8159.96,773.2,2179.41
1395,1.395000,5513,7127994,-6447.96,9.2,3712.41
1396,1.395999,5514,7128993,370.04,-636.8,3863.41
1397,1.397000,5515,7129994,5342.04,-1272.8,4282.41
1398,1.398000,5516,7130994,2201.04,-763.8,2617.41
1399,1.399000,5517,7131994,-4558.96,-131.8,904.4099999999999
1400,1.400000,5518,7132994,-17438.96,-696.8,2195.41
1401,1.401000,5519,7133994,-27241.96,-1264.8,2721.41
1402,1.402000,5520,7134994,-23882.96,-38.8,1167.4099999999999
1403,1.403000,5521,7135994,-16167.96,563.2,1194.4099999999999
1404,1.404000,5522,7136994,-1242.96,-4.800000000000001,3838.41
1405,1.405000,5523,7137994,8675.04,-89.8,4055.41
1406,1.406000,5524,7138994,9937.04,207.2,1991.4099999999999
1407,1.407000,5525,7139994,6110.04,670.2,-502.59000000000015
1408,1.407999,5526,7140993,3727.04,1060.2,-3087.59
1409,1.409000,5527,7141994,5172.04,1503.2,-4230.59
1410,1.410000,5528,7142994,8396.04,416.2,-4123.59
1411,1.411000,5529,7143994,8110.04,-879.8,-3509.59
1412,1.412000,5530,7144994,425.04,-738.8,-3680.59
1413,1.413000,5531,7145994,-131.96,-64.8,-4039.59
1414,1.414000,5532,7146994,5174.04,427.2,-5973.59
1415,1.414999,5533,7147993,11725.04,245.2,-5545.59
1416,1.415999,5534,7148993,18372.04,-350.8,-869.5900000000001
1417,1.417000,5535,7149994,14334.04,-124.8,560.4099999999999
1418,1.418000,5536,7150994,943.04,808.2,-473.59000000000015
1419,1.419000,5537,7151994,-8066.96,920.2,1549.4099999999999
1420,1.420000,5538,7152994,-7438.96,-67.8,3646.41
1421,1.421000,5539,7153994,-1127.96,-510.8,3798.41
1422,1.422000,5540,7154994,5004.04,-979.8,4261.41
1423,1.423000,5541,7155994,3776.04,-961.8,3114.41
1424,1.424000,5542,7156994,-3600.96,-73.8,963.4099999999999
1425,1.425000,5543,7157994,-14387.96,-458.8,1852.4099999999999
1426,1.426000,5544,7158994,-26348.96,-1467.8,2968.41
1427,1.426999,5545,7159993,-25017.96,-387.8,1561.4099999999999
1428,1.427999,5546,7160993,-17628.96,612.2,905.4099999999999
1429,1.428999,5547,7161993,-4200.96,140.2,3349.41
1430,1.429999,5548,7162993,7127.04,33.2,4048.41
1431,1.431000,5549,7163994,9934.04,33.2,2322.41
1432,1.432000,5550,7164994,7670.04,464.2,8.409999999999854
1433,1.433000,5551,7165994,3534.04,1089.2,-2711.59
1434,1.434000,5552,7166994,4478.04,1449.2,-4030.59
1435,1.435000,5553,7167994,8079.04,745.2,-4217.59
1436,1.435999,5554,7168993,8480.04,-677.8,-3628.59
1437,1.437000,5555,7169994,1952.04,-884.8,-3530.59
1438,1.438000,5556,7170994,-600.96,-69.8,-3950.59
1439,1.439000,5557,7171994,3523.04,454.2,-5821.59
1440,1.439999,5558,7172993,10762.04,226.2,-5905.59
1441,1.441000,5559,7173994,17805.04,-362.8,-1476.5900000000001
1442,1.442000,5560,7174994,15782.04,-134.8,471.40999999999985
1443,1.443000,5561,7175994,3316.04,675.2,-568.5900000000001
1444,1.444000,5562,7176994,-7211.96,906.2,1168.4099999999999
1445,1.445000,5563,7177994,-7927.96,121.2,3519.41
1446,1.446000,5564,7178994,-2211.96,-399.8,3716.41
1447,1.447000,5565,7179994,4446.04,-939.8,4209.41
1448,1.448000,5566,7180994,4586.04,-1052.8,3593.41
1449,1.448999,5567,7181993,-3196.96,-154.8,1060.4099999999999
1450,1.450000,5568,7182994,-11731.96,-404.8,1442.4099999999999
1451,1.451000,5569,7183994,-24667.96,-1479.8,2905.41
1452,1.451999,5570,7184993,-26135.96,-473.8,1886.4099999999999
1453,1.453000,5571,7185994,-19109.96,540.2,913.4099999999999
1454,1.454000,5572,7186994,-6567.96,143.2,2934.41
1455,1.455000,5573,7187994,5403.04,192.2,4133.41
1456,1.456000,5574,7188994,9870.04,-87.8,2807.41
1457,1.457000,5575,7189994,8886.04,329.2,545.4099999999999
1458,1.458000,5576,7190994,3197.04,1145.2,-2474.59
1459,1.458999,5577,7191993,4048.04,1383.2,-4080.59
1460,1.460000,5578,7192994,8019.04,867.2,-4196.59
1461,1.461000,5579,7193994,8727.04,-479.8,-3583.59
1462,1.462000,5580,7194994,3754.04,-934.8,-3574.59
1463,1.463000,5581,7195994,-1003.96,-80.8,-4007.59
1464,1.464000,5582,7196994,1863.04,395.2,-5312.59
1465,1.465000,5583,7197994,9648.04,213.2,-6212.59
1466,1.465999,5584,7198993,17354.04,-308.8,-2282.59
1467,1.467000,5585,7199994,17096.04,-284.8,627.4099999999999
1468,1.467999,5586,7200993,5734.04,530.2,-429.59000000000015
1469,1.469000,5587,7201994,-5944.96,975.2,679.4099999999999
1470,1.469999,5588,7202993,-8886.96,282.2,3061.41
1471,1.471000,5589,7203994,-3308.96,-314.8,3799.41
1472,1.471999,5590,7204993,3313.04,-804.8,4133.41
1473,1.473000,5591,7205994,5178.04,-1024.8,3597.41
1474,1.473999,5592,7206993,-1774.96,-407.8,1470.4099999999999
1475,1.475000,5593,7207994,-9631.96,-475.8,1599.4099999999999
1476,1.476000,5594,7208994,-21955.96,-1327.8,3031.41
1477,1.477000,5595,7209994,-26923.96,-778.8,2134.41
1478,1.478000,5596,7210994,-21847.96,586.2,552.4099999999999
1479,1.479000,5597,7211994,-9540.96,304.2,2286.41
1480,1.480000,5598,7212994,4108.04,15.2,4285.41
1481,1.481000,5599,7213994,10125.04,-124.8,3111.41
1482,1.482000,5600,7214994,10255.04,296.2,870.4099999999999
1483,1.483000,5601,7215994,3363.04,1057.2,-1969.5900000000001
1484,1.484000,5602,7216994,3812.04,1319.2,-3739.59
1485,1.485000,5603,7217994,7409.04,1085.2,-4328.59
1486,1.485999,5604,7218993,8298.04,-223.8,-3759.59
1487,1.487000,5605,7219994,5474.04,-913.8,-3392.59
1488,1.488000,5606,7220994,-965.96,-210.8,-3999.59
1489,1.489000,5607,7221994,1377.04,268.2,-4978.59
1490,1.490000,5608,7222994,8321.04,229.2,-6466.59
1491,1.490999,5609,7223993,16377.04,-257.8,-3151.59
1492,1.492000,5610,7224994,17694.04,-334.8,596.4099999999999
1493,1.493000,5611,7225994,7291.04,410.2,-281.59000000000015
1494,1.494000,5612,7226994,-4270.96,970.2,321.40999999999985
1495,1.495000,5613,7227994,-8780.96,556.2,2815.41
1496,1.496000,5614,7228994,-3975.96,-273.8,3849.41
1497,1.497000,5615,7229994,2289.04,-920.8,4044.41
1498,1.498000,5616,7230994,5444.04,-1080.8,3887.41
1499,1.499000,5617,7231994,-623.96,-523.8,1793.4099999999999
1500,1.500000,5618,7232994,-8433.96,-420.8,1108.4099999999999
1501,1.501000,5619,7233994,-20436.96,-1063.8,2672.41
1502,1.502000,5620,7234994,-26745.96,-950.8,2450.41
1503,1.503000,5621,7235994,-22707.96,409.2,916.4099999999999
1504,1.504000,5622,7236994,-12185.96,487.2,1887.4099999999999
1505,1.505000,5623,7237994,2780.04,-26.8,4186.41
1506,1.505999,5624,7238993,9798.04,-221.8,3669.41
1507,1.507000,5625,7239994,10068.04,290.2,1250.4099999999999
1508,1.508000,5626,7240994,4181.04,1025.2,-1602.5900000000001
1509,1.509000,5627,7241994,3627.04,1257.2,-3611.59
1510,1.509999,5628,7242993,7000.04,1163.2,-4367.59
1511,1.511000,5629,7243994,8721.04,-21.8,-3967.59
1512,1.512000,5630,7244994,6468.04,-870.8,-3526.59
1513,1.513000,5631,7245994,-1258.96,-426.8,-3900.59
1514,1.514000,5632,7246994,993.04,59.2,-4391.59
1515,1.515000,5633,7247994,7250.04,431.2,-6454.59
1516,1.516000,5634,7248994,14703.04,-74.8,-4375.59
1517,1.517000,5635,7249994,18921.04,-456.8,345.40999999999985
1518,1.518000,5636,7250994,9509.04,196.2,210.40999999999985
1519,1.519000,5637,7251994,-2720.96,952.2,-66.59000000000015
1520,1.520000,5638,7252994,-8862.96,744.2,2383.41
1521,1.520999,5639,7253993,-5808.96,-181.8,3864.41
1522,1.522000,5640,7254994,1348.04,-717.8,4047.41
1523,1.523000,5641,7255994,5475.04,-1131.8,4112.41
1524,1.524000,5642,7256994,1196.04,-665.8,2303.41
1525,1.525000,5643,7257994,-5735.96,-302.8,1087.4099999999999
1526,1.526000,5644,7258994,-19365.96,-825.8,2390.41
1527,1.526999,5645,7259993,-26960.96,-1279.8,2709.41
1528,1.528000,5646,7260994,-23835.96,164.2,880.4099999999999
1529,1.529000,5647,7261994,-14930.96,630.2,1297.4099999999999
1530,1.530000,5648,7262994,1128.04,-106.8,4073.41
1531,1.531000,5649,7263994,9853.04,-169.8,3845.41
1532,1.532000,5650,7264994,10317.04,263.2,1535.4099999999999
1533,1.533000,5651,7265994,5236.04,815.2,-1077.5900000000001
1534,1.534000,5652,7266994,3474.04,1175.2,-3251.59
1535,1.535000,5653,7267994,5553.04,1405.2,-4245.59
1536,1.536000,5654,7268994,8894.04,231.2,-3995.59
1537,1.537000,5655,7269994,7274.04,-902.8,-3494.59
1538,1.538000,5656,7270994,-611.96,-540.8,-3748.59
1539,1.539000,5657,7271994,1011.04,-14.8,-4090.59
1540,1.539999,5658,7272993,5893.04,472.2,-6410.59
1541,1.541000,5659,7273994,13261.04,151.2,-4964.59
1542,1.542000,5660,7274994,18782.04,-630.8,-31.590000000000146
1543,1.543000,5661,7275994,11252.04,88.2,187.40999999999985
1544,1.544000,5662,7276994,-733.96,959.2,-270.59000000000015
1545,1.544999,5663,7277993,-8436.96,753.2,2164.41
1546,1.546000,5664,7278994,-6186.96,-42.8,3777.41
1547,1.547000,5665,7279994,80.03999999999999,-609.8,3817.41
1548,1.548000,5666,7280994,5315.04,-1167.8,4218.41
1549,1.549000,5667,7281994,2394.04,-801.8,2714.41
1550,1.549999,5668,7282993,-4731.96,-189.8,829.4099999999999
1551,1.550999,5669,7283993,-17422.96,-664.8,2051.41
1552,1.552000,5670,7284994,-27408.96,-1301.8,2687.41
1553,1.553000,5671,7285994,-23653.96,-126.8,1286.4099999999999
1554,1.554000,5672,7286994,-15878.96,585.2,1229.4099999999999
1555,1.555000,5673,7287994,-1294.96,20.2,3763.41
1556,1.556000,5674,7288994,8744.04,-166.8,4058.41
1557,1.557000,5675,7289994,9925.04,217.2,1927.4099999999999
1558,1.557999,5676,7290993,6080.04,779.2,-573.5900000000001
1559,1.559000,5677,7291994,3515.04,1069.2,-3098.59
1560,1.560000,5678,7292994,5132.04,1517.2,-4260.59
1561,1.561000,5679,7293994,8515.04,455.2,-4028.59
1562,1.562000,5680,7294994,8052.04,-888.8,-3458.59
1563,1.563000,5681,7295994,477.04,-729.8,-3664.59
1564,1.564000,5682,7296994,-224.96,-7.800000000000001,-4052.59
1565,1.565000,5683,7297994,5146.04,447.2,-6100.59
1566,1.566000,5684,7298994,11917.04,164.2,-5474.59
1567,1.567000,5685,7299994,18305.04,-338.8,-769.5900000000001
1568,1.568000,5686,7300994,14189.04,-69.8,473.40999999999985
1569,1.569000,5687,7301994,842.04,786.2,-490.59000000000015
1570,1.570000,5688,7302994,-8214.96,926.2,1611.4099999999999
1571,1.570999,5689,7303993,-7097.96,-22.8,3711.41
1572,1.571999,5690,7304993,-1213.96,-546.8,3768.41
1573,1.573000,5691,7305994,5104.04,-971.8,4250.41
1574,1.574000,5692,7306994,4039.04,-912.8,3145.41
1575,1.575000,5693,7307994,-3697.96,-126.8,903.4099999999999
1576,1.576000,5694,7308994,-14781.96,-494.8,1858.4099999999999
1577,1.576999,5695,7309993,-26596.96,-1490.8,2950.41
1578,1.578000,5696,7310994,-25098.96,-391.8,1509.4099999999999
1579,1.579000,5697,7311994,-17407.96,562.2,973.4099999999999
1580,1.580000,5698,7312994,-3956.96,155.2,3334.41
1581,1.581000,5699,7313994,7157.04,23.2,4001.41
1582,1.582000,5700,7314994,10304.04,-28.8,2319.41
1583,1.583000,5701,7315994,7406.04,494.2,-67.59000000000015
1584,1.584000,5702,7316994,3087.04,1152.2,-2736.59
1585,1.585000,5703,7317994,4903.04,1444.2,-3873.59
1586,1.586000,5704,7318994,8035.04,689.2,-4166.59
1587,1.586999,5705,7319993,8417.04,-628.8,-3609.59
1588,1.588000,5706,7320994,2000.04,-918.8,-3501.59
1589,1.589000,5707,7321994,-685.96,-105.8,-4021.59
1590,1.590000,5708,7322994,3672.04,450.2,-5836.59
1591,1.591000,5709,7323994,10741.04,213.2,-5916.59
1592,1.592000,5710,7324994,18203.04,-339.8,-1370.5900000000001
1593,1.593000,5711,7325994,15634.04,-180.8,427.40999999999985
1594,1.593999,5712,7326993,3181.04,665.2,-625.5900000000001
1595,1.595000,5713,7327994,-7410.96,977.2,1233.4099999999999
1596,1.596000,5714,7328994,-7803.96,120.2,3559.41
1597,1.597000,5715,7329994,-1881.96,-463.8,3851.41
1598,1.598000,5716,7330994,4181.04,-917.8,4144.41
1599,1.599000,5717,7331994,4517.04,-966.8,3414.41
1600,1.600000,5718,7332994,-3490.96,-147.8,988.4099999999999
1601,1.601000,5719,7333994,-12110.96,-395.8,1559.4099999999999
1602,1.602000,5720,7334994,-24629.96,-1507.8,3145.41
1603,1.603000,5721,7335994,-25747.96,-505.8,1890.4099999999999
1604,1.604000,5722,7336994,-19034.96,596.2,789.4099999999999
1605,1.605000,5723,7337994,-6579.96,190.2,2881.41
1606,1.605999,5724,7338993,5669.04,156.2,4203.41
1607,1.607000,5725,7339994,9526.04,-120.8,2794.41
1608,1.608000,5726,7340994,8872.04,340.2,478.40999999999985
1609,1.608999,5727,7341993,3069.04,1132.2,-2485.59
1610,1.610000,5728,7342994,4463.04,1429.2,-4089.59
1611,1.611000,5729,7343994,8490.04,856.2,-4224.59
1612,1.612000,5730,7344994,8464.04,-533.8,-3704.59
1613,1.613000,5731,7345994,3845.04,-900.8,-3601.59
1614,1.614000,5732,7346994,-1274.96,-187.8,-3940.59
1615,1.615000,5733,7347994,1442.04,391.2,-5414.59
1616,1.616000,5734,7348994,9623.04,297.2,-6316.59
1617,1.617000,5735,7349994,17766.04,-476.8,-2155.59
1618,1.618000,5736,7350994,17417.04,-268.8,711.4099999999999
1619,1.618999,5737,7351993,5451.04,636.2,-419.59000000000015
1620,1.620000,5738,7352994,-6429.96,932.2,828.4099999999999
1621,1.620999,5739,7353993,-8811.96,334.2,3158.41
1622,1.622000,5740,7354994,-3173.96,-324.8,3737.41
1623,1.623000,5741,7355994,3710.04,-928.8,4085.41
1624,1.624000,5742,7356994,5325.04,-1110.8,3685.41
1625,1.624999,5743,7357993,-2218.96,-294.8,1419.4099999999999
1626,1.626000,5744,7358994,-9994.96,-361.8,1394.4099999999999
1627,1.627000,5745,7359994,-22478.96,-1441.8,2998.41
1628,1.628000,5746,7360994,-27020.96,-695.8,2085.41
1629,1.629000,5747,7361994,-21262.96,558.2,546.4099999999999
1630,1.630000,5748,7362994,-8844.96,161.2,2449.41
1631,1.631000,5749,7363994,4147.04,84.2,4307.41
1632,1.632000,5750,7364994,10245.04,-117.8,3076.41
1633,1.632999,5751,7365993,9627.04,231.2,772.4099999999999
1634,1.634000,5752,7366994,3249.04,1080.2,-2100.59
1635,1.635000,5753,7367994,4178.04,1389.2,-3790.59
1636,1.635999,5754,7368993,7694.04,1020.2,-4266.59
1637,1.636999,5755,7369993,8969.04,-274.8,-3706.59
1638,1.638000,5756,7370994,5005.04,-873.8,-3527.59
1639,1.639000,5757,7371994,-1342.96,-281.8,-3932.59
1640,1.640000,5758,7372994,542.04,310.2,-5034.59
1641,1.641000,5759,7373994,8356.04,331.2,-6503.59
1642,1.642000,5760,7374994,16828.04,-350.8,-3012.59
1643,1.643000,5761,7375994,18229.04,-314.8,647.4099999999999
1644,1.644000,5762,7376994,7588.04,467.2,-207.59000000000015
1645,1.644999,5763,7377993,-4744.96,1002.2,237.40999999999985
1646,1.645999,5764,7378993,-8916.96,525.2,2892.41
1647,1.647000,5765,7379994,-4332.96,-310.8,3776.41
1648,1.648000,5766,7380994,2978.04,-893.8,4029.41
1649,1.649000,5767,7381994,5374.04,-1138.8,4044.41
1650,1.650000,5768,7382994,-933.96,-457.8,1663.4099999999999
1651,1.651000,5769,7383994,-8497.96,-318.8,1006.4099999999999
1652,1.652000,5770,7384994,-21050.96,-1103.8,2618.41
1653,1.653000,5771,7385994,-26427.96,-971.8,2655.41
1654,1.654000,5772,7386994,-22707.96,439.2,901.4099999999999
1655,1.655000,5773,7387994,-11599.96,452.2,1941.4099999999999
1656,1.656000,5774,7388994,2848.04,-3.8000000000000007,4304.41
1657,1.657000,5775,7389994,9639.04,-187.8,3452.41
1658,1.657999,5776,7390993,10025.04,210.2,1238.4099999999999
1659,1.658999,5777,7391993,3701.04,1010.2,-1746.5900000000001
1660,1.660000,5778,7392994,3753.04,1334.2,-3765.59
1661,1.660999,5779,7393993,7445.04,1107.2,-4253.59
1662,1.662000,5780,7394994,9264.04,-67.8,-3905.59
1663,1.663000,5781,7395994,6330.04,-918.8,-3578.59
1664,1.663999,5782,7396993,-1566.96,-422.8,-3912.59
1665,1.665000,5783,7397994,347.04,208.2,-4458.59
1666,1.666000,5784,7398994,6888.04,433.2,-6410.59
1667,1.667000,5785,7399994,15582.04,-137.8,-4038.59
1668,1.668000,5786,7400994,19205.04,-503.8,349.40999999999985
1669,1.669000,5787,7401994,9258.04,242.2,-11.590000000000146
1670,1.670000,5788,7402994,-2725.96,928.2,100.40999999999985
1671,1.671000,5789,7403994,-9487.96,673.2,2495.41
1672,1.671999,5790,7404993,-5624.96,-136.8,3753.41
1673,1.673000,5791,7405994,1539.04,-733.8,3952.41
1674,1.674000,5792,7406994,5736.04,-1242.8,4208.41
1675,1.675000,5793,7407994,1242.04,-686.8,2277.41
1676,1.676000,5794,7408994,-6279.96,-267.8,779.4099999999999
1677,1.677000,5795,7409994,-19583.96,-848.8,2256.41
1678,1.678000,5796,7410994,-27331.96,-1223.8,2692.41
1679,1.679000,5797,7411994,-23317.96,154.2,1018.4099999999999
1680,1.680000,5798,7412994,-14683.96,624.2,1255.4099999999999
1681,1.681000,5799,7413994,1389.04,-28.8,3988.41
1682,1.682000,5800,7414994,9969.04,-304.8,4041.41
1683,1.683000,5801,7415994,10143.04,217.2,1583.4099999999999
1684,1.684000,5802,7416994,4937.04,969.2,-1203.5900000000001
1685,1.684999,5803,7417993,3101.04,1205.2,-3482.59
1686,1.686000,5804,7418994,6397.04,1377.2,-4289.59
1687,1.687000,5805,7419994,8957.04,146.2,-3902.59
1688,1.688000,5806,7420994,7177.04,-965.8,-3501.59
1689,1.689000,5807,7421994,-960.96,-521.8,-3888.59
1690,1.690000,5808,7422994,215.04,47.2,-4204.59
1691,1.691000,5809,7423994,6113.04,520.2,-6334.59
1692,1.691999,5810,7424993,13461.04,115.2,-4885.59
1693,1.692999,5811,7425993,19165.04,-558.8,54.409999999999854
1694,1.694000,5812,7426994,11632.04,165.2,159.40999999999985
1695,1.695000,5813,7427994,-950.96,911.2,-221.59000000000015
1696,1.696000,5814,7428994,-8757.96,755.2,2318.41
1697,1.697000,5815,7429994,-6457.96,12.2,3657.41
1698,1.698000,5816,7430994,210.04,-672.8,3792.41
1699,1.698999,5817,7431993,5355.04,-1279.8,4314.41
1700,1.700000,5818,7432994,2218.04,-751.8,2622.41
1701,1.701000,5819,7433994,-4707.96,-84.8,678.4099999999999
1702,1.702000,5820,7434994,-17590.96,-611.8,1981.4099999999999
1703,1.703000,5821,7435994,-27015.96,-1375.8,2837.41
1704,1.704000,5822,7436994,-23262.96,-156.8,1361.4099999999999
1705,1.705000,5823,7437994,-16109.96,629.2,1070.4099999999999
1706,1.706000,5824,7438994,-1242.96,18.2,3781.41
1707,1.707000,5825,7439994,8363.04,-133.8,4042.41
1708,1.708000,5826,7440994,9916.04,167.2,1874.4099999999999
1709,1.709000,5827,7441994,5949.04,703.2,-659.5900000000001
1710,1.710000,5828,7442994,3545.04,1122.2,-3267.59
1711,1.711000,5829,7443994,5827.04,1436.2,-4078.59
1712,1.711999,5830,7444993,8386.04,390.2,-4055.59
1713,1.713000,5831,7445994,8425.04,-878.8,-3522.59
1714,1.714000,5832,7446994,28.04,-788.8,-3669.59
1715,1.715000,5833,7447994,-926.96,57.2,-4107.59
1716,1.716000,5834,7448994,5000.04,417.2,-5885.59
1717,1.717000,5835,7449994,11646.04,160.2,-5516.59
1718,1.718000,5836,7450994,19063.04,-310.8,-762.5900000000001
1719,1.719000,5837,7451994,14423.04,-147.8,620.4099999999999
1720,1.720000,5838,7452994,873.04,834.2,-409.59000000000015
1721,1.721000,5839,7453994,-8426.96,968.2,1590.4099999999999
1722,1.722000,5840,7454994,-7378.96,-15.8,3636.41
1723,1.723000,5841,7455994,-951.96,-567.8,3896.41
1724,1.724000,5842,7456994,5093.04,-1031.8,4253.41
1725,1.725000,5843,7457994,4132.04,-964.8,3164.41
1726,1.725999,5844,7458993,-4059.96,-94.8,728.4099999999999
1727,1.727000,5845,7459994,-14446.96,-454.8,1634.4099999999999
1728,1.728000,5846,7460994,-26469.96,-1556.8,3047.41
1729,1.729000,5847,7461994,-24920.96,-391.8,1515.4099999999999
1730,1.730000,5848,7462994,-17292.96,596.2,817.4099999999999
1731,1.731000,5849,7463994,-3994.96,90.2,3285.41
1732,1.732000,5850,7464994,7189.04,0.1999999999999993,4073.41
1733,1.733000,5851,7465994,9737.04,-3.8000000000000007,2307.41
1734,1.733999,5852,7466993,7486.04,535.2,-56.590000000000146
1735,1.735000,5853,7467994,2920.04,1156.2,-2769.59
1736,1.735999,5854,7468993,5167.04,1438.2,-3891.59
1737,1.737000,5855,7469994,8419.04,717.2,-4066.59
1738,1.738000,5856,7470994,8247.04,-682.8,-3534.59
1739,1.738999,5857,7471993,2244.04,-877.8,-3560.59
1740,1.739999,5858,7472993,-1411.96,9.2,-4111.59
1741,1.741000,5859,7473994,3007.04,445.2,-5645.59
1742,1.742000,5860,7474994,10562.04,150.2,-5858.59
1743,1.743000,5861,7475994,18379.04,-350.8,-1527.5900000000001
1744,1.744000,5862,7476994,16260.04,-180.8,512.4099999999999
1745,1.745000,5863,7477994,3360.04,728.2,-514.5900000000001
1746,1.746000,5864,7478994,-7054.96,1011.2,1303.4099999999999
1747,1.747000,5865,7479994,-8192.96,93.2,3386.41
1748,1.748000,5866,7480994,-2135.96,-400.8,3764.41
1749,1.748999,5867,7481993,4105.04,-961.8,4296.41
1750,1.749999,5868,7482993,4627.04,-1011.8,3395.41
1751,1.750999,5869,7483993,-3243.96,-131.8,933.4099999999999
1752,1.752000,5870,7484994,-11711.96,-458.8,1472.4099999999999
1753,1.753000,5871,7485994,-23809.96,-1440.8,3133.41
1754,1.754000,5872,7486994,-25766.96,-624.8,2031.4099999999999
1755,1.755000,5873,7487994,-19379.96,556.2,674.4099999999999
1756,1.756000,5874,7488994,-6867.96,247.2,2699.41
1757,1.756999,5875,7489993,5251.04,24.2,4292.41
1758,1.758000,5876,7490994,9408.04,-81.8,2717.41
1759,1.759000,5877,7491994,8960.04,405.2,345.40999999999985
1760,1.760000,5878,7492994,2928.04,1063.2,-2479.59
1761,1.761000,5879,7493994,4735.04,1433.2,-3913.59
1762,1.762000,5880,7494994,8322.04,921.2,-4168.59
1763,1.763000,5881,7495994,8617.04,-504.8,-3650.59
1764,1.764000,5882,7496994,4286.04,-826.8,-3459.59
1765,1.765000,5883,7497994,-1646.96,-139.8,-3994.59
1766,1.766000,5884,7498994,1109.04,394.2,-5253.59
1767,1.767000,5885,7499994,9065.04,285.2,-6251.59
1768,1.767999,5886,7500993,17660.04,-382.8,-2390.59
1769,1.769000,5887,7501994,17660.04,-249.8,778.4099999999999
1770,1.770000,5888,7502994,5861.04,491.2,-264.59000000000015
1771,1.770999,5889,7503993,-5832.96,987.2,638.4099999999999
1772,1.772000,5890,7504994,-9044.96,493.2,3051.41
1773,1.773000,5891,7505994,-3512.96,-352.8,3909.41
1774,1.774000,5892,7506994,3648.04,-982.8,4269.41
1775,1.775000,5893,7507994,5101.04,-988.8,3606.41
1776,1.776000,5894,7508994,-1609.96,-338.8,1309.4099999999999
1777,1.777000,5895,7509994,-9260.96,-410.8,1281.4099999999999
1778,1.778000,5896,7510994,-21894.96,-1356.8,2951.41
1779,1.779000,5897,7511994,-26476.96,-820.8,2297.41
1780,1.780000,5898,7512994,-21937.96,536.2,429.40999999999985
1781,1.781000,5899,7513994,-9850.96,333.2,2055.41
1782,1.781999,5900,7514993,3971.04,-11.8,4374.41
1783,1.783000,5901,7515994,9907.04,-202.8,3223.41
1784,1.784000,5902,7516994,9918.04,375.2,751.4099999999999
1785,1.784999,5903,7517993,3073.04,1062.2,-2038.5900000000001
1786,1.785999,5904,7518993,3932.04,1350.2,-3635.59
1787,1.787000,5905,7519994,7682.04,1083.2,-4145.59
1788,1.788000,5906,7520994,8812.04,-241.8,-3729.59
1789,1.789000,5907,7521994,5701.04,-847.8,-3464.59
1790,1.790000,5908,7522994,-1285.96,-226.8,-3861.59
1791,1.791000,5909,7523994,438.04,279.2,-4807.59
1792,1.792000,5910,7524994,7795.04,349.2,-6493.59
1793,1.792999,5911,7525993,15969.04,-296.8,-3411.59
1794,1.793999,5912,7526993,18518.04,-322.8,545.4099999999999
1795,1.795000,5913,7527994,8302.04,371.2,7.4099999999998545
1796,1.795999,5914,7528993,-4209.96,988.2,130.40999999999985
1797,1.796999,5915,7529993,-8638.96,712.2,2676.41
1798,1.798000,5916,7530994,-5123.96,-279.8,3850.41
1799,1.798999,5917,7531993,2256.04,-898.8,4115.41
1800,1.800000,5918,7532994,5332.04,-1089.8,4054.41
1801,1.801000,5919,7533994,-426.96,-547.8,1683.4099999999999
1802,1.802000,5920,7534994,-7084.96,-380.8,1008.4099999999999
1803,1.803000,5921,7535994,-20064.96,-1055.8,2582.41
1804,1.803999,5922,7536993,-26292.96,-1076.8,2663.41
1805,1.805000,5923,7537994,-22930.96,304.2,815.4099999999999
1806,1.806000,5924,7538994,-12963.96,472.2,1597.4099999999999
1807,1.806999,5925,7539993,2080.04,14.2,4219.41
1808,1.808000,5926,7540994,9701.04,-218.8,3601.41
1809,1.809000,5927,7541994,10116.04,256.2,1216.4099999999999
1810,1.809999,5928,7542993,4278.04,1003.2,-1605.5900000000001
1811,1.811000,5929,7543994,3829.04,1273.2,-3467.59
1812,1.811999,5930,7544993,6574.04,1238.2,-4127.59
1813,1.813000,5931,7545994,8752.04,47.2,-3865.59
1814,1.814000,5932,7546994,6739.04,-877.8,-3496.59
1815,1.815000,5933,7547994,-1371.96,-418.8,-3821.59
1816,1.816000,5934,7548994,616.04,169.2,-4294.59
1817,1.817000,5935,7549994,7044.04,408.2,-6372.59
1818,1.818000,5936,7550994,14407.04,-7.800000000000001,-4450.59
1819,1.818999,5937,7551993,19059.04,-468.8,202.40999999999985
1820,1.820000,5938,7552994,9932.04,150.2,188.40999999999985
1821,1.820999,5939,7553993,-2563.96,1013.2,-90.59000000000015
1822,1.822000,5940,7554994,-8937.96,754.2,2358.41
1823,1.822999,5941,7555993,-5906.96,-195.8,3712.41
1824,1.824000,5942,7556994,1090.04,-697.8,3888.41
1825,1.825000,5943,7557994,5922.04,-1118.8,4308.41
1826,1.826000,5944,7558994,1764.04,-727.8,2358.41
1827,1.826999,5945,7559993,-5463.96,-237.8,697.4099999999999
1828,1.828000,5946,7560994,-18809.96,-786.8,2279.41
1829,1.829000,5947,7561994,-27187.96,-1341.8,2796.41
1830,1.830000,5948,7562994,-23208.96,18.2,1137.4099999999999
1831,1.831000,5949,7563994,-15335.96,644.2,1178.4099999999999
1832,1.832000,5950,7564994,525.04,32.2,3695.41
1833,1.832999,5951,7565993,9383.04,-270.8,3908.41
1834,1.834000,5952,7566994,9706.04,182.2,1624.4099999999999
1835,1.835000,5953,7567994,5414.04,925.2,-952.5900000000001
1836,1.836000,5954,7568994,3041.04,1140.2,-3214.59
1837,1.837000,5955,7569994,6051.04,1411.2,-4107.59
1838,1.838000,5956,7570994,9000.04,310.2,-3796.59
1839,1.839000,5957,7571994,7619.04,-918.8,-3430.59
1840,1.839999,5958,7572993,-383.96,-618.8,-3707.59
1841,1.841000,5959,7573994,-534.96,95.2,-4069.59
1842,1.842000,5960,7574994,5748.04,466.2,-6127.59
1843,1.843000,5961,7575994,12691.04,68.2,-5181.59
1844,1.844000,5962,7576994,19007.04,-414.8,-415.59000000000015
1845,1.845000,5963,7577994,13047.04,12.2,351.40999999999985
1846,1.846000,5964,7578994,-391.96,862.2,-383.59000000000015
1847,1.847000,5965,7579994,-8440.96,881.2,2015.4099999999999
1848,1.847999,5966,7580993,-7185.96,10.2,3619.41
1849,1.848999,5967,7581993,-499.96,-610.8,3801.41
1850,1.850000,5968,7582994,5437.04,-1155.8,4431.41
1851,1.851000,5969,7583994,3071.04,-796.8,2731.41
1852,1.852000,5970,7584994,-4008.96,-55.8,697.4099999999999
1853,1.852999,5971,7585993,-15977.96,-627.8,1969.4099999999999
1854,1.853999,5972,7586993,-26718.96,-1409.8,2879.41
1855,1.855000,5973,7587994,-24131.96,-263.8,1446.4099999999999
1856,1.856000,5974,7588994,-16439.96,532.2,1108.4099999999999
1857,1.857000,5975,7589994,-2580.96,85.2,3546.41
1858,1.858000,5976,7590994,7864.04,-66.8,3965.41
1859,1.859000,5977,7591994,9740.04,89.2,2030.4099999999999
1860,1.860000,5978,7592994,6329.04,630.2,-494.59000000000015
1861,1.860999,5979,7593993,3444.04,1131.2,-3031.59
1862,1.862000,5980,7594994,4993.04,1437.2,-4012.59
1863,1.862999,5981,7595993,8595.04,531.2,-4034.59
1864,1.864000,5982,7596994,8490.04,-813.8,-3524.59
1865,1.865000,5983,7597994,883.04,-799.8,-3556.59
1866,1.865999,5984,7598993,-887.96,23.2,-3952.59
1867,1.866999,5985,7599993,4139.04,501.2,-5885.59
1868,1.868000,5986,7600994,11329.04,186.2,-5636.59
1869,1.869000,5987,7601994,18439.04,-435.8,-1059.5900000000001
1870,1.869999,5988,7602993,15258.04,-154.8,524.4099999999999
1871,1.870999,5989,7603993,1991.04,786.2,-481.59000000000015
1872,1.872000,5990,7604994,-7942.96,886.2,1458.4099999999999
1873,1.873000,5991,7605994,-7872.96,81.2,3484.41
1874,1.874000,5992,7606994,-1693.96,-478.8,3679.41
1875,1.875000,5993,7607994,4923.04,-1070.8,4377.41
1876,1.876000,5994,7608994,4512.04,-930.8,3325.41
1877,1.877000,5995,7609994,-3243.96,-81.8,912.4099999999999
1878,1.878000,5996,7610994,-13083.96,-486.8,1683.4099999999999
1879,1.879000,5997,7611994,-25312.96,-1496.8,3029.41
1880,1.879999,5998,7612993,-25693.96,-483.8,1637.4099999999999
1881,1.880999,5999,7613993,-18400.96,553.2,719.4099999999999
1882,1.882000,6000,7614994,-5087.96,142.2,3123.41
1883,1.883000,6001,7615994,6065.04,75.2,3945.41
1884,1.884000,6002,7616994,10071.04,-11.8,2424.41
1885,1.885000,6003,7617994,7806.04,404.2,207.40999999999985
1886,1.885999,6004,7618993,2918.04,1136.2,-2607.59
1887,1.887000,6005,7619994,4778.04,1509.2,-3798.59
1888,1.888000,6006,7620994,7933.04,772.2,-4068.59
1889,1.889000,6007,7621994,8990.04,-599.8,-3491.59
1890,1.890000,6008,7622994,3047.04,-861.8,-3426.59
1891,1.891000,6009,7623994,-1560.96,-87.8,-3993.59
1892,1.892000,6010,7624994,1921.04,503.2,-5571.59
1893,1.893000,6011,7625994,9863.04,199.2,-6022.59
1894,1.893999,6012,7626993,17857.04,-384.8,-1892.5900000000001
1895,1.895000,6013,7627994,17183.04,-171.8,539.4099999999999
1896,1.896000,6014,7628994,5047.04,552.2,-370.59000000000015
1897,1.897000,6015,7629994,-6782.96,1040.2,874.4099999999999
1898,1.898000,6016,7630994,-8638.96,315.2,3228.41
1899,1.898999,6017,7631993,-2950.96,-509.8,3789.41
1900,1.900000,6018,7632994,3812.04,-970.8,4161.41
1901,1.900999,6019,7633993,4934.04,-1003.8,3519.41
1902,1.902000,6020,7634994,-2307.96,-344.8,1138.4099999999999
1903,1.903000,6021,7635994,-10506.96,-386.8,1299.4099999999999
1904,1.903999,6022,7636993,-22437.96,-1404.8,2962.41
1905,1.905000,6023,7637994,-26250.96,-748.8,2231.41
1906,1.905999,6024,7638993,-20958.96,533.2,682.4099999999999
1907,1.906999,6025,7639993,-8168.96,209.2,2519.41
1908,1.908000,6026,7640994,4241.04,134.2,4145.41
1909,1.909000,6027,7641994,9849.04,-147.8,2902.41
1910,1.910000,6028,7642994,9530.04,285.2,645.4099999999999
1911,1.911000,6029,7643994,3022.04,1147.2,-2289.59
1912,1.912000,6030,7644994,4139.04,1393.2,-3758.59
1913,1.913000,6031,7645994,7984.04,900.2,-4117.59
1914,1.913999,6032,7646993,9054.04,-348.8,-3676.59
1915,1.915000,6033,7647994,4666.04,-881.8,-3447.59
1916,1.916000,6034,7648994,-1745.96,-157.8,-3956.59
1917,1.917000,6035,7649994,763.04,431.2,-5052.59
1918,1.918000,6036,7650994,8338.04,235.2,-6318.59
1919,1.919000,6037,7651994,16962.04,-365.8,-2862.59
1920,1.920000,6038,7652994,18437.04,-317.8,702.4099999999999
1921,1.921000,6039,7653994,7105.04,397.2,-214.59000000000015
1922,1.922000,6040,7654994,-5181.96,1020.2,403.40999999999985
1923,1.922999,6041,7655993,-9049.96,533.2,2952.41
1924,1.924000,6042,7656994,-4142.96,-319.8,3783.41
1925,1.924999,6043,7657993,2934.04,-888.8,4084.41
1926,1.925999,6044,7658993,5583.04,-1150.8,3940.41
1927,1.927000,6045,7659994,-642.96,-434.8,1555.4099999999999
1928,1.928000,6046,7660994,-8356.96,-336.8,1123.4099999999999
1929,1.929000,6047,7661994,-20799.96,-1279.8,2818.41
1930,1.930000,6048,7662994,-26720.96,-930.8,2383.41
1931,1.931000,6049,7663994,-22936.96,462.2,557.4099999999999
1932,1.932000,6050,7664994,-11188.96,348.2,1892.4099999999999
1933,1.933000,6051,7665994,2999.04,37.2,4186.41
1934,1.933999,6052,7666993,9888.04,-207.8,3309.41
1935,1.935000,6053,7667994,10265.04,258.2,1082.4099999999999
1936,1.935999,6054,7668993,3454.04,1089.2,-1722.5900000000001
1937,1.937000,6055,7669994,3699.04,1340.2,-3448.59
1938,1.938000,6056,7670994,7017.04,1175.2,-4085.59
1939,1.939000,6057,7671994,8980.04,-52.8,-3764.59
1940,1.939999,6058,7672993,6222.04,-849.8,-3420.59
1941,1.940999,6059,7673993,-1467.96,-363.8,-3852.59
1942,1.942000,6060,7674994,538.04,228.2,-4580.59
1943,1.943000,6061,7675994,6988.04,454.2,-6506.59
1944,1.944000,6062,7676994,15125.04,-150.8,-4050.59
1945,1.945000,6063,7677994,19020.04,-500.8,372.40999999999985
1946,1.946000,6064,7678994,9264.04,227.2,52.409999999999854
1947,1.947000,6065,7679994,-2743.96,1020.2,21.409999999999854
1948,1.948000,6066,7680994,-8800.96,695.2,2598.41
1949,1.949000,6067,7681994,-5640.96,-250.8,3814.41
1950,1.950000,6068,7682994,1437.04,-785.8,3969.41
1951,1.951000,6069,7683994,5399.04,-1099.8,4127.41
1952,1.952000,6070,7684994,840.04,-607.8,1947.4099999999999
1953,1.953000,6071,7685994,-5934.96,-264.8,751.4099999999999
1954,1.954000,6072,7686994,-19114.96,-870.8,2492.41
1955,1.955000,6073,7687994,-26662.96,-1234.8,2833.41
1956,1.956000,6074,7688994,-22801.96,79.2,1122.4099999999999
1957,1.956999,6075,7689993,-14786.96,601.2,1335.4099999999999
1958,1.958000,6076,7690994,845.04,36.2,3899.41
1959,1.959000,6077,7691994,9479.04,-328.8,3853.41
1960,1.960000,6078,7692994,10021.04,229.2,1395.4099999999999
1961,1.961000,6079,7693994,4990.04,1002.2,-1251.5900000000001
1962,1.962000,6080,7694994,3375.04,1147.2,-3265.59
1963,1.963000,6081,7695994,6343.04,1305.2,-4051.59
1964,1.964000,6082,7696994,8662.04,237.2,-3964.59
1965,1.965000,6083,7697994,7140.04,-860.8,-3516.59
1966,1.965999,6084,7698993,-983.96,-552.8,-3610.59
1967,1.967000,6085,7699994,269.04,55.2,-4029.59
1968,1.968000,6086,7700994,6314.04,551.2,-6321.59
1969,1.969000,6087,7701994,13225.04,71.2,-5041.59
1970,1.969999,6088,7702993,19072.04,-532.8,-22.590000000000146
1971,1.971000,6089,7703994,11520.04,63.2,321.40999999999985
1972,1.971999,6090,7704993,-1052.96,896.2,-270.59000000000015
1973,1.973000,6091,7705994,-8615.96,816.2,2181.41
1974,1.974000,6092,7706994,-6467.96,-38.8,3697.41
1975,1.975000,6093,7707994,76.03999999999999,-638.8,3876.41
1976,1.976000,6094,7708994,5528.04,-1226.8,4356.41
1977,1.977000,6095,7709994,2813.04,-765.8,2605.41
1978,1.978000,6096,7710994,-4413.96,-112.8,643.4099999999999
1979,1.979000,6097,7711994,-17165.96,-692.8,2142.41
1980,1.980000,6098,7712994,-26924.96,-1402.8,2866.41
1981,1.981000,6099,7713994,-23869.96,-110.8,1131.4099999999999
1982,1.982000,6100,7714994,-16409.96,619.2,974.4099999999999
1983,1.983000,6101,7715994,-1262.96,-3.8000000000000007,3675.41
1984,1.984000,6102,7716994,8519.04,-164.8,4006.41
1985,1.985000,6103,7717994,10054.04,155.2,1845.4099999999999
1986,1.986000,6104,7718994,5851.04,725.2,-669.5900000000001
1987,1.987000,6105,7719994,3271.04,1117.2,-2979.59
1988,1.988000,6106,7720994,5506.04,1455.2,-3907.59
1989,1.989000,6107,7721994,8260.04,425.2,-4063.59
1990,1.990000,6108,7722994,8120.04,-789.8,-3520.59
1991,1.991000,6109,7723994,589.04,-739.8,-3523.59
1992,1.992000,6110,7724994,-651.96,-19.8,-4010.59
1993,1.993000,6111,7725994,4669.04,491.2,-6072.59
1994,1.993999,6112,7726993,11740.04,148.2,-5583.59
1995,1.995000,6113,7727994,18570.04,-377.8,-858.5900000000001
1996,1.996000,6114,7728994,14672.04,-96.8,531.4099999999999
1997,1.996999,6115,7729993,1305.04,800.2,-393.59000000000015
1998,1.998000,6116,7730994,-8102.96,951.2,1493.4099999999999
1999,1.999000,6117,7731994,-7167.96,-43.8,3613.41
2000,2.000000,6118,7732994,-1602.96,-631.8,3856.41
2001,2.001000,6119,7733994,4892.04,-1002.8,4226.41
2002,2.002000,6120,7734994,3957.04,-923.8,3050.41
2003,2.002999,6121,7735993,-3870.96,-82.8,680.4099999999999
2004,2.004000,6122,7736994,-13379.96,-450.8,1799.4099999999999
2005,2.005000,6123,7737994,-25929.96,-1547.8,3139.41
2006,2.005999,6124,7738993,-24857.96,-467.8,1671.4099999999999
2007,2.007000,6125,7739994,-17716.96,512.2,871.4099999999999
2008,2.008000,6126,7740994,-4736.96,165.2,3202.41
2009,2.008999,6127,7741993,6578.04,93.2,4071.41
2010,2.010000,6128,7742994,9525.04,-37.8,2191.41
2011,2.010999,6129,7743993,7904.04,470.2,-88.59000000000015
2012,2.011999,6130,7744993,3044.04,1086.2,-2657.59
2013,2.013000,6131,7745994,5067.04,1384.2,-3830.59
2014,2.014000,6132,7746994,8082.04,755.2,-4089.59
2015,2.015000,6133,7747994,8240.04,-626.8,-3661.59
2016,2.015999,6134,7748993,2640.04,-865.8,-3471.59
2017,2.017000,6135,7749994,-1424.96,-37.8,-3830.59
2018,2.017999,6136,7750993,2820.04,513.2,-5588.59
2019,2.019000,6137,7751994,10509.04,220.2,-6002.59
2020,2.020000,6138,7752994,16485.04,-154.8,601.4099999999999
2021,2.021000,6139,7753994,16485.04,-154.8,601.4099999999999
2022,2.022000,6140,7754994,3756.04,638.2,-556.5900000000001
2023,2.022999,6141,7755993,-7255.96,996.2,1042.4099999999999
2024,2.024000,6142,7756994,-8083.96,264.2,3390.41
2025,2.024999,6143,7757993,-2338.96,-466.8,3792.41
2026,2.025999,6144,7758993,4865.04,-964.8,3439.41
2027,2.027000,6145,7759994,-2741.96,-177.8,956.4099999999999
2028,2.028000,6146,7760994,-11078.96,-422.8,1525.4099999999999
2029,2.029000,6147,7761994,-23653.96,-1540.8,3171.41
2030,2.030000,6148,7762994,-26039.96,-639.8,1902.4099999999999
2031,2.031000,6149,7763994,-20202.96,580.2,542.4099999999999
2032,2.032000,6150,7764994,-7442.96,141.2,2686.41
2033,2.033000,6151,7765994,4997.04,92.2,4142.41
2034,2.034000,6152,7766994,9887.04,-140.8,2815.41
2035,2.034999,6153,7767993,8921.04,301.2,502.40999999999985
2036,2.036000,6154,7768994,2957.04,1169.2,-2355.59
2037,2.037000,6155,7769994,4380.04,1488.2,-3716.59
2038,2.038000,6156,7770994,7755.04,907.2,-4103.59
2039,2.039000,6157,7771994,8772.04,-450.8,-3573.59
2040,2.040000,6158,7772994,4096.04,-854.8,-3393.59
2041,2.041000,6159,7773994,-1526.96,-96.8,-3943.59
2042,2.042000,6160,7774994,1382.04,393.2,-5166.59
2043,2.043000,6161,7775994,8870.04,227.2,-6299.59
2044,2.044000,6162,7776994,17640.04,-327.8,-2559.59
2045,2.045000,6163,7777994,17886.04,-282.8,649.4099999999999
2046,2.046000,6164,7778994,6137.04,503.2,-346.59000000000015
2047,2.047000,6165,7779994,-5388.96,1055.2,630.4099999999999
2048,2.048000,6166,7780994,-9110.96,376.2,3018.41
2049,2.049000,6167,7781994,-3745.96,-414.8,3756.41
2050,2.050000,6168,7782994,3200.04,-898.8,4099.41
2051,2.051000,6169,7783994,5267.04,-1007.8,3694.41
2052,2.052000,6170,7784994,-1296.96,-343.8,1345.4099999999999
2053,2.052999,6171,7785993,-8833.96,-392.8,1186.4099999999999
2054,2.054000,6172,7786994,-21001.96,-1317.8,2990.41
2055,2.055000,6173,7787994,-26511.96,-876.8,2423.41
2056,2.056000,6174,7788994,-22326.96,440.2,640.4099999999999
2057,2.057000,6175,7789994,-10681.96,328.2,2101.41
2058,2.058000,6176,7790994,3318.04,102.2,4245.41
2059,2.058999,6177,7791993,9807.04,-256.8,3191.41
2060,2.059999,6178,7792993,9998.04,291.2,805.4099999999999
2061,2.061000,6179,7793994,3596.04,1080.2,-1913.5900000000001
2062,2.061999,6180,7794993,3854.04,1306.2,-3587.59
2063,2.063000,6181,7795994,7465.04,1071.2,-4122.59
2064,2.064000,6182,7796994,8635.04,-209.8,-3727.59
2065,2.065000,6183,7797994,5635.04,-847.8,-3394.59
2066,2.065999,6184,7798993,-1506.96,-215.8,-3764.59
2067,2.067000,6185,7799994,462.04,313.2,-4764.59
2068,2.068000,6186,7800994,8074.04,367.2,-6490.59
2069,2.069000,6187,7801994,16123.04,-368.8,-3414.59
2070,2.069999,6188,7802993,18842.04,-397.8,533.4099999999999
2071,2.071000,6189,7803994,8253.04,417.2,-177.59000000000015
2072,2.072000,6190,7804994,-4363.96,953.2,161.40999999999985
2073,2.073000,6191,7805994,-8760.96,645.2,2691.41
2074,2.074000,6192,7806994,-4912.96,-272.8,3699.41
2075,2.075000,6193,7807994,2095.04,-833.8,3968.41
2076,2.075999,6194,7808993,5973.04,-1106.8,4198.41
2077,2.077000,6195,7809994,114.03999999999999,-544.8,1830.4099999999999
2078,2.078000,6196,7810994,-7004.96,-353.8,900.4099999999999
2079,2.079000,6197,7811994,-19678.96,-1081.8,2618.41
2080,2.079999,6198,7812993,-26928.96,-1087.8,2561.41
2081,2.081000,6199,7813994,-23219.96,325.2,859.4099999999999
2082,2.081999,6200,7814993,-13398.96,476.2,1620.4099999999999
2083,2.083000,6201,7815994,1851.04,42.2,3990.41
2084,2.083999,6202,7816993,9873.04,-250.8,3600.41
2085,2.085000,6203,7817994,9998.04,137.2,1360.4099999999999
2086,2.086000,6204,7818994,4320.04,1043.2,-1382.5900000000001
2087,2.087000,6205,7819994,3415.04,1301.2,-3351.59
2088,2.087999,6206,7820993,6519.04,1230.2,-4163.59
2089,2.089000,6207,7821994,8831.04,56.2,-3869.59
2090,2.089999,6208,7822993,6821.04,-893.8,-3455.59
2091,2.091000,6209,7823994,-1373.96,-419.8,-3897.59
2092,2.092000,6210,7824994,397.04,97.2,-4315.59
2093,2.093000,6211,7825994,6709.04,391.2,-6350.59
2094,2.094000,6212,7826994,14212.04,-13.8,-4618.59
2095,2.095000,6213,7827994,19428.04,-488.8,145.40999999999985
2096,2.096000,6214,7828994,10572.04,147.2,161.40999999999985
2097,2.097000,6215,7829994,-1748.96,1010.2,-164.59000000000015
2098,2.098000,6216,7830994,-8825.96,746.2,2342.41
2099,2.099000,6217,7831994,-6170.96,-176.8,3735.41
2100,2.100000,6218,7832994,421.04,-663.8,3876.41
2101,2.101000,6219,7833994,5246.04,-1084.8,4222.41
2102,2.102000,6220,7834994,2131.04,-690.8,2454.41
2103,2.103000,6221,7835994,-4840.96,-211.8,748.4099999999999
2104,2.104000,6222,7836994,-17655.96,-658.8,2188.41
2105,2.105000,6223,7837994,-27064.96,-1349.8,2915.41
2106,2.105999,6224,7838993,-23444.96,-108.8,1273.4099999999999
2107,2.107000,6225,7839994,-15692.96,624.2,1300.4099999999999
2108,2.108000,6226,7840994,-983.96,103.2,3704.41
2109,2.108999,6227,7841993,8933.04,-172.8,3790.41
2110,2.110000,6228,7842994,10082.04,103.2,1732.4099999999999
2111,2.111000,6229,7843994,5876.04,766.2,-838.5900000000001
2112,2.111999,6230,7844993,3516.04,1152.2,-3063.59
2113,2.113000,6231,7845994,5461.04,1397.2,-4017.59
2114,2.114000,6232,7846994,8584.04,356.2,-4075.59
2115,2.115000,6233,7847994,7657.04,-832.8,-3485.59
2116,2.116000,6234,7848994,-369.96,-697.8,-3600.59
2117,2.117000,6235,7849994,56.04,68.2,-3982.59
2118,2.118000,6236,7850994,5361.04,512.2,-6100.59
2119,2.119000,6237,7851994,12368.04,144.2,-5419.59
2120,2.119999,6238,7852993,19015.04,-491.8,-476.59000000000015
2121,2.121000,6239,7853994,12866.04,-49.8,345.40999999999985
2122,2.122000,6240,7854994,526.04,903.2,-435.59000000000015
2123,2.122999,6241,7855993,-8352.96,848.2,1910.4099999999999
2124,2.124000,6242,7856994,-7034.96,-36.8,3685.41
2125,2.125000,6243,7857994,-549.96,-559.8,3803.41
2126,2.126000,6244,7858994,4999.04,-1094.8,4247.41
2127,2.127000,6245,7859994,3719.04,-882.8,2970.41
2128,2.127999,6246,7860993,-4071.96,-95.8,727.4099999999999
2129,2.129000,6247,7861994,-15036.96,-598.8,1917.4099999999999
2130,2.130000,6248,7862994,-26761.96,-1459.8,2913.41
2131,2.130999,6249,7863993,-24214.96,-314.8,1420.4099999999999
2132,2.132000,6250,7864994,-16910.96,527.2,974.4099999999999
2133,2.133000,6251,7865994,-3535.96,150.2,3280.41
2134,2.134000,6252,7866994,7679.04,-17.8,4043.41
2135,2.135000,6253,7867994,9409.04,33.2,2172.41
2136,2.136000,6254,7868994,7022.04,656.2,-249.59000000000015
2137,2.137000,6255,7869994,3225.04,1119.2,-2798.59
2138,2.137999,6256,7870993,5019.04,1446.2,-3947.59
2139,2.139000,6257,7871994,8350.04,678.2,-4052.59
2140,2.139999,6258,7872993,8431.04,-785.8,-3469.59
2141,2.141000,6259,7873994,1888.04,-795.8,-3530.59
2142,2.142000,6260,7874994,-1263.96,-8.8,-3998.59
2143,2.143000,6261,7875994,3259.04,480.2,-5735.59
2144,2.144000,6262,7876994,10835.04,246.2,-5839.59
2145,2.145000,6263,7877994,18092.04,-391.8,-1327.5900000000001
2146,2.146000,6264,7878994,16215.04,-195.8,675.4099999999999
2147,2.147000,6265,7879994,3163.04,705.2,-413.59000000000015
2148,2.147999,6266,7880993,-7514.96,1020.2,1188.4099999999999
2149,2.149000,6267,7881994,-7998.96,115.2,3420.41
2150,2.149999,6268,7882993,-2413.96,-514.8,3849.41
2151,2.150999,6269,7883993,4209.04,-964.8,4186.41
2152,2.151999,6270,7884993,4654.04,-892.8,3171.41
2153,2.153000,6271,7885994,-3089.96,-254.8,1005.4099999999999
2154,2.154000,6272,7886994,-11495.96,-439.8,1677.4099999999999
2155,2.154999,6273,7887993,-24076.96,-1448.8,3039.41
2156,2.156000,6274,7888994,-26022.96,-637.8,1862.4099999999999
2157,2.157000,6275,7889994,-19222.96,579.2,692.4099999999999
2158,2.158000,6276,7890994,-6435.96,157.2,2920.41
2159,2.159000,6277,7891994,5273.04,123.2,4080.41
2160,2.159999,6278,7892993,9743.04,-56.8,2413.41
2161,2.161000,6279,7893994,8863.04,348.2,292.40999999999985
2162,2.162000,6280,7894994,2881.04,1134.2,-2414.59
2163,2.163000,6281,7895994,4845.04,1380.2,-3668.59
2164,2.164000,6282,7896994,7786.04,893.2,-4169.59
2165,2.164999,6283,7897993,8440.04,-492.8,-3708.59
2166,2.166000,6284,7898994,3667.04,-901.8,-3433.59
2167,2.167000,6285,7899994,-1484.96,-69.8,-3931.59
2168,2.167999,6286,7900993,1902.04,515.2,-5378.59
2169,2.169000,6287,7901994,9675.04,225.2,-6173.59
2170,2.170000,6288,7902994,17690.04,-407.8,-2041.5900000000001
2171,2.171000,6289,7903994,17002.04,-147.8,684.4099999999999
2172,2.172000,6290,7904994,5407.04,516.2,-460.59000000000015
2173,2.173000,6291,7905994,-6201.96,1000.2,684.4099999999999
2174,2.174000,6292,7906994,-8649.96,441.2,3229.41
2175,2.175000,6293,7907994,-2974.96,-391.8,3849.41
2176,2.175999,6294,7908993,3579.04,-914.8,4061.41
2177,2.177000,6295,7909994,5088.04,-1043.8,3555.41
2178,2.178000,6296,7910994,-1909.96,-406.8,1216.4099999999999
2179,2.178999,6297,7911993,-9821.96,-384.8,1300.4099999999999
2180,2.180000,6298,7912994,-21984.96,-1423.8,2982.41
2181,2.181000,6299,7913994,-26134.96,-798.8,2149.41
2182,2.182000,6300,7914994,-21675.96,591.2,563.4099999999999
2183,2.183000,6301,7915994,-9244.96,271.2,2270.41
