row,seconds,esp32_index,micros,ax,ay,az
0,0.000000,99,1714010,6014.83,524.26,-452.4499999999998
1,0.001001,100,1715011,-7192.17,1218.26,914.5500000000002
2,0.002001,101,1716011,-10015.17,279.26,4110.55
3,0.003001,102,1717011,-4142.17,-350.74,3891.55
4,0.004001,103,1718011,2127.83,-708.74,3363.55
5,0.005001,104,1719011,5130.83,-950.74,3471.55
6,0.006001,105,1720011,-896.17,-43.74,1044.5500000000002
7,0.007001,106,1721011,-7397.17,-97.74,771.5500000000002
8,0.008000,107,1722010,-16711.17,-932.74,3019.55
9,0.009001,108,1723011,-22138.17,-909.74,2754.55
10,0.010001,109,1724011,-19847.17,125.26,1417.5500000000002
11,0.011001,110,1725011,-11144.17,-219.74,2854.55
12,0.012000,111,1726010,813.83,46.26,2996.55
13,0.013001,112,1727011,5797.83,120.26,495.5500000000002
14,0.014001,113,1728011,6167.83,-113.74,-444.4499999999998
15,0.015001,114,1729011,3648.83,799.26,-1670.4499999999998
16,0.016001,115,1730011,5267.83,1141.26,-3087.45
17,0.017000,116,1731010,8586.83,416.26,-3512.45
18,0.018001,117,1732011,8122.83,-452.74,-2902.45
19,0.019001,118,1733011,2582.83,-275.74,-2474.45
20,0.020001,119,1734011,-5165.17,116.26,-3755.45
21,0.021001,120,1735011,-528.17,232.26,-4233.45
22,0.022000,121,1736010,9905.83,217.26,-4977.45
23,0.023001,122,1737011,18412.83,-8.74,-3539.45
24,0.024001,123,1738011,19713.83,-142.74,-165.44999999999982
25,0.025000,124,1739010,7699.83,500.26,-596.4499999999998
26,0.026001,125,1740011,-5298.17,1095.26,544.5500000000002
27,0.027001,126,1741011,-10452.17,497.26,4079.55
28,0.028001,127,1742011,-5184.17,-163.74,4129.55
29,0.029001,128,1743011,1420.83,-679.74,3360.55
30,0.030001,129,1744011,4734.83,-1063.74,3555.55
31,0.031000,130,1745010,997.83,-90.74,1470.5500000000002
32,0.032001,131,1746011,-5215.17,-25.740000000000002,512.5500000000002
33,0.033001,132,1747011,-15938.17,-804.74,2696.55
34,0.034001,133,1748011,-23106.17,-1016.74,2809.55
35,0.035001,134,1749011,-20139.17,-235.74,1190.5500000000002
36,0.036001,135,1750011,-13530.17,-66.74,2276.55
37,0.037001,136,1751011,-1115.17,78.26,3255.55
38,0.038000,137,1752010,6121.83,40.26,954.5500000000002
39,0.039001,138,1753011,7523.83,-296.74,-262.4499999999998
40,0.040001,139,1754011,4011.83,744.26,-1200.4499999999998
41,0.041000,140,1755010,4406.83,1300.26,-2778.45
42,0.042000,141,1756010,8042.83,750.26,-3474.45
43,0.043001,142,1757011,8031.83,-327.74,-3110.45
44,0.044001,143,1758011,3825.83,-488.74,-2329.45
45,0.045001,144,1759011,-4251.17,5.26,-3348.45
46,0.046001,145,1760011,-1474.17,110.26,-4171.45
47,0.047001,146,1761011,7969.83,363.26,-5244.45
48,0.048001,147,1762011,17011.83,-26.740000000000002,-4053.45
49,0.049001,148,1763011,19823.83,-334.74,-628.4499999999998
50,0.050000,149,1764010,9923.83,495.26,-573.4499999999998
51,0.051001,150,1765011,-3293.17,1077.26,244.55000000000018
52,0.052001,151,1766011,-9970.17,748.26,3731.55
53,0.053001,152,1767011,-6560.17,-139.74,4335.55
54,0.054001,153,1768011,725.83,-597.74,3397.55
55,0.055001,154,1769011,4696.83,-956.74,3835.55
56,0.056000,155,1770010,1949.83,-435.74,2048.55
57,0.057001,156,1771011,-4324.17,369.26,69.55000000000018
58,0.058001,157,1772011,-14427.17,-523.74,2082.55
59,0.059001,158,1773011,-22740.17,-1308.74,3271.55
60,0.060001,159,1774011,-19831.17,-368.74,1721.5500000000002
61,0.061001,160,1775011,-13596.17,-158.74,1809.5500000000002
62,0.062001,161,1776011,-3760.17,-13.74,3198.55
63,0.063001,162,1777011,4608.83,228.26,1435.5500000000002
64,0.064001,163,1778011,6588.83,-289.74,-483.4499999999998
65,0.065001,164,1779011,4205.83,561.26,-1199.4499999999998
66,0.066001,165,1780011,4644.83,1189.26,-2565.45
67,0.067001,166,1781011,8223.83,762.26,-3279.45
68,0.068001,167,1782011,8134.83,-106.74,-3063.45
69,0.069000,168,1783010,5101.83,-573.74,-2395.45
70,0.070001,169,1784011,-2571.17,-110.74,-3048.45
71,0.071000,170,1785010,-3418.17,311.26,-3900.45
72,0.072001,171,1786011,5179.83,334.26,-5098.45
73,0.073001,172,1787011,15465.83,47.26,-4667.45
74,0.074001,173,1788011,20637.83,-429.74,-914.4499999999998
75,0.075000,174,1789010,13092.83,200.26,31.550000000000182
76,0.076001,175,1790011,-1851.17,1402.26,-534.4499999999998
77,0.077001,176,1791011,-9811.17,663.26,2776.55
78,0.078001,177,1792011,-8150.17,-232.74,4317.55
79,0.079001,178,1793011,-925.17,-134.74,3404.55
80,0.080001,179,1794011,5600.83,-1005.74,3950.55
81,0.081001,180,1795011,3591.83,-725.74,2563.55
82,0.082000,181,1796010,-3255.17,448.26,417.5500000000002
83,0.083001,182,1797011,-12069.17,-451.74,1728.5500000000002
84,0.084001,183,1798011,-22380.17,-1238.74,3282.55
85,0.085000,184,1799010,-21319.17,-343.74,1984.5500000000002
86,0.086001,185,1800011,-14933.17,-376.74,1626.5500000000002
87,0.087000,186,1801010,-5719.17,-145.74,2915.55
88,0.088001,187,1802011,3923.83,319.26,1668.5500000000002
89,0.089001,188,1803011,6390.83,-221.74,-199.44999999999982
90,0.090001,189,1804011,4880.83,307.26,-852.4499999999998
91,0.091001,190,1805011,3713.83,1073.26,-2463.45
92,0.092001,191,1806011,7482.83,967.26,-3355.45
93,0.093000,192,1807010,8191.83,174.26,-2937.45
94,0.094001,193,1808011,5953.83,-568.74,-2186.45
95,0.095001,194,1809011,-781.17,-232.74,-2907.45
96,0.096001,195,1810011,-4255.17,512.26,-3991.45
97,0.097001,196,1811011,3680.83,242.26,-4630.45
98,0.098001,197,1812011,14332.83,71.26,-4895.45
99,0.099001,198,1813011,20843.83,-327.74,-1482.4499999999998
100,0.100000,199,1814010,14961.83,115.26,-24.449999999999818
101,0.101001,200,1815011,1288.83,928.26,-690.4499999999998
102,0.102001,201,1816011,-9828.17,948.26,2194.55
103,0.103001,202,1817011,-8794.17,152.26,4513.55
104,0.104001,203,1818011,-1405.17,-816.74,3565.55
105,0.105001,204,1819011,4240.83,-555.74,3233.55
106,0.106001,205,1820011,3697.83,-548.74,2867.55
107,0.107001,206,1821011,-3042.17,-279.74,551.5500000000002
108,0.108000,207,1822010,-10421.17,-67.74,1186.5500000000002
109,0.109001,208,1823011,-21234.17,-1181.74,3483.55
110,0.110001,209,1824011,-20978.17,-714.74,2721.55
111,0.111000,210,1825010,-16801.17,25.259999999999998,1422.5500000000002
112,0.112001,211,1826011,-7365.17,-300.74,2920.55
113,0.113001,212,1827011,3140.83,214.26,2326.55
114,0.114000,213,1828010,6021.83,50.26,77.55000000000018
115,0.115001,214,1829011,5151.83,157.26,-669.4499999999998
116,0.116001,215,1830011,3817.83,972.26,-2462.45
117,0.117001,216,1831011,7427.83,1035.26,-3552.45
118,0.118001,217,1832011,8220.83,237.26,-3127.45
119,0.119001,218,1833011,6620.83,-631.74,-2312.45
120,0.120000,219,1834010,305.83,-288.74,-2992.45
121,0.121001,220,1835011,-4288.17,477.26,-3934.45
122,0.122001,221,1836011,1923.83,282.26,-4546.45
123,0.123000,222,1837010,13352.83,126.26,-5000.45
124,0.124000,223,1838010,21043.83,-269.74,-1924.4499999999998
125,0.125001,224,1839011,16887.83,26.259999999999998,-103.44999999999982
126,0.126001,225,1840011,2669.83,711.26,-568.4499999999998
127,0.127001,226,1841011,-10079.17,1111.26,1782.5500000000002
128,0.128000,227,1842010,-9369.17,197.26,4277.55
129,0.129001,228,1843011,-2340.17,-680.74,3555.55
130,0.130001,229,1844011,3705.83,-552.74,3484.55
131,0.131001,230,1845011,4809.83,-878.74,3202.55
132,0.132001,231,1846011,-2442.17,-3.74,453.5500000000002
133,0.133001,232,1847011,-9494.17,22.259999999999998,1229.5500000000002
134,0.134001,233,1848011,-19976.17,-1325.74,3616.55
135,0.135001,234,1849011,-21850.17,-657.74,2545.55
136,0.136001,235,1850011,-18744.17,54.26,1261.5500000000002
137,0.137001,236,1851011,-8541.17,-226.74,3015.55
138,0.138000,237,1852010,3358.83,217.26,2710.55
139,0.139001,238,1853011,6285.83,-54.74,122.55000000000018
140,0.140001,239,1854011,5916.83,111.26,-686.4499999999998
141,0.141000,240,1855010,3314.83,835.26,-1964.4499999999998
142,0.142001,241,1856011,6961.83,1058.26,-3352.45
143,0.143001,242,1857011,7922.83,396.26,-3556.45
144,0.144000,243,1858010,6846.83,-598.74,-2541.45
145,0.145000,244,1859010,1357.83,-314.74,-2687.45
146,0.146001,245,1860011,-4623.17,354.26,-4047.45
147,0.147001,246,1861011,1594.83,321.26,-4642.45
148,0.148001,247,1862011,12186.83,52.26,-5006.45
149,0.149001,248,1863011,20839.83,-181.74,-2310.45
150,0.150001,249,1864011,18021.83,-78.74,-137.44999999999982
151,0.151000,250,1865010,3578.83,747.26,-814.4499999999998
152,0.152000,251,1866010,-8437.17,1269.26,1575.5500000000002
153,0.153001,252,1867011,-9646.17,50.26,4500.55
154,0.154001,253,1868011,-3514.17,-387.74,3671.55
155,0.155001,254,1869011,3382.83,-671.74,3417.55
156,0.156001,255,1870011,4665.83,-867.74,3227.55
157,0.157001,256,1871011,-2344.17,19.259999999999998,720.5500000000002
158,0.158000,257,1872010,-8778.17,-118.74,1110.5500000000002
159,0.159000,258,1873010,-18238.17,-1195.74,3245.55
160,0.160001,259,1874011,-22073.17,-751.74,2729.55
161,0.161001,260,1875011,-19763.17,129.26,1507.5500000000002
162,0.162001,261,1876011,-9683.17,-159.74,2700.55
163,0.163000,262,1877010,2289.83,275.26,2856.55
164,0.164001,263,1878011,6272.83,-181.74,585.5500000000002
165,0.165001,264,1879011,6554.83,20.259999999999998,-422.4499999999998
166,0.166000,265,1880010,3319.83,928.26,-1840.4499999999998
167,0.167000,266,1881010,6050.83,996.26,-3500.45
168,0.168001,267,1882011,8503.83,542.26,-3803.45
169,0.169001,268,1883011,7562.83,-570.74,-2597.45
170,0.170001,269,1884011,1891.83,-664.74,-2618.45
171,0.171001,270,1885011,-5143.17,550.26,-4249.45
172,0.172000,271,1886010,660.83,326.26,-4367.45
173,0.173001,272,1887011,11538.83,-163.74,-5042.45
174,0.174001,273,1888011,20069.83,36.26,-2847.45
175,0.175000,274,1889010,19082.83,-110.74,0.5500000000001819
176,0.176001,275,1890011,4965.83,593.26,-745.4499999999998
177,0.177001,276,1891011,-7681.17,1151.26,1420.5500000000002
178,0.178001,277,1892011,-10167.17,489.26,4312.55
179,0.179001,278,1893011,-3561.17,-493.74,3830.55
180,0.180001,279,1894011,2554.83,-910.74,3375.55
181,0.181000,280,1895010,4380.83,-507.74,3288.55
182,0.182001,281,1896011,-901.17,-110.74,984.5500000000002
183,0.183001,282,1897011,-7833.17,-191.74,808.5500000000002
184,0.184001,283,1898011,-17477.17,-985.74,3424.55
185,0.185001,284,1899011,-22601.17,-934.74,2852.55
186,0.186000,285,1900010,-20273.17,195.26,1310.5500000000002
187,0.187001,286,1901011,-11416.17,21.259999999999998,2529.55
188,0.188001,287,1902011,2062.83,-3.74,3042.55
189,0.189001,288,1903011,6557.83,-56.74,737.5500000000002
190,0.190001,289,1904011,6835.83,-145.74,-449.4499999999998
191,0.191001,290,1905011,3172.83,955.26,-1721.4499999999998
192,0.192001,291,1906011,5560.83,1139.26,-3201.45
193,0.193001,292,1907011,8802.83,285.26,-3872.45
194,0.194001,293,1908011,7414.83,-264.74,-3063.45
195,0.195001,294,1909011,2505.83,-597.74,-2146.45
196,0.196001,295,1910011,-5014.17,96.26,-3936.45
197,0.197001,296,1911011,231.82999999999998,561.26,-4825.45
198,0.198001,297,1912011,11071.83,-38.74,-5100.45
199,0.199001,298,1913011,19366.83,-136.74,-2884.45
200,0.200001,299,1914011,19332.83,161.26,-239.44999999999982
201,0.201001,300,1915011,6818.83,490.26,-636.4499999999998
202,0.202001,301,1916011,-7336.17,1178.26,1082.5500000000002
203,0.203000,302,1917010,-9957.17,523.26,4449.55
204,0.204001,303,1918011,-4540.17,-415.74,4119.55
205,0.205001,304,1919011,1887.83,-642.74,3182.55
206,0.206000,305,1920010,4902.83,-970.74,3659.55
207,0.207001,306,1921011,-442.17,-228.74,1215.5500000000002
208,0.208001,307,1922011,-6995.17,29.259999999999998,429.5500000000002
209,0.209001,308,1923011,-17157.17,-1018.74,2718.55
210,0.210001,309,1924011,-22976.17,-957.74,2689.55
211,0.211000,310,1925010,-20513.17,-5.74,1569.5500000000002
212,0.212000,311,1926010,-12295.17,-106.74,2377.55
213,0.213001,312,1927011,834.83,216.26,2985.55
214,0.214001,313,1928011,6719.83,-42.74,1158.5500000000002
215,0.215001,314,1929011,7216.83,-109.74,-329.4499999999998
216,0.216001,315,1930011,3807.83,1122.26,-1599.4499999999998
217,0.217001,316,1931011,5173.83,883.26,-2887.45
218,0.218001,317,1932011,8918.83,577.26,-3646.45
219,0.219000,318,1933010,7790.83,-200.74,-2972.45
220,0.220001,319,1934011,2693.83,-868.74,-2526.45
221,0.221001,320,1935011,-5297.17,434.26,-4023.45
222,0.222001,321,1936011,-141.17000000000002,195.26,-4227.45
223,0.223001,322,1937011,10152.83,-79.74,-5244.45
224,0.224001,323,1938011,18706.83,31.259999999999998,-3457.45
225,0.225000,324,1939010,19913.83,-279.74,-225.44999999999982
226,0.226001,325,1940011,7495.83,668.26,-852.4499999999998
227,0.227001,326,1941011,-6368.17,1133.26,786.5500000000002
228,0.228001,327,1942011,-9911.17,424.26,4185.55
229,0.229001,328,1943011,-4962.17,-4.74,4076.55
230,0.230001,329,1944011,1631.83,-754.74,3758.55
231,0.231001,330,1945011,5418.83,-997.74,3939.55
232,0.232001,331,1946011,-3.1700000000000017,47.26,1414.5500000000002
233,0.233001,332,1947011,-5745.17,-236.74,823.5500000000002
234,0.234001,333,1948011,-16876.17,-839.74,2616.55
235,0.235000,334,1949010,-23402.17,-874.74,2495.55
236,0.236001,335,1950011,-20323.17,-415.74,1429.5500000000002
237,0.237001,336,1951011,-13627.17,-10.74,2112.55
238,0.238001,337,1952011,-624.17,151.26,2851.55
239,0.239000,338,1953010,6373.83,-243.74,1029.5500000000002
240,0.240000,339,1954010,7276.83,-129.74,-371.4499999999998
241,0.241001,340,1955011,4377.83,870.26,-1350.4499999999998
242,0.242001,341,1956011,5069.83,1072.26,-2796.45
243,0.243001,342,1957011,8360.83,749.26,-3442.45
244,0.244000,343,1958010,8205.83,-274.74,-2801.45
245,0.245000,344,1959010,3265.83,-468.74,-2388.45
246,0.246001,345,1960011,-4627.17,180.26,-3549.45
247,0.247001,346,1961011,-364.17,-60.74,-4100.45
248,0.248001,347,1962011,9129.83,422.26,-5373.45
249,0.249000,348,1963010,18133.83,-47.74,-3714.45
250,0.250001,349,1964011,19866.83,-570.74,-471.4499999999998
251,0.251001,350,1965011,8016.83,835.26,-893.4499999999998
252,0.252000,351,1966010,-4991.17,1012.26,418.5500000000002
253,0.253001,352,1967011,-9880.17,377.26,3641.55
254,0.254001,353,1968011,-5374.17,3.26,3997.55
255,0.255001,354,1969011,1113.83,-696.74,3493.55
256,0.256001,355,1970011,4962.83,-1042.74,3878.55
257,0.257000,356,1971010,925.83,-180.74,1766.5500000000002
258,0.258000,357,1972010,-5291.17,204.26,428.5500000000002
259,0.259001,358,1973011,-16620.17,-524.74,2581.55
260,0.260000,359,1974010,-23441.17,-1144.74,3161.55
261,0.261001,360,1975011,-19524.17,-166.74,1657.5500000000002
262,0.262001,361,1976011,-13300.17,11.26,2469.55
263,0.263001,362,1977011,-1543.17,-112.74,3445.55
264,0.264001,363,1978011,5512.83,71.26,949.5500000000002
265,0.265001,364,1979011,6406.83,-258.74,-529.4499999999998
266,0.266001,365,1980011,4369.83,625.26,-1332.4499999999998
267,0.267001,366,1981011,4813.83,1201.26,-3092.45
268,0.268001,367,1982011,8486.83,692.26,-3773.45
269,0.269001,368,1983011,8166.83,-333.74,-3052.45
270,0.270000,369,1984010,3648.83,-587.74,-2461.45
271,0.271001,370,1985011,-3522.17,46.26,-3474.45
272,0.272000,371,1986010,-1690.17,284.26,-4068.45
273,0.273000,372,1987010,8431.83,244.26,-5132.45
274,0.274001,373,1988011,17418.83,73.26,-4155.45
275,0.275001,374,1989011,20018.83,-149.74,-502.4499999999998
276,0.276001,375,1990011,10589.83,363.26,-172.44999999999982
277,0.277001,376,1991011,-3732.17,1113.26,24.550000000000182
278,0.278001,377,1992011,-10337.17,692.26,3416.55
279,0.279000,378,1993010,-6465.17,-192.74,4425.55
280,0.280001,379,1994011,326.83,-742.74,3537.55
281,0.281001,380,1995011,5069.83,-858.74,3597.55
282,0.282001,381,1996011,1554.83,-377.74,1852.5500000000002
283,0.283001,382,1997011,-4115.17,-6.74,376.5500000000002
284,0.284001,383,1998011,-15367.17,-425.74,2248.55
285,0.285001,384,1999011,-24401.17,-1198.74,3016.55
286,0.286001,385,2000011,-20379.17,-312.74,1732.5500000000002
287,0.287001,386,2001011,-14406.17,4.26,2237.55
288,0.288001,387,2002011,-2233.17,40.26,3421.55
289,0.289000,388,2003010,5657.83,7.26,1683.5500000000002
290,0.290001,389,2004011,7283.83,-280.74,-281.4499999999998
291,0.291000,390,2005010,5027.83,618.26,-1040.4499999999998
292,0.292000,391,2006010,3871.83,1081.26,-2756.45
293,0.293001,392,2007011,7918.83,904.26,-3842.45
294,0.294001,393,2008011,7841.83,-231.74,-3214.45
295,0.295000,394,2009010,4319.83,-682.74,-2426.45
296,0.296000,395,2010010,-2970.17,8.26,-3332.45
297,0.297000,396,2011010,-1843.17,174.26,-4156.45
298,0.298001,397,2012011,7441.83,350.26,-5436.45
299,0.299000,398,2013010,16513.83,-57.74,-4417.45
300,0.300001,399,2014011,20622.83,-402.74,-480.4499999999998
301,0.301001,400,2015011,11147.83,676.26,-464.4499999999998
302,0.302001,401,2016011,-2250.17,986.26,-78.44999999999982
303,0.303001,402,2017011,-9952.17,557.26,3400.55
304,0.304001,403,2018011,-7428.17,351.26,4341.55
305,0.305000,404,2019010,399.83,-679.74,3737.55
306,0.306000,405,2020010,4721.83,-1268.74,3919.55
307,0.307000,406,2021010,1712.83,-79.74,2067.55
308,0.308000,407,2022010,-3797.17,1.2599999999999998,295.5500000000002
309,0.309001,408,2023011,-14587.17,-596.74,2137.55
310,0.310001,409,2024011,-23953.17,-967.74,3167.55
311,0.311001,410,2025011,-20446.17,-616.74,1706.5500000000002
312,0.312001,411,2026011,-14518.17,-41.74,1868.5500000000002
313,0.313001,412,2027011,-4032.17,10.26,3359.55
314,0.314001,413,2028011,4892.83,154.26,1589.5500000000002
315,0.315000,414,2029010,7158.83,-107.74,-160.44999999999982
316,0.316001,415,2030011,5019.83,371.26,-884.4499999999998
317,0.317001,416,2031011,4813.83,1123.26,-2593.45
318,0.318001,417,2032011,7725.83,933.26,-3544.45
319,0.319001,418,2033011,8227.83,-134.74,-3347.45
320,0.320000,419,2034010,5264.83,-503.74,-2491.45
321,0.321001,420,2035011,-2434.17,-235.74,-3163.45
322,0.322001,421,2036011,-3006.17,250.26,-4136.45
323,0.323001,422,2037011,5733.83,330.26,-5179.45
324,0.324001,423,2038011,15909.83,-79.74,-4594.45
325,0.325001,424,2039011,20630.83,-255.74,-847.4499999999998
326,0.326000,425,2040010,12654.83,308.26,-243.44999999999982
327,0.327001,426,2041011,-1430.17,1124.26,-473.4499999999998
328,0.328001,427,2042011,-10177.17,831.26,2998.55
329,0.329001,428,2043011,-7787.17,24.259999999999998,4472.55
330,0.330001,429,2044011,-484.17,-487.74,3520.55
331,0.331001,430,2045011,5010.83,-954.74,3836.55
332,0.332001,431,2046011,3410.83,-625.74,2716.55
333,0.333001,432,2047011,-4328.17,322.26,337.5500000000002
334,0.334001,433,2048011,-13136.17,-314.74,1846.5500000000002
335,0.335001,434,2049011,-23294.17,-1254.74,3291.55
336,0.336001,435,2050011,-21502.17,-435.74,1796.5500000000002
337,0.337001,436,2051011,-14596.17,-221.74,1664.5500000000002
338,0.338001,437,2052011,-5036.17,-100.74,3093.55
339,0.339001,438,2053011,4477.83,286.26,2026.5500000000002
340,0.340001,439,2054011,6803.83,-266.74,-139.44999999999982
341,0.341001,440,2055011,5083.83,354.26,-1116.4499999999998
342,0.342001,441,2056011,4480.83,1065.26,-2456.45
343,0.343001,442,2057011,7770.83,973.26,-3413.45
344,0.344001,443,2058011,7923.83,293.26,-3322.45
345,0.345001,444,2059011,5814.83,-863.74,-2343.45
346,0.346000,445,2060010,-1355.17,-348.74,-3066.45
347,0.347001,446,2061011,-3455.17,471.26,-4007.45
348,0.348001,447,2062011,4588.83,206.26,-4923.45
349,0.349001,448,2063011,14801.83,187.26,-4983.45
350,0.350001,449,2064011,20759.83,-174.74,-1306.4499999999998
351,0.351001,450,2065011,14388.83,-78.74,-149.44999999999982
352,0.352000,451,2066010,-394.17,1231.26,-501.4499999999998
353,0.353001,452,2067011,-9737.17,896.26,2843.55
354,0.354001,453,2068011,-8013.17,-221.74,4504.55
355,0.355001,454,2069011,-1603.17,-336.74,3316.55
356,0.356001,455,2070011,4862.83,-1059.74,3788.55
357,0.357001,456,2071011,3226.83,-495.74,2654.55
358,0.358000,457,2072010,-4502.17,445.26,93.55000000000018
359,0.359001,458,2073011,-11164.17,-553.74,1880.5500000000002
360,0.360001,459,2074011,-22128.17,-1154.74,3543.55
361,0.361001,460,2075011,-21657.17,-441.74,2191.55
362,0.362001,461,2076011,-15418.17,-119.74,1724.5500000000002
363,0.363000,462,2077010,-6085.17,5.26,3154.55
364,0.364001,463,2078011,4048.83,222.26,2209.55
365,0.365001,464,2079011,5938.83,-169.74,-252.44999999999982
366,0.366001,465,2080011,5459.83,254.26,-825.4499999999998
367,0.367001,466,2081011,4165.83,884.26,-2198.45
368,0.368001,467,2082011,7770.83,1007.26,-3588.45
369,0.369001,468,2083011,8134.83,247.26,-3562.45
370,0.370001,469,2084011,6004.83,-849.74,-2302.45
371,0.371001,470,2085011,-348.17,-333.74,-2783.45
372,0.372001,471,2086011,-4355.17,543.26,-4338.45
373,0.373001,472,2087011,3488.83,270.26,-5102.45
374,0.374001,473,2088011,14325.83,-132.74,-4748.45
375,0.375001,474,2089011,21282.83,-206.74,-1350.4499999999998
376,0.376001,475,2090011,15663.83,133.26,-171.44999999999982
377,0.377001,476,2091011,63.83,1104.26,-800.4499999999998
378,0.378001,477,2092011,-9652.17,939.26,2572.55
379,0.379000,478,2093010,-8467.17,121.26,4710.55
380,0.380000,479,2094010,-1424.17,-435.74,3607.55
381,0.381001,480,2095011,4773.83,-1103.74,3876.55
382,0.382001,481,2096011,3663.83,-454.74,2800.55
383,0.383001,482,2097011,-3518.17,158.26,287.5500000000002
384,0.384001,483,2098011,-10903.17,-373.74,1412.5500000000002
385,0.385001,484,2099011,-21390.17,-1136.74,3339.55
386,0.386001,485,2100011,-22039.17,-655.74,2156.55
387,0.387001,486,2101011,-17083.17,-99.74,1264.5500000000002
388,0.388000,487,2102010,-7349.17,-87.74,3058.55
389,0.389000,488,2103010,3814.83,331.26,2464.55
390,0.390000,489,2104010,6529.83,-219.74,171.55000000000018
391,0.391001,490,2105011,5623.83,272.26,-781.4499999999998
392,0.392001,491,2106011,4117.83,1008.26,-2078.45
393,0.393001,492,2107011,7081.83,843.26,-3275.45
394,0.394000,493,2108010,8311.83,508.26,-3710.45
395,0.395000,494,2109010,7050.83,-712.74,-2413.45
396,0.396001,495,2110011,348.83,-504.74,-2589.45
397,0.397001,496,2111011,-4731.17,516.26,-4170.45
398,0.398001,497,2112011,2004.83,284.26,-5114.45
399,0.399001,498,2113011,13480.83,-31.740000000000002,-5034.45
400,0.400001,499,2114011,20832.83,-368.74,-1665.4499999999998
401,0.401000,500,2115010,17006.83,59.26,-246.44999999999982
402,0.402001,501,2116011,1945.83,1058.26,-1013.4499999999998
403,0.403001,502,2117011,-9782.17,1029.26,2126.55
404,0.404000,503,2118010,-8786.17,149.26,4662.55
405,0.405001,504,2119011,-2094.17,-375.74,3596.55
406,0.406001,505,2120011,4532.83,-957.74,3896.55
407,0.407001,506,2121011,4002.83,-688.74,3339.55
408,0.408001,507,2122011,-3654.17,274.26,521.5500000000002
409,0.409001,508,2123011,-10263.17,-190.74,1191.5500000000002
410,0.410001,509,2124011,-19971.17,-1270.74,3266.55
411,0.411001,510,2125011,-21358.17,-713.74,2509.55
412,0.412001,511,2126011,-18243.17,-29.740000000000002,1352.5500000000002
413,0.413001,512,2127011,-8267.17,-126.74,2823.55
414,0.414001,513,2128011,3133.83,355.26,2552.55
415,0.415001,514,2129011,5824.83,-106.74,25.550000000000182
416,0.416001,515,2130011,6036.83,16.259999999999998,-749.4499999999998
417,0.417001,516,2131011,4094.83,885.26,-1915.4499999999998
418,0.418000,517,2132010,6985.83,1213.26,-3352.45
419,0.419001,518,2133011,8689.83,376.26,-3405.45
420,0.420001,519,2134011,6778.83,-651.74,-2542.45
421,0.421001,520,2135011,1023.83,-305.74,-2794.45
422,0.422001,521,2136011,-4412.17,332.26,-3842.45
423,0.423001,522,2137011,1314.83,476.26,-4710.45
424,0.424001,523,2138011,12843.83,3.26,-5125.45
425,0.425001,524,2139011,20721.83,-361.74,-2241.45
426,0.426001,525,2140011,17408.83,141.26,-99.44999999999982
427,0.427001,526,2141011,2908.83,621.26,-684.4499999999998
428,0.428001,527,2142011,-9335.17,1101.26,1576.5500000000002
429,0.429001,528,2143011,-9407.17,387.26,4378.55
430,0.430000,529,2144010,-2492.17,-662.74,3813.55
431,0.431001,530,2145011,3754.83,-710.74,3612.55
432,0.432001,531,2146011,4620.83,-687.74,3251.55
433,0.433000,532,2147010,-2673.17,24.259999999999998,623.5500000000002
434,0.434001,533,2148011,-9689.17,-32.74,1119.5500000000002
435,0.435001,534,2149011,-19002.17,-1270.74,3520.55
436,0.436001,535,2150011,-21869.17,-777.74,2573.55
437,0.437001,536,2151011,-19307.17,199.26,1251.5500000000002
438,0.438001,537,2152011,-8983.17,-231.74,2917.55
439,0.439001,538,2153011,3174.83,160.26,2806.55
440,0.440001,539,2154011,6092.83,-6.74,238.55000000000018
441,0.441001,540,2155011,6043.83,-86.74,-669.4499999999998
442,0.442001,541,2156011,3765.83,841.26,-1859.4499999999998
443,0.443001,542,2157011,6456.83,1103.26,-3416.45
444,0.444000,543,2158010,8182.83,479.26,-3707.45
445,0.445001,544,2159011,7264.83,-682.74,-2574.45
446,0.446001,545,2160011,1462.83,-477.74,-2651.45
447,0.447000,546,2161010,-4972.17,510.26,-4095.45
448,0.448001,547,2162011,1112.83,287.26,-4599.45
449,0.449001,548,2163011,11925.83,19.259999999999998,-5087.45
450,0.450000,549,2164010,20258.83,-125.74,-2537.45
451,0.451001,550,2165011,18333.83,-69.74,0.5500000000001819
452,0.452001,551,2166011,4540.83,706.26,-681.4499999999998
453,0.453000,552,2167010,-8609.17,1442.26,1408.5500000000002
454,0.454001,553,2168011,-8938.17,33.26,4809.55
455,0.455001,554,2169011,-2970.17,-747.74,3913.55
456,0.456001,555,2170011,2350.83,-150.74,3107.55
457,0.457001,556,2171011,4885.83,-1150.74,3646.55
458,0.458001,557,2172011,-2299.17,-176.74,796.5500000000002
459,0.459001,558,2173011,-8849.17,269.26,549.5500000000002
460,0.460001,559,2174011,-17817.17,-1619.74,3357.55
461,0.461001,560,2175011,-22148.17,-737.74,2792.55
462,0.462001,561,2176011,-20047.17,353.26,1277.5500000000002
463,0.463000,562,2177010,-10376.17,-231.74,2506.55
464,0.464001,563,2178011,2089.83,130.26,2967.55
465,0.465001,564,2179011,6413.83,-79.74,804.5500000000002
466,0.466001,565,2180011,6299.83,79.26,-477.4499999999998
467,0.467000,566,2181010,3420.83,918.26,-1736.4499999999998
468,0.468001,567,2182011,6422.83,1022.26,-3315.45
469,0.469001,568,2183011,8816.83,490.26,-3675.45
470,0.470000,569,2184010,7578.83,-557.74,-2555.45
471,0.471000,570,2185010,2105.83,-438.74,-2613.45
472,0.472001,571,2186011,-5493.17,547.26,-4147.45
473,0.473001,572,2187011,556.83,54.26,-4372.45
474,0.474001,573,2188011,11294.83,-65.74,-5259.45
475,0.475001,574,2189011,20178.83,69.26,-2909.45
476,0.476001,575,2190011,19434.83,-265.74,271.5500000000002
477,0.477000,576,2191010,4667.83,721.26,-1065.4499999999998
478,0.478001,577,2192011,-7685.17,1264.26,816.5500000000002
479,0.479001,578,2193011,-10104.17,248.26,4514.55
480,0.480001,579,2194011,-3881.17,-206.74,4007.55
481,0.481001,580,2195011,3091.83,-736.74,3607.55
482,0.482001,581,2196011,5218.83,-1098.74,3556.55
483,0.483000,582,2197010,-1380.17,217.26,1023.5500000000002
484,0.484001,583,2198011,-7903.17,-235.74,1105.5500000000002
485,0.485001,584,2199011,-17438.17,-1177.74,3034.55
486,0.486000,585,2200010,-22915.17,-615.74,2405.55
487,0.487001,586,2201011,-20468.17,-253.74,1454.5500000000002
488,0.488001,587,2202011,-11250.17,-11.74,2479.55
489,0.489000,588,2203010,1256.83,261.26,2737.55
490,0.490001,589,2204011,6329.83,-251.74,668.5500000000002
491,0.491001,590,2205011,6739.83,-16.740000000000002,-392.4499999999998
492,0.492001,591,2206011,3925.83,833.26,-1521.4499999999998
493,0.493001,592,2207011,5773.83,1030.26,-3120.45
494,0.494001,593,2208011,8218.83,708.26,-3623.45
495,0.495001,594,2209011,8123.83,-515.74,-2760.45
496,0.496001,595,2210011,2493.83,-444.74,-2603.45
497,0.497001,596,2211011,-5008.17,397.26,-3803.45
498,0.498001,597,2212011,497.83,53.26,-4177.45
499,0.499001,598,2213011,10478.83,217.26,-5215.45
500,0.500001,599,2214011,19240.83,-144.74,-3171.45
501,0.501001,600,2215011,19324.83,-256.74,-229.44999999999982
502,0.502001,601,2216011,6375.83,848.26,-870.4499999999998
503,0.503001,602,2217011,-6597.17,1002.26,898.5500000000002
504,0.504000,603,2218010,-10111.17,388.26,4101.55
505,0.505000,604,2219010,-4543.17,-119.74,3913.55
506,0.506001,605,2220011,2194.83,-802.74,3479.55
507,0.507001,606,2221011,4686.83,-920.74,3683.55
508,0.508001,607,2222011,-542.17,-102.74,1314.5500000000002
509,0.509001,608,2223011,-6454.17,-121.74,688.5500000000002
510,0.510001,609,2224011,-17525.17,-768.74,2882.55
511,0.511000,610,2225010,-22639.17,-943.74,2919.55
512,0.512001,611,2226011,-19985.17,-31.740000000000002,1422.5500000000002
513,0.513001,612,2227011,-12427.17,16.259999999999998,2455.55
514,0.514001,613,2228011,629.83,-78.74,3274.55
515,0.515001,614,2229011,5996.83,30.259999999999998,797.5500000000002
516,0.516001,615,2230011,6826.83,-138.74,-421.4499999999998
517,0.517001,616,2231011,3722.83,760.26,-1615.4499999999998
518,0.518000,617,2232010,5356.83,1112.26,-3165.45
519,0.519001,618,2233011,8696.83,471.26,-3571.45
520,0.520001,619,2234011,7894.83,-302.74,-3048.45
521,0.521001,620,2235011,2931.83,-549.74,-2590.45
522,0.522000,621,2236010,-5351.17,267.26,-3776.45
523,0.523001,622,2237011,-383.17,363.26,-4235.45
524,0.524001,623,2238011,10661.83,-81.74,-5140.45
525,0.525001,624,2239011,18522.83,59.26,-3617.45
526,0.526000,625,2240010,19955.83,-214.74,-165.44999999999982
527,0.527001,626,2241011,7791.83,434.26,-656.4499999999998
528,0.528000,627,2242010,-6209.17,1334.26,389.5500000000002
529,0.529001,628,2243011,-10325.17,404.26,4011.55
530,0.530001,629,2244011,-5016.17,-321.74,4056.55
531,0.531001,630,2245011,1549.83,-553.74,3306.55
532,0.532001,631,2246011,5373.83,-1019.74,3760.55
533,0.533001,632,2247011,328.83,-175.74,1557.5500000000002
534,0.534001,633,2248011,-5876.17,79.26,553.5500000000002
535,0.535001,634,2249011,-16409.17,-834.74,2777.55
536,0.536001,635,2250011,-23671.17,-998.74,2894.55
537,0.537001,636,2251011,-20429.17,-26.740000000000002,1496.5500000000002
538,0.538001,637,2252011,-13182.17,-26.740000000000002,2376.55
539,0.539001,638,2253011,-644.17,-37.74,3150.55
540,0.540001,639,2254011,6054.83,57.26,1005.5500000000002
541,0.541001,640,2255011,7479.83,-238.74,-211.44999999999982
542,0.542000,641,2256010,3842.83,722.26,-1323.4499999999998
543,0.543001,642,2257011,4861.83,1151.26,-2986.45
544,0.544000,643,2258010,8696.83,652.26,-3572.45
545,0.545001,644,2259011,7771.83,-110.74,-3133.45
546,0.546000,645,2260010,3425.83,-668.74,-2438.45
547,0.547000,646,2261010,-5007.17,63.26,-3709.45
548,0.548001,647,2262011,-492.17,447.26,-4225.45
549,0.549001,648,2263011,9838.83,-61.74,-5116.45
550,0.550001,649,2264011,17321.83,-113.74,-4011.45
551,0.551000,650,2265010,20540.83,-200.74,-253.44999999999982
552,0.552001,651,2266011,9028.83,692.26,-652.4499999999998
553,0.553001,652,2267011,-4691.17,1029.26,173.55000000000018
554,0.554000,653,2268010,-10418.17,369.26,3662.55
555,0.555001,654,2269011,-6356.17,238.26,4029.55
556,0.556001,655,2270011,1986.83,-823.74,3557.55
557,0.557001,656,2271011,4895.83,-1123.74,3986.55
558,0.558001,657,2272011,871.83,114.26,1920.5500000000002
559,0.559000,658,2273010,-4591.17,-158.74,324.5500000000002
560,0.560001,659,2274011,-16649.17,-639.74,2563.55
561,0.561001,660,2275011,-23592.17,-845.74,3378.55
562,0.562000,661,2276010,-19399.17,-443.74,1664.5500000000002
563,0.563001,662,2277011,-14032.17,7.26,1843.5500000000002
564,0.564001,663,2278011,-2190.17,-80.74,3298.55
565,0.565001,664,2279011,5311.83,-72.74,1298.5500000000002
566,0.566001,665,2280011,6782.83,28.259999999999998,-292.4499999999998
567,0.567001,666,2281011,4435.83,637.26,-1326.4499999999998
568,0.568001,667,2282011,5014.83,960.26,-3129.45
569,0.569001,668,2283011,8222.83,894.26,-3361.45
570,0.570001,669,2284011,8557.83,-301.74,-2968.45
571,0.571001,670,2285011,3968.83,-468.74,-2716.45
572,0.572001,671,2286011,-3941.17,8.26,-3375.45
573,0.573001,672,2287011,-1342.17,-49.74,-3980.45
574,0.574000,673,2288010,7886.83,434.26,-5328.45
575,0.575001,674,2289011,17884.83,-3.74,-3919.45
576,0.576001,675,2290011,19851.83,-311.74,-698.4499999999998
577,0.577000,676,2291010,10049.83,501.26,-712.4499999999998
578,0.578000,677,2292010,-3321.17,864.26,182.55000000000018
579,0.579001,678,2293011,-10711.17,753.26,3367.55
580,0.580001,679,2294011,-6783.17,146.26,4146.55
581,0.581001,680,2295011,828.83,-927.74,3506.55
582,0.582001,681,2296011,5004.83,-841.74,3766.55
583,0.583001,682,2297011,2113.83,-201.74,2049.55
584,0.584001,683,2298011,-3997.17,-2.74,593.5500000000002
585,0.585001,684,2299011,-15028.17,-285.74,2561.55
586,0.586001,685,2300011,-24023.17,-1162.74,3066.55
587,0.587001,686,2301011,-20490.17,-473.74,1550.5500000000002
588,0.588001,687,2302011,-14210.17,26.259999999999998,2127.55
589,0.589001,688,2303011,-2865.17,-88.74,3554.55
590,0.590001,689,2304011,5253.83,157.26,1487.5500000000002
591,0.591001,690,2305011,6769.83,-239.74,-516.4499999999998
592,0.592000,691,2306010,4612.83,390.26,-1275.4499999999998
593,0.593001,692,2307011,4086.83,1263.26,-2812.45
594,0.594001,693,2308011,8314.83,863.26,-3579.45
595,0.595001,694,2309011,8257.83,-229.74,-3330.45
596,0.596001,695,2310011,4490.83,-478.74,-2400.45
597,0.597000,696,2311010,-2592.17,-233.74,-2956.45
598,0.598001,697,2312011,-2542.17,266.26,-4161.45
599,0.599001,698,2313011,6712.83,493.26,-5287.45
600,0.600001,699,2314011,16879.83,-183.74,-4213.45
601,0.601001,700,2315011,20207.83,-103.74,-847.4499999999998
602,0.602001,701,2316011,11775.83,512.26,-360.4499999999998
603,0.603001,702,2317011,-2034.17,887.26,-127.44999999999982
604,0.604001,703,2318011,-10127.17,887.26,3258.55
605,0.605000,704,2319010,-7435.17,5.26,4320.55
606,0.606001,705,2320011,-59.17,-839.74,3339.55
607,0.607001,706,2321011,4717.83,-967.74,3768.55
608,0.608001,707,2322011,2400.83,-298.74,2216.55
609,0.609001,708,2323011,-4189.17,220.26,-90.44999999999982
610,0.610001,709,2324011,-13483.17,-489.74,2160.55
611,0.611000,710,2325010,-23496.17,-1221.74,3540.55
612,0.612001,711,2326011,-20899.17,-427.74,1708.5500000000002
613,0.613000,712,2327010,-14157.17,-31.740000000000002,2062.55
614,0.614001,713,2328011,-4248.17,-44.74,3570.55
615,0.615001,714,2329011,4531.83,331.26,1908.5500000000002
616,0.616000,715,2330010,6838.83,-281.74,-298.4499999999998
617,0.617001,716,2331011,4818.83,301.26,-1054.4499999999998
618,0.618000,717,2332010,4369.83,1243.26,-2473.45
619,0.619001,718,2333011,8104.83,907.26,-3593.45
620,0.620001,719,2334011,7970.83,-144.74,-3611.45
621,0.621001,720,2335011,5333.83,-647.74,-2513.45
622,0.622001,721,2336011,-2676.17,-154.74,-2931.45
623,0.623001,722,2337011,-2761.17,210.26,-4152.45
624,0.624001,723,2338011,5220.83,386.26,-5471.45
625,0.625001,724,2339011,16024.83,-8.74,-4492.45
626,0.626001,725,2340011,21217.83,-282.74,-776.4499999999998
627,0.627001,726,2341011,13065.83,398.26,-333.4499999999998
628,0.628000,727,2342010,-1234.17,1012.26,-406.4499999999998
629,0.629000,728,2343010,-10409.17,790.26,2927.55
630,0.630001,729,2344011,-7930.17,172.26,4718.55
631,0.631001,730,2345011,-213.17000000000002,-803.74,3829.55
632,0.632001,731,2346011,4886.83,-1044.74,3476.55
633,0.633001,732,2347011,2592.83,-74.74,2202.55
634,0.634001,733,2348011,-3405.17,61.26,431.5500000000002
635,0.635001,734,2349011,-12439.17,-442.74,1675.5500000000002
636,0.636001,735,2350011,-22943.17,-1045.74,3308.55
637,0.637000,736,2351010,-21480.17,-727.74,2010.5500000000002
638,0.638001,737,2352011,-15234.17,-42.74,1613.5500000000002
639,0.639001,738,2353011,-5376.17,39.26,3431.55
640,0.640001,739,2354011,4577.83,208.26,2035.5500000000002
641,0.641000,740,2355010,6876.83,-261.74,-0.4499999999998181
642,0.642001,741,2356011,5339.83,248.26,-791.4499999999998
643,0.643000,742,2357010,3843.83,1148.26,-2502.45
644,0.644001,743,2358011,7063.83,1015.26,-3480.45
645,0.645000,744,2359010,8126.83,-53.74,-3617.45
646,0.646000,745,2360010,5779.83,-601.74,-2525.45
647,0.647001,746,2361011,-742.17,-233.74,-2662.45
648,0.648000,747,2362010,-3764.17,272.26,-4144.45
649,0.649001,748,2363011,3531.83,572.26,-5300.45
650,0.650001,749,2364011,14985.83,-170.74,-4645.45
651,0.651000,750,2365010,21041.83,-383.74,-1175.4499999999998
652,0.652001,751,2366011,14773.83,434.26,-98.44999999999982
653,0.653001,752,2367011,567.83,993.26,-569.4499999999998
654,0.654001,753,2368011,-9951.17,848.26,2322.55
655,0.655001,754,2369011,-9079.17,64.26,4479.55
656,0.656001,755,2370011,-1626.17,-582.74,3593.55
657,0.657001,756,2371011,4729.83,-797.74,3628.55
658,0.658001,757,2372011,3597.83,-587.74,2931.55
659,0.659000,758,2373010,-3801.17,180.26,229.55000000000018
660,0.660001,759,2374011,-10119.17,-307.74,1410.5500000000002
661,0.661001,760,2375011,-20953.17,-1329.74,3551.55
662,0.662000,761,2376010,-21338.17,-465.74,2375.55
663,0.663001,762,2377011,-16463.17,-77.74,1471.5500000000002
664,0.664001,763,2378011,-7111.17,-49.74,2811.55
665,0.665000,764,2379010,3619.83,271.26,2485.55
666,0.666000,765,2380010,5997.83,-361.74,-18.449999999999818
667,0.667001,766,2381011,5882.83,433.26,-1014.4499999999998
668,0.668001,767,2382011,3563.83,835.26,-2041.4499999999998
669,0.669000,768,2383010,7163.83,876.26,-3578.45
670,0.670000,769,2384010,8029.83,391.26,-3572.45
671,0.671001,770,2385011,6082.83,-859.74,-2401.45
672,0.672001,771,2386011,627.83,-30.740000000000002,-2901.45
673,0.673001,772,2387011,-4414.17,471.26,-3968.45
674,0.674001,773,2388011,2049.83,110.26,-4689.45
675,0.675001,774,2389011,13020.83,119.26,-4749.45
676,0.676001,775,2390011,20910.83,-277.74,-1681.4499999999998
677,0.677001,776,2391011,16559.83,161.26,-252.44999999999982
678,0.678001,777,2392011,1977.83,893.26,-606.4499999999998
679,0.679001,778,2393011,-8672.17,835.26,2106.55
680,0.680001,779,2394011,-9218.17,290.26,4292.55
681,0.681001,780,2395011,-2837.17,-426.74,3820.55
682,0.682001,781,2396011,3830.83,-886.74,3656.55
683,0.683001,782,2397011,4215.83,-692.74,2779.55
684,0.684001,783,2398011,-2458.17,-87.74,476.5500000000002
685,0.685001,784,2399011,-9013.17,-172.74,1206.5500000000002
686,0.686001,785,2400011,-18344.17,-1130.74,3401.55
687,0.687001,786,2401011,-21466.17,-692.74,2505.55
688,0.688001,787,2402011,-19059.17,171.26,1160.5500000000002
689,0.689001,788,2403011,-8735.17,-202.74,2847.55
690,0.690001,789,2404011,3045.83,178.26,2808.55
691,0.691000,790,2405010,6116.83,47.26,260.5500000000002
692,0.692001,791,2406011,6077.83,-3.74,-763.4499999999998
693,0.693001,792,2407011,3617.83,906.26,-1924.4499999999998
694,0.694001,793,2408011,6141.83,1041.26,-3041.45
695,0.695000,794,2409010,7796.83,298.26,-3523.45
696,0.696001,795,2410011,6785.83,-404.74,-2779.45
697,0.697001,796,2411011,1790.83,-528.74,-2419.45
698,0.698001,797,2412011,-4780.17,351.26,-3784.45
699,0.699001,798,2413011,218.82999999999998,393.26,-4662.45
700,0.700000,799,2414010,11660.83,-7.74,-5070.45
701,0.701001,800,2415011,19681.83,-91.74,-2538.45
702,0.702000,801,2416010,18035.83,47.26,-104.44999999999982
703,0.703001,802,2417011,5611.83,685.26,-615.4499999999998
704,0.704001,803,2418011,-7885.17,1098.26,1375.5500000000002
705,0.705001,804,2419011,-9420.17,452.26,4514.55
706,0.706001,805,2420011,-3496.17,-521.74,4134.55
707,0.707001,806,2421011,2682.83,-677.74,3374.55
708,0.708000,807,2422010,4806.83,-806.74,3287.55
709,0.709000,808,2423010,-1567.17,-155.74,863.5500000000002
710,0.710000,809,2424010,-7277.17,-123.74,793.5500000000002
711,0.711001,810,2425011,-17159.17,-1159.74,2841.55
712,0.712001,811,2426011,-21745.17,-932.74,2477.55
713,0.713001,812,2427011,-20450.17,-2.74,1376.5500000000002
714,0.714001,813,2428011,-11625.17,-121.74,2154.55
715,0.715001,814,2429011,1434.83,186.26,2875.55
716,0.716001,815,2430011,5573.83,5.26,735.5500000000002
717,0.717001,816,2431011,7278.83,-120.74,-484.4499999999998
718,0.718001,817,2432011,3845.83,1029.26,-1341.4499999999998
719,0.719001,818,2433011,5700.83,964.26,-2727.45
720,0.720001,819,2434011,8497.83,595.26,-3277.45
721,0.721001,820,2435011,7223.83,-306.74,-2817.45
722,0.722000,821,2436010,2691.83,-554.74,-2442.45
723,0.723001,822,2437011,-5466.17,416.26,-3649.45
724,0.724001,823,2438011,73.83,221.26,-4359.45
725,0.725001,824,2439011,10906.83,66.26,-5412.45
726,0.726000,825,2440010,18712.83,-59.74,-3294.45
727,0.727000,826,2441010,19493.83,-290.74,-115.44999999999982
728,0.728000,827,2442010,6483.83,582.26,-870.4499999999998
729,0.729001,828,2443011,-6967.17,1160.26,779.5500000000002
730,0.730001,829,2444011,-9514.17,294.26,4158.55
731,0.731001,830,2445011,-4775.17,-100.74,3920.55
732,0.732001,831,2446011,2421.83,-766.74,3494.55
733,0.733001,832,2447011,5344.83,-945.74,3613.55
734,0.734001,833,2448011,-370.17,82.26,1356.5500000000002
735,0.735001,834,2449011,-5935.17,-255.74,992.5500000000002
736,0.736001,835,2450011,-16951.17,-887.74,2653.55
737,0.737001,836,2451011,-23105.17,-889.74,2618.55
738,0.738001,837,2452011,-20530.17,-200.74,1663.5500000000002
739,0.739000,838,2453010,-12847.17,9.26,2271.55
740,0.740001,839,2454011,571.83,26.259999999999998,2879.55
741,0.741001,840,2455011,6002.83,-165.74,640.5500000000002
742,0.742001,841,2456011,6758.83,-58.74,-380.4499999999998
743,0.743001,842,2457011,4092.83,838.26,-1181.4499999999998
744,0.744001,843,2458011,4598.83,1191.26,-3067.45
745,0.745001,844,2459011,8897.83,651.26,-3388.45
746,0.746001,845,2460011,8131.83,-455.74,-2614.45
747,0.747001,846,2461011,2865.83,-375.74,-2422.45
748,0.748001,847,2462011,-4803.17,268.26,-3583.45
749,0.749000,848,2463010,-528.17,90.26,-4256.45
750,0.750001,849,2464011,9878.83,255.26,-5339.45
751,0.751001,850,2465011,18043.83,-35.74,-3554.45
752,0.752001,851,2466011,19654.83,-234.74,-419.4499999999998
753,0.753000,852,2467010,8074.83,616.26,-887.4499999999998
754,0.754001,853,2468011,-4986.17,930.26,723.5500000000002
755,0.755001,854,2469011,-9911.17,493.26,4025.55
756,0.756001,855,2470011,-5551.17,-82.74,3787.55
757,0.757001,856,2471011,1152.83,-821.74,3382.55
758,0.758001,857,2472011,4897.83,-901.74,3783.55
759,0.759000,858,2473010,1051.83,-205.74,1487.5500000000002
760,0.760001,859,2474011,-5366.17,-109.74,280.5500000000002
761,0.761001,860,2475011,-16290.17,-474.74,2632.55
762,0.762000,861,2476010,-23322.17,-1034.74,3169.55
763,0.763001,862,2477011,-19784.17,-225.74,1607.5500000000002
764,0.764001,863,2478011,-13345.17,32.26,2241.55
765,0.765001,864,2479011,-1448.17,-120.74,3291.55
766,0.766001,865,2480011,5654.83,37.26,1363.5500000000002
767,0.767001,866,2481011,6781.83,-150.74,-468.4499999999998
768,0.768001,867,2482011,4063.83,712.26,-1565.4499999999998
769,0.769000,868,2483010,4875.83,1115.26,-2833.45
770,0.770000,869,2484010,8675.83,585.26,-3508.45
771,0.771001,870,2485011,8315.83,-237.74,-3117.45
772,0.772001,871,2486011,3331.83,-471.74,-2554.45
773,0.773001,872,2487011,-4760.17,36.26,-3475.45
774,0.774001,873,2488011,-1509.17,208.26,-4111.45
775,0.775001,874,2489011,8645.83,358.26,-5386.45
776,0.776001,875,2490011,18214.83,-207.74,-3891.45
777,0.777001,876,2491011,20176.83,-177.74,-331.4499999999998
778,0.778001,877,2492011,9912.83,591.26,-497.4499999999998
779,0.779001,878,2493011,-4374.17,1020.26,-6.449999999999818
780,0.780001,879,2494011,-10525.17,755.26,3627.55
781,0.781000,880,2495010,-6232.17,-182.74,4271.55
782,0.782001,881,2496011,826.83,-532.74,3297.55
783,0.783001,882,2497011,5495.83,-1029.74,4007.55
784,0.784001,883,2498011,1683.83,-356.74,1916.5500000000002
785,0.785001,884,2499011,-3963.17,200.26,214.55000000000018
786,0.786001,885,2500011,-15676.17,-721.74,2466.55
787,0.787001,886,2501011,-24005.17,-1159.74,3121.55
788,0.788000,887,2502010,-20361.17,-177.74,1405.5500000000002
789,0.789001,888,2503011,-14464.17,-229.74,1891.5500000000002
790,0.790000,889,2504010,-2439.17,-72.74,3339.55
791,0.791001,890,2505011,4901.83,255.26,1312.5500000000002
792,0.792001,891,2506011,7284.83,-282.74,-279.4499999999998
793,0.793000,892,2507010,4688.83,551.26,-816.4499999999998
794,0.794001,893,2508011,4242.83,1118.26,-2742.45
795,0.795001,894,2509011,8719.83,846.26,-3455.45
796,0.796001,895,2510011,7959.83,-136.74,-2981.45
797,0.797001,896,2511011,4535.83,-536.74,-2455.45
798,0.798001,897,2512011,-3663.17,48.26,-3313.45
799,0.799001,898,2513011,-2220.17,179.26,-4120.45
800,0.800001,899,2514011,7713.83,210.26,-5352.45
801,0.801001,900,2515011,16846.83,-42.74,-4279.45
802,0.802000,901,2516010,20630.83,-218.74,-587.4499999999998
803,0.803001,902,2517011,11251.83,375.26,-707.4499999999998
804,0.804001,903,2518011,-2892.17,1051.26,-207.44999999999982
805,0.805001,904,2519011,-10211.17,782.26,3419.55
806,0.806000,905,2520010,-6961.17,-47.74,4249.55
807,0.807001,906,2521011,76.83,-677.74,3466.55
808,0.808001,907,2522011,5144.83,-1108.74,3994.55
809,0.809001,908,2523011,2123.83,-304.74,2206.55
810,0.810001,909,2524011,-4407.17,205.26,132.55000000000018
811,0.811001,910,2525011,-13889.17,-442.74,2170.55
812,0.812000,911,2526010,-23476.17,-1083.74,3278.55
813,0.813001,912,2527011,-20457.17,-461.74,1823.5500000000002
814,0.814001,913,2528011,-14108.17,-167.74,1989.5500000000002
815,0.815000,914,2529010,-4295.17,-14.74,3330.55
816,0.816000,915,2530010,4476.83,251.26,1722.5500000000002
817,0.817001,916,2531011,5009.83,462.26,-1204.4499999999998
818,0.818001,917,2532011,4863.83,1014.26,-2634.45
819,0.819001,918,2533011,7782.83,851.26,-3615.45
820,0.820001,919,2534011,8186.83,62.26,-3432.45
821,0.821001,920,2535011,4949.83,-747.74,-2454.45
822,0.822000,921,2536010,-2604.17,-197.74,-3105.45
823,0.823000,922,2537010,-2957.17,378.26,-3969.45
824,0.824000,923,2538010,5914.83,263.26,-5092.45
825,0.825001,924,2539011,16166.83,42.26,-4603.45
826,0.826001,925,2540011,20532.83,-196.74,-1013.4499999999998
827,0.827001,926,2541011,13022.83,239.26,-217.44999999999982
828,0.828001,927,2542011,-1652.17,1080.26,-370.4499999999998
829,0.829001,928,2543011,-10215.17,842.26,2923.55
830,0.830001,929,2544011,-7613.17,48.26,4377.55
831,0.831001,930,2545011,-635.17,-675.74,3508.55
832,0.832001,931,2546011,5041.83,-921.74,3903.55
833,0.833001,932,2547011,3285.83,-334.74,2508.55
834,0.834001,933,2548011,-3682.17,84.26,240.55000000000018
835,0.835001,934,2549011,-12767.17,-327.74,1815.5500000000002
836,0.836001,935,2550011,-23403.17,-1135.74,3288.55
837,0.837000,936,2551010,-21496.17,-628.74,1791.5500000000002
838,0.838000,937,2552010,-15257.17,-61.74,1672.5500000000002
839,0.839001,938,2553011,-5019.17,20.259999999999998,3394.55
840,0.840001,939,2554011,4679.83,197.26,1988.5500000000002
841,0.841000,940,2555010,6836.83,-149.74,-226.44999999999982
842,0.842001,941,2556011,5308.83,304.26,-835.4499999999998
843,0.843001,942,2557011,4117.83,1040.26,-2318.45
844,0.844001,943,2558011,7458.83,1020.26,-3455.45
845,0.845001,944,2559011,7931.83,-10.74,-3338.45
846,0.846001,945,2560011,5503.83,-657.74,-2447.45
847,0.847001,946,2561011,-1432.17,-104.74,-2958.45
848,0.848001,947,2562011,-3342.17,224.26,-4019.45
849,0.849001,948,2563011,4328.83,321.26,-5309.45
850,0.850000,949,2564010,15360.83,-45.74,-4845.45
851,0.851000,950,2565010,20627.83,-322.74,-1168.4499999999998
852,0.852000,951,2566010,13958.83,397.26,-322.4499999999998
853,0.853001,952,2567011,128.82999999999998,953.26,-622.4499999999998
854,0.854001,953,2568011,-9891.17,965.26,2588.55
855,0.855000,954,2569010,-7720.17,38.26,4534.55
856,0.856000,955,2570010,-1258.17,-549.74,3668.55
857,0.857001,956,2571011,4473.83,-856.74,3984.55
858,0.858001,957,2572011,3652.83,-615.74,2709.55
859,0.859000,958,2573010,-4357.17,332.26,109.55000000000018
860,0.860001,959,2574011,-11211.17,-355.74,1796.5500000000002
861,0.861000,960,2575010,-21088.17,-1259.74,3603.55
862,0.862001,961,2576011,-21866.17,-486.74,2041.5500000000002
863,0.863001,962,2577011,-16469.17,-195.74,1445.5500000000002
864,0.864001,963,2578011,-6485.17,-125.74,3216.55
865,0.865001,964,2579011,3147.83,438.26,2174.55
866,0.866001,965,2580011,6311.83,-191.74,-157.44999999999982
867,0.867001,966,2581011,5752.83,124.26,-800.4499999999998
868,0.868000,967,2582010,4357.83,1000.26,-2173.45
869,0.869001,968,2583011,7945.83,1010.26,-3275.45
870,0.870001,969,2584011,7625.83,265.26,-3573.45
871,0.871001,970,2585011,6217.83,-618.74,-2582.45
872,0.872001,971,2586011,-461.17,-303.74,-2676.45
873,0.873001,972,2587011,-4139.17,316.26,-3970.45
874,0.874001,973,2588011,3409.83,369.26,-5175.45
875,0.875001,974,2589011,13754.83,75.26,-5038.45
876,0.876000,975,2590010,21438.83,-480.74,-1359.4499999999998
877,0.877001,976,2591011,15581.83,171.26,-316.4499999999998
878,0.878001,977,2592011,759.83,1046.26,-892.4499999999998
879,0.879001,978,2593011,-9562.17,788.26,2391.55
880,0.880001,979,2594011,-8896.17,298.26,4475.55
881,0.881001,980,2595011,-1354.17,-502.74,3704.55
882,0.882001,981,2596011,4486.83,-1091.74,3749.55
883,0.883001,982,2597011,4029.83,-378.74,2986.55
884,0.884001,983,2598011,-3245.17,53.26,489.5500000000002
885,0.885001,984,2599011,-10697.17,-204.74,1316.5500000000002
886,0.886001,985,2600011,-21443.17,-1015.74,3417.55
887,0.887001,986,2601011,-22063.17,-834.74,2250.55
888,0.888001,987,2602011,-17063.17,-10.74,1527.5500000000002
889,0.889001,988,2603011,-7488.17,-145.74,3170.55
890,0.890001,989,2604011,3957.83,289.26,2379.55
891,0.891000,990,2605010,6205.83,-104.74,-19.449999999999818
892,0.892000,991,2606010,5411.83,-12.74,-771.4499999999998
893,0.893001,992,2607011,4025.83,1123.26,-2085.45
894,0.894001,993,2608011,7300.83,1005.26,-3346.45
895,0.895001,994,2609011,8118.83,264.26,-3585.45
896,0.896001,995,2610011,6495.83,-590.74,-2505.45
897,0.897001,996,2611011,544.83,-537.74,-2708.45
898,0.898000,997,2612010,-4172.17,461.26,-4026.45
899,0.899000,998,2613010,1895.83,473.26,-4787.45
900,0.900001,999,2614011,13181.83,-137.74,-5114.45
901,0.901000,1000,2615010,21025.83,-319.74,-1967.4499999999998
902,0.902001,1001,2616011,16689.83,182.26,-194.44999999999982
903,0.903001,1002,2617011,2486.83,875.26,-802.4499999999998
904,0.904001,1003,2618011,-9167.17,1066.26,1991.5500000000002
905,0.905001,1004,2619011,-9125.17,149.26,4499.55
906,0.906001,1005,2620011,-2338.17,-574.74,3666.55
907,0.907000,1006,2621010,3853.83,-777.74,3773.55
908,0.908001,1007,2622011,4127.83,-678.74,3263.55
909,0.909001,1008,2623011,-2925.17,27.259999999999998,350.5500000000002
910,0.910001,1009,2624011,-10450.17,68.26,987.5500000000002
911,0.911001,1010,2625011,-19242.17,-1402.74,3542.55
912,0.912001,1011,2626011,-21080.17,-753.74,2681.55
913,0.913001,1012,2627011,-19050.17,238.26,1335.5500000000002
914,0.914001,1013,2628011,-8650.17,-299.74,2907.55
915,0.915001,1014,2629011,2975.83,351.26,2634.55
916,0.916001,1015,2630011,6244.83,-52.74,332.5500000000002
917,0.917001,1016,2631011,5991.83,-77.74,-685.4499999999998
918,0.918001,1017,2632011,3911.83,988.26,-2159.45
919,0.919001,1018,2633011,6765.83,1139.26,-3342.45
920,0.920000,1019,2634010,8071.83,200.26,-3582.45
921,0.921000,1020,2635010,6949.83,-590.74,-2723.45
922,0.922000,1021,2636010,980.83,-306.74,-2668.45
923,0.923001,1022,2637011,-4401.17,281.26,-3901.45
924,0.924001,1023,2638011,1504.83,385.26,-4766.45
925,0.925001,1024,2639011,12092.83,148.26,-5159.45
926,0.926001,1025,2640011,20970.83,-349.74,-2134.45
927,0.927001,1026,2641011,17520.83,102.26,-182.44999999999982
928,0.928000,1027,2642010,3396.83,850.26,-842.4499999999998
929,0.929001,1028,2643011,-8001.17,848.26,1946.5500000000002
930,0.930000,1029,2644010,-10121.17,548.26,4386.55
931,0.931001,1030,2645011,-2331.17,-539.74,3917.55
932,0.932001,1031,2646011,3294.83,-1001.74,3554.55
933,0.933001,1032,2647011,3979.83,-310.74,3039.55
934,0.934001,1033,2648011,-1281.17,-261.74,1017.5500000000002
935,0.935001,1034,2649011,-9006.17,-221.74,992.5500000000002
936,0.936001,1035,2650011,-18776.17,-904.74,3282.55
937,0.937001,1036,2651011,-22366.17,-1029.74,2556.55
938,0.938000,1037,2652010,-20076.17,248.26,1052.5500000000002
939,0.939001,1038,2653011,-9707.17,-246.74,2916.55
940,0.940001,1039,2654011,2827.83,146.26,2764.55
941,0.941000,1040,2655010,6385.83,218.26,177.55000000000018
942,0.942001,1041,2656011,6496.83,-314.74,-411.4499999999998
943,0.943000,1042,2657010,3641.83,1019.26,-1738.4499999999998
944,0.944001,1043,2658011,6033.83,1192.26,-3272.45
945,0.945001,1044,2659011,8596.83,344.26,-3662.45
946,0.946001,1045,2660011,7504.83,-413.74,-2726.45
947,0.947001,1046,2661011,1681.83,-592.74,-2418.45
948,0.948001,1047,2662011,-4987.17,473.26,-4212.45
949,0.949000,1048,2663010,800.83,425.26,-4716.45
950,0.950001,1049,2664011,12075.83,-238.74,-4851.45
951,0.951000,1050,2665010,20043.83,-258.74,-2683.45
952,0.952001,1051,2666011,18499.83,141.26,-282.4499999999998
953,0.953001,1052,2667011,4786.83,814.26,-721.4499999999998
954,0.954001,1053,2668011,-8240.17,945.26,1361.5500000000002
955,0.955001,1054,2669011,-10082.17,394.26,4210.55
956,0.956001,1055,2670011,-3027.17,-400.74,3990.55
957,0.957001,1056,2671011,3260.83,-877.74,3575.55
958,0.958001,1057,2672011,3966.83,-665.74,3469.55
959,0.959001,1058,2673011,-1456.17,-111.74,1095.5500000000002
960,0.960000,1059,2674010,-8443.17,-81.74,542.5500000000002
961,0.961001,1060,2675011,-18122.17,-1048.74,3265.55
962,0.962001,1061,2676011,-21597.17,-952.74,3156.55
963,0.963001,1062,2677011,-19560.17,152.26,1111.5500000000002
964,0.964000,1063,2678010,-11072.17,-259.74,2520.55
965,0.965001,1064,2679011,1726.83,23.259999999999998,3034.55
966,0.966001,1065,2680011,6091.83,141.26,538.5500000000002
967,0.967001,1066,2681011,6053.83,-90.74,-593.4499999999998
968,0.968001,1067,2682011,3766.83,831.26,-1853.4499999999998
969,0.969001,1068,2683011,6287.83,1050.26,-3145.45
970,0.970001,1069,2684011,9055.83,570.26,-3540.45
971,0.971001,1070,2685011,7810.83,-440.74,-2815.45
972,0.972001,1071,2686011,2095.83,-460.74,-2665.45
973,0.973001,1072,2687011,-5073.17,430.26,-3897.45
974,0.974000,1073,2688010,76.83,-33.74,-4058.45
975,0.975001,1074,2689011,10655.83,135.26,-5081.45
976,0.976001,1075,2690011,19035.83,146.26,-3304.45
977,0.977001,1076,2691011,19050.83,-345.74,-3.449999999999818
978,0.978001,1077,2692011,6132.83,680.26,-788.4499999999998
979,0.979001,1078,2693011,-6710.17,1139.26,819.5500000000002
980,0.980001,1079,2694011,-10223.17,332.26,4227.55
981,0.981001,1080,2695011,-4694.17,-102.74,3919.55
982,0.982001,1081,2696011,2202.83,-769.74,3633.55
983,0.983001,1082,2697011,4746.83,-898.74,3654.55
984,0.984001,1083,2698011,30.83,-70.74,1250.5500000000002
985,0.985001,1084,2699011,-6297.17,-179.74,812.5500000000002
986,0.986001,1085,2700011,-16786.17,-702.74,2886.55
987,0.987001,1086,2701011,-22323.17,-928.74,2740.55
988,0.988001,1087,2702011,-20282.17,-193.74,1258.5500000000002
989,0.989001,1088,2703011,-12598.17,76.26,2317.55
990,0.990001,1089,2704011,588.83,-75.74,3204.55
991,0.991001,1090,2705011,6343.83,-142.74,684.5500000000002
992,0.992001,1091,2706011,6745.83,-23.740000000000002,-740.4499999999998
993,0.993001,1092,2707011,3621.83,608.26,-1462.4499999999998
994,0.994000,1093,2708010,5116.83,1156.26,-2925.45
995,0.995001,1094,2709011,8045.83,754.26,-3600.45
996,0.996001,1095,2710011,7873.83,-406.74,-2902.45
997,0.997001,1096,2711011,2782.83,-452.74,-2328.45
998,0.998001,1097,2712011,-4409.17,114.26,-3405.45
999,0.999000,1098,2713010,-327.17,198.26,-4162.45
1000,1.000000,1099,2714010,9531.83,291.26,-5140.45
1001,1.001001,1100,2715011,18032.83,23.259999999999998,-3500.45
1002,1.002001,1101,2716011,19222.83,-80.74,-502.4499999999998
1003,1.003001,1102,2717011,8718.83,413.26,-617.4499999999998
1004,1.004000,1103,2718010,-5245.17,1037.26,606.5500000000002
1005,1.005001,1104,2719011,-9779.17,666.26,3939.55
1006,1.006001,1105,2720011,-5623.17,-338.74,4039.55
1007,1.007000,1106,2721010,556.83,-581.74,3131.55
1008,1.008001,1107,2722011,5043.83,-1020.74,3757.55
1009,1.009001,1108,2723011,1221.83,-191.74,1500.5500000000002
1010,1.010001,1109,2724011,-4591.17,122.26,352.5500000000002
1011,1.011001,1110,2725011,-15840.17,-910.74,2791.55
1012,1.012001,1111,2726011,-23295.17,-927.74,2908.55
1013,1.013001,1112,2727011,-20291.17,-222.74,1608.5500000000002
1014,1.014000,1113,2728010,-13711.17,-75.74,2330.55
1015,1.015001,1114,2729011,-1488.17,169.26,3228.55
1016,1.016001,1115,2730011,5824.83,-145.74,1246.5500000000002
1017,1.017001,1116,2731011,6969.83,-320.74,-517.4499999999998
1018,1.018001,1117,2732011,4175.83,900.26,-1275.4499999999998
1019,1.019001,1118,2733011,4360.83,1145.26,-2754.45
1020,1.020001,1119,2734011,7974.83,658.26,-3707.45
1021,1.021001,1120,2735011,8157.83,-352.74,-3258.45
1022,1.022001,1121,2736011,3937.83,-568.74,-2360.45
1023,1.023001,1122,2737011,-4100.17,217.26,-3006.45
1024,1.024001,1123,2738011,-1438.17,152.26,-4176.45
1025,1.025001,1124,2739011,8161.83,388.26,-5650.45
1026,1.026000,1125,2740010,17368.83,-19.740000000000002,-3761.45
1027,1.027001,1126,2741011,20597.83,-327.74,-164.44999999999982
1028,1.028001,1127,2742011,10526.83,508.26,-627.4499999999998
1029,1.029000,1128,2743010,-4053.17,1170.26,-41.44999999999982
1030,1.030000,1129,2744010,-10044.17,646.26,3595.55
1031,1.031001,1130,2745011,-6509.17,-304.74,4262.55
1032,1.032001,1131,2746011,-88.17,-439.74,3314.55
1033,1.033001,1132,2747011,5453.83,-1058.74,3857.55
1034,1.034001,1133,2748011,1971.83,-263.74,1795.5500000000002
1035,1.035001,1134,2749011,-3909.17,61.26,340.5500000000002
1036,1.036001,1135,2750011,-15392.17,-735.74,2476.55
1037,1.037001,1136,2751011,-24072.17,-994.74,2899.55
1038,1.038000,1137,2752010,-20865.17,-328.74,1494.5500000000002
1039,1.039001,1138,2753011,-14177.17,77.26,2153.55
1040,1.040001,1139,2754011,-2399.17,-87.74,3368.55
1041,1.041001,1140,2755011,5179.83,53.26,1244.5500000000002
1042,1.042001,1141,2756011,7260.83,-240.74,-48.44999999999982
1043,1.043000,1142,2757010,4487.83,501.26,-694.4499999999998
1044,1.044000,1143,2758010,4432.83,1322.26,-2894.45
1045,1.045001,1144,2759011,7960.83,720.26,-3725.45
1046,1.046001,1145,2760011,7764.83,-142.74,-3268.45
1047,1.047001,1146,2761011,4935.83,-525.74,-2200.45
1048,1.048001,1147,2762011,-3003.17,-239.74,-3255.45
1049,1.049001,1148,2763011,-2222.17,501.26,-4534.45
1050,1.050001,1149,2764011,7172.83,175.26,-5033.45
1051,1.051000,1150,2765010,16488.83,-155.74,-4268.45
1052,1.052001,1151,2766011,20230.83,-1.7400000000000002,-794.4499999999998
1053,1.053000,1152,2767010,11900.83,167.26,-160.44999999999982
1054,1.054001,1153,2768011,-2393.17,1071.26,-284.4499999999998
1055,1.055001,1154,2769011,-10264.17,917.26,3199.55
1056,1.056001,1155,2770011,-6950.17,-408.74,4478.55
1057,1.057000,1156,2771010,-502.17,-348.74,3216.55
1058,1.058001,1157,2772011,4431.83,-874.74,3675.55
1059,1.059001,1158,2773011,2550.83,-730.74,2338.55
1060,1.060001,1159,2774011,-3946.17,465.26,-24.449999999999818
1061,1.061000,1160,2775010,-14226.17,-459.74,2164.55
1062,1.062001,1161,2776011,-22890.17,-1269.74,3811.55
1063,1.063001,1162,2777011,-20579.17,-301.74,1808.5500000000002
1064,1.064000,1163,2778010,-14479.17,-133.74,1847.5500000000002
1065,1.065001,1164,2779011,-3980.17,-24.740000000000002,3589.55
1066,1.066000,1165,2780010,4519.83,258.26,1781.5500000000002
1067,1.067001,1166,2781011,7371.83,-299.74,-367.4499999999998
1068,1.068000,1167,2782010,4593.83,481.26,-1019.4499999999998
1069,1.069001,1168,2783011,4030.83,1069.26,-2667.45
1070,1.070001,1169,2784011,8309.83,769.26,-3593.45
1071,1.071001,1170,2785011,7544.83,-68.74,-3542.45
1072,1.072001,1171,2786011,5329.83,-665.74,-2588.45
1073,1.073000,1172,2787010,-2116.17,-70.74,-3108.45
1074,1.074001,1173,2788011,-3182.17,232.26,-4103.45
1075,1.075001,1174,2789011,5519.83,381.26,-5101.45
1076,1.076001,1175,2790011,16022.83,-32.74,-4598.45
1077,1.077000,1176,2791010,20665.83,-341.74,-753.4499999999998
1078,1.078000,1177,2792010,13111.83,300.26,11.550000000000182
1079,1.079001,1178,2793011,-987.17,1099.26,-521.4499999999998
1080,1.080001,1179,2794011,-10247.17,948.26,2733.55
1081,1.081000,1180,2795010,-7819.17,-159.74,4614.55
1082,1.082001,1181,2796011,-1124.17,-362.74,3411.55
1083,1.083000,1182,2797010,4811.83,-909.74,3550.55
1084,1.084000,1183,2798010,3351.83,-830.74,2549.55
1085,1.085001,1184,2799011,-3596.17,298.26,105.55000000000018
1086,1.086000,1185,2800010,-12346.17,-374.74,1740.5500000000002
1087,1.087000,1186,2801010,-22892.17,-1281.74,3486.55
1088,1.088001,1187,2802011,-21596.17,-464.74,1755.5500000000002
1089,1.089001,1188,2803011,-15308.17,-60.74,1657.5500000000002
1090,1.090001,1189,2804011,-5313.17,-46.74,3492.55
1091,1.091000,1190,2805010,4687.83,269.26,1993.5500000000002
1092,1.092000,1191,2806010,6922.83,-41.74,-59.44999999999982
1093,1.093000,1192,2807010,5186.83,262.26,-625.4499999999998
1094,1.094001,1193,2808011,4212.83,957.26,-2328.45
1095,1.095000,1194,2809010,7378.83,1055.26,-3542.45
1096,1.096000,1195,2810010,7640.83,42.26,-3328.45
1097,1.097001,1196,2811011,5629.83,-601.74,-2424.45
1098,1.098000,1197,2812010,-603.17,-268.74,-3215.45
1099,1.099001,1198,2813011,-3867.17,279.26,-4221.45
1100,1.100001,1199,2814011,3746.83,377.26,-4893.45
1101,1.101001,1200,2815011,14899.83,-179.74,-4867.45
1102,1.102001,1201,2816011,20404.83,-325.74,-1550.4499999999998
1103,1.103000,1202,2817010,14106.83,288.26,-198.44999999999982
1104,1.104001,1203,2818011,1169.83,835.26,-425.4499999999998
1105,1.105000,1204,2819010,-9665.17,1144.26,2367.55
1106,1.106001,1205,2820011,-8766.17,339.26,4506.55
1107,1.107000,1206,2821010,-732.17,-1064.74,3826.55
1108,1.108001,1207,2822011,3890.83,-369.74,3566.55
1109,1.109000,1208,2823010,3225.83,-380.74,2962.55
1110,1.110001,1209,2824011,-3032.17,-292.74,478.5500000000002
1111,1.111001,1210,2825011,-10264.17,186.26,1462.5500000000002
1112,1.112001,1211,2826011,-20851.17,-1410.74,3729.55
1113,1.113001,1212,2827011,-21368.17,-818.74,2435.55
1114,1.114000,1213,2828010,-16921.17,148.26,1424.5500000000002
1115,1.115001,1214,2829011,-7571.17,-297.74,2811.55
1116,1.116001,1215,2830011,3212.83,253.26,2051.55
1117,1.117001,1216,2831011,6219.83,-185.74,-247.44999999999982
1118,1.118001,1217,2832011,5816.83,101.26,-1057.4499999999998
1119,1.119001,1218,2833011,3843.83,1104.26,-2101.45
1120,1.120001,1219,2834011,7443.83,684.26,-3394.45
1121,1.121000,1220,2835010,7965.83,429.26,-3763.45
1122,1.122001,1221,2836011,6396.83,-513.74,-2056.45
1123,1.123001,1222,2837011,567.83,-602.74,-2411.45
1124,1.124001,1223,2838011,-4328.17,948.26,-4360.45
1125,1.125001,1224,2839011,2898.83,310.26,-4529.45
1126,1.126001,1225,2840011,13495.83,-379.74,-4607.45
1127,1.127001,1226,2841011,20818.83,52.26,-1910.4499999999998
1128,1.128000,1227,2842010,16299.83,53.26,-0.4499999999998181
1129,1.129000,1228,2843010,1555.83,707.26,-683.4499999999998
1130,1.130001,1229,2844011,-9629.17,1145.26,1763.5500000000002
1131,1.131001,1230,2845011,-8880.17,-26.740000000000002,4402.55
1132,1.132001,1231,2846011,-2149.17,-406.74,3637.55
1133,1.133001,1232,2847011,3822.83,-792.74,3498.55
1134,1.134001,1233,2848011,4494.83,-850.74,3057.55
1135,1.135001,1234,2849011,-3176.17,281.26,431.5500000000002
1136,1.136001,1235,2850011,-9715.17,-341.74,1387.5500000000002
1137,1.137001,1236,2851011,-19525.17,-1221.74,3507.55
1138,1.138001,1237,2852011,-22248.17,-406.74,2134.55
1139,1.139001,1238,2853011,-17911.17,-115.74,1589.5500000000002
1140,1.140001,1239,2854011,-8058.17,-106.74,3274.55
1141,1.141001,1240,2855011,3447.83,309.26,2482.55
1142,1.142001,1241,2856011,6330.83,-297.74,147.55000000000018
1143,1.143001,1242,2857011,5262.83,246.26,-814.4499999999998
1144,1.144001,1243,2858011,3755.83,909.26,-2149.45
1145,1.145001,1244,2859011,6913.83,847.26,-3454.45
1146,1.146001,1245,2860011,7794.83,575.26,-3626.45
1147,1.147000,1246,2861010,6962.83,-915.74,-2411.45
1148,1.148001,1247,2862011,812.83,-219.74,-2849.45
1149,1.149000,1248,2863010,-4549.17,728.26,-4058.45
1150,1.150001,1249,2864011,1901.83,-65.74,-4379.45
1151,1.151001,1250,2865011,12030.83,289.26,-4989.45
1152,1.152000,1251,2866010,20834.83,-147.74,-2143.45
1153,1.153001,1252,2867011,17534.83,-157.74,-118.44999999999982
1154,1.154001,1253,2868011,3041.83,1178.26,-713.4499999999998
1155,1.155001,1254,2869011,-7696.17,813.26,1894.5500000000002
1156,1.156001,1255,2870011,-9420.17,99.26,4331.55
1157,1.157001,1256,2871011,-3871.17,-83.74,3601.55
1158,1.158001,1257,2872011,3295.83,-1091.74,3654.55
1159,1.159001,1258,2873011,4009.83,-597.74,3106.55
1160,1.160001,1259,2874011,-2161.17,113.26,465.5500000000002
1161,1.161001,1260,2875011,-8041.17,-425.74,963.5500000000002
1162,1.162000,1261,2876010,-17464.17,-1026.74,3361.55
1163,1.163001,1262,2877011,-21574.17,-776.74,2697.55
1164,1.164001,1263,2878011,-20108.17,54.26,1123.5500000000002
1165,1.165001,1264,2879011,-10486.17,19.259999999999998,2569.55
1166,1.166001,1265,2880011,2460.83,-4.74,2923.55
1167,1.167000,1266,2881010,6433.83,-65.74,453.5500000000002
1168,1.168001,1267,2882011,6637.83,98.26,-640.4499999999998
1169,1.169001,1268,2883011,3853.83,659.26,-1738.4499999999998
1170,1.170001,1269,2884011,5712.83,1187.26,-3167.45
1171,1.171000,1270,2885010,8151.83,506.26,-3532.45
1172,1.172001,1271,2886011,7180.83,-558.74,-2666.45
1173,1.173000,1272,2887010,1611.83,-291.74,-2597.45
1174,1.174001,1273,2888011,-4848.17,260.26,-3803.45
1175,1.175001,1274,2889011,762.83,294.26,-4337.45
1176,1.176001,1275,2890011,11861.83,154.26,-5049.45
1177,1.177001,1276,2891011,19675.83,-528.74,-2839.45
1178,1.178001,1277,2892011,17837.83,62.26,-201.44999999999982
1179,1.179001,1278,2893011,5869.83,903.26,-547.4499999999998
1180,1.180000,1279,2894010,-7555.17,724.26,1093.5500000000002
1181,1.181001,1280,2895011,-10613.17,674.26,4041.55
1182,1.182001,1281,2896011,-3409.17,-382.74,3981.55
1183,1.183001,1282,2897011,3055.83,-718.74,3339.55
1184,1.184001,1283,2898011,4435.83,-574.74,3415.55
1185,1.185001,1284,2899011,-678.17,-413.74,1250.5500000000002
1186,1.186001,1285,2900011,-7040.17,89.26,747.5500000000002
1187,1.187001,1286,2901011,-17624.17,-1100.74,3249.55
1188,1.188000,1287,2902010,-21858.17,-1048.74,2979.55
1189,1.189001,1288,2903011,-20433.17,443.26,1046.5500000000002
1190,1.190001,1289,2904011,-11767.17,-317.74,2353.55
1191,1.191001,1290,2905011,1654.83,-136.74,2908.55
1192,1.192001,1291,2906011,5649.83,164.26,508.5500000000002
1193,1.193001,1292,2907011,6506.83,-324.74,-271.4499999999998
1194,1.194000,1293,2908010,3026.83,1073.26,-1601.4499999999998
1195,1.195001,1294,2909011,5768.83,1125.26,-3194.45
1196,1.196000,1295,2910010,8710.83,332.26,-3449.45
1197,1.197001,1296,2911011,7904.83,-263.74,-2683.45
1198,1.198001,1297,2912011,3144.83,-541.74,-2443.45
1199,1.199001,1298,2913011,-5395.17,563.26,-3861.45
1200,1.200000,1299,2914010,250.82999999999998,-42.74,-4058.45
1201,1.201001,1300,2915011,10228.83,-61.74,-5398.45
1202,1.202001,1301,2916011,18350.83,368.26,-3521.45
1203,1.203001,1302,2917011,19555.83,-494.74,290.5500000000002
1204,1.204001,1303,2918011,7331.83,518.26,-798.4499999999998
1205,1.205001,1304,2919011,-6225.17,1384.26,419.5500000000002
1206,1.206000,1305,2920010,-9754.17,132.26,4227.55
1207,1.207001,1306,2921011,-5088.17,-120.74,4169.55
1208,1.208001,1307,2922011,1307.83,-545.74,3210.55
1209,1.209001,1308,2923011,5242.83,-1133.74,3595.55
1210,1.210001,1309,2924011,-350.17,8.26,1458.5500000000002
1211,1.211001,1310,2925011,-5772.17,-185.74,671.5500000000002
1212,1.212001,1311,2926011,-16293.17,-754.74,2837.55
1213,1.213001,1312,2927011,-22972.17,-758.74,2869.55
1214,1.214001,1313,2928011,-19702.17,-278.74,1630.5500000000002
1215,1.215000,1314,2929010,-12637.17,-40.74,2446.55
1216,1.216001,1315,2930011,-586.17,21.259999999999998,3391.55
1217,1.217001,1316,2931011,5582.83,-115.74,874.5500000000002
1218,1.218000,1317,2932010,7017.83,24.259999999999998,-778.4499999999998
1219,1.219001,1318,2933011,3775.83,678.26,-1437.4499999999998
1220,1.220001,1319,2934011,5375.83,874.26,-3038.45
1221,1.221001,1320,2935011,8145.83,938.26,-3878.45
1222,1.222001,1321,2936011,8128.83,-404.74,-2979.45
1223,1.223001,1322,2937011,3522.83,-711.74,-2326.45
1224,1.224001,1323,2938011,-5073.17,465.26,-3626.45
1225,1.225001,1324,2939011,-260.17,65.26,-3913.45
1226,1.226001,1325,2940011,9146.83,88.26,-4918.45
1227,1.227000,1326,2941010,17322.83,323.26,-3783.45
1228,1.228001,1327,2942011,20175.83,-453.74,-267.4499999999998
1229,1.229001,1328,2943011,8837.83,428.26,-506.4499999999998
1230,1.230001,1329,2944011,-4869.17,1456.26,334.5500000000002
1231,1.231001,1330,2945011,-9612.17,188.26,3786.55
1232,1.232001,1331,2946011,-6542.17,-51.74,3787.55
1233,1.233001,1332,2947011,500.83,-286.74,3247.55
1234,1.234000,1333,2948010,5594.83,-1375.74,4019.55
1235,1.235000,1334,2949010,1358.83,-187.74,1773.5500000000002
1236,1.236001,1335,2950011,-4453.17,64.26,328.5500000000002
1237,1.237001,1336,2951011,-15828.17,-735.74,2441.55
1238,1.238001,1337,2952011,-23666.17,-879.74,3262.55
1239,1.239001,1338,2953011,-19898.17,-274.74,1469.5500000000002
1240,1.240001,1339,2954011,-13622.17,-28.740000000000002,1949.5500000000002
1241,1.241001,1340,2955011,-2026.17,-88.74,3446.55
1242,1.242001,1341,2956011,5989.83,-248.74,1334.5500000000002
1243,1.243001,1342,2957011,6623.83,110.26,-517.4499999999998
1244,1.244001,1343,2958011,4040.83,597.26,-1233.4499999999998
1245,1.245001,1344,2959011,4557.83,901.26,-2842.45
1246,1.246000,1345,2960010,8120.83,1017.26,-3707.45
1247,1.247001,1346,2961011,8221.83,-339.74,-2962.45
1248,1.248001,1347,2962011,4144.83,-621.74,-2318.45
1249,1.249001,1348,2963011,-3424.17,170.26,-3426.45
1250,1.250001,1349,2964011,-2071.17,189.26,-3953.45
1251,1.251001,1350,2965011,7355.83,193.26,-4880.45
1252,1.252001,1351,2966011,16820.83,178.26,-4365.45
1253,1.253001,1352,2967011,20320.83,-182.74,-656.4499999999998
1254,1.254001,1353,2968011,10932.83,317.26,-140.44999999999982
1255,1.255001,1354,2969011,-2498.17,948.26,-209.44999999999982
1256,1.256001,1355,2970011,-10315.17,772.26,3172.55
1257,1.257001,1356,2971011,-7185.17,-221.74,4547.55
1258,1.258001,1357,2972011,-295.17,-669.74,3250.55
1259,1.259001,1358,2973011,4761.83,-856.74,3424.55
1260,1.260001,1359,2974011,2370.83,-615.74,2104.55
1261,1.261001,1360,2975011,-4182.17,364.26,-21.449999999999818
1262,1.262000,1361,2976010,-13838.17,-210.74,2236.55
1263,1.263001,1362,2977011,-22876.17,-1412.74,3511.55
1264,1.264001,1363,2978011,-20106.17,-289.74,1585.5500000000002
1265,1.265001,1364,2979011,-14189.17,-157.74,2121.55
1266,1.266001,1365,2980011,-3803.17,-124.74,3657.55
1267,1.267001,1366,2981011,4495.83,477.26,1658.5500000000002
1268,1.268001,1367,2982011,6889.83,-359.74,-340.4499999999998
1269,1.269001,1368,2983011,4667.83,303.26,-1197.4499999999998
1270,1.270001,1369,2984011,4525.83,1132.26,-2573.45
1271,1.271001,1370,2985011,7519.83,975.26,-3650.45
1272,1.272001,1371,2986011,7734.83,-249.74,-3492.45
1273,1.273001,1372,2987011,4617.83,-654.74,-2542.45
1274,1.274001,1373,2988011,-2239.17,1.2599999999999998,-3035.45
1275,1.275001,1374,2989011,-2602.17,173.26,-3788.45
1276,1.276001,1375,2990011,4953.83,287.26,-5097.45
1277,1.277000,1376,2991010,15777.83,173.26,-4497.45
1278,1.278001,1377,2992011,20790.83,-258.74,-728.4499999999998
1279,1.279000,1378,2993010,13511.83,107.26,-39.44999999999982
1280,1.280000,1379,2994010,-1741.17,1248.26,-689.4499999999998
1281,1.281001,1380,2995011,-10013.17,1106.26,2865.55
1282,1.282001,1381,2996011,-6991.17,-296.74,4917.55
1283,1.283001,1382,2997011,-975.17,-580.74,3360.55
1284,1.284000,1383,2998010,4374.83,-607.74,3565.55
1285,1.285000,1384,2999010,3627.83,-868.74,2658.55
1286,1.286000,1385,3000010,-4004.17,237.26,145.55000000000018
1287,1.287001,1386,3001011,-12023.17,-271.74,1651.5500000000002
1288,1.288001,1387,3002011,-21965.17,-1366.74,3216.55
1289,1.289001,1388,3003011,-22009.17,-468.74,1647.5500000000002
1290,1.290001,1389,3004011,-15255.17,-346.74,1592.5500000000002
1291,1.291001,1390,3005011,-5687.17,117.26,3090.55
1292,1.292001,1391,3006011,4214.83,345.26,2039.5500000000002
1293,1.293001,1392,3007011,6840.83,-492.74,157.55000000000018
1294,1.294001,1393,3008011,5134.83,600.26,-1025.4499999999998
1295,1.295001,1394,3009011,4302.83,993.26,-2113.45
1296,1.296001,1395,3010011,7566.83,742.26,-3148.45
1297,1.297001,1396,3011011,7600.83,628.26,-3671.45
1298,1.298001,1397,3012011,5774.83,-784.74,-2305.45
1299,1.299001,1398,3013011,-615.17,-449.74,-2714.45
1300,1.300000,1399,3014010,-4273.17,731.26,-4320.45
1301,1.301001,1400,3015011,3877.83,129.26,-4905.45
1302,1.302001,1401,3016011,14569.83,-70.74,-4717.45
1303,1.303001,1402,3017011,20459.83,-179.74,-1561.4499999999998
1304,1.304001,1403,3018011,15439.83,150.26,-108.44999999999982
1305,1.305001,1404,3019011,616.83,1001.26,-604.4499999999998
1306,1.306001,1405,3020011,-9722.17,923.26,2357.55
1307,1.307001,1406,3021011,-8434.17,34.26,4480.55
1308,1.308001,1407,3022011,-1729.17,-594.74,3524.55
1309,1.309001,1408,3023011,4391.83,-937.74,3559.55
1310,1.310000,1409,3024010,3609.83,-565.74,2890.55
1311,1.311000,1410,3025010,-3760.17,261.26,376.5500000000002
1312,1.312001,1411,3026011,-10410.17,-299.74,1353.5500000000002
1313,1.313000,1412,3027010,-20572.17,-1180.74,3539.55
1314,1.314001,1413,3028011,-21101.17,-693.74,2480.55
1315,1.315001,1414,3029011,-16986.17,-22.740000000000002,1427.5500000000002
1316,1.316001,1415,3030011,-7333.17,-25.740000000000002,2946.55
1317,1.317000,1416,3031010,3674.83,314.26,2320.55
1318,1.318000,1417,3032010,6049.83,-263.74,-74.44999999999982
1319,1.319001,1418,3033011,5730.83,205.26,-963.4499999999998
1320,1.320001,1419,3034011,3934.83,1071.26,-2161.45
1321,1.321001,1420,3035011,7265.83,823.26,-3232.45
1322,1.322001,1421,3036011,7802.83,469.26,-3538.45
1323,1.323001,1422,3037011,6352.83,-705.74,-2592.45
1324,1.324000,1423,3038010,476.83,-474.74,-2788.45
1325,1.325001,1424,3039011,-4562.17,776.26,-4004.45
1326,1.326000,1425,3040010,2364.83,197.26,-4528.45
1327,1.327001,1426,3041011,12915.83,-167.74,-4826.45
1328,1.328001,1427,3042011,20128.83,-260.74,-2056.45
1329,1.329000,1428,3043010,16927.83,-1.7400000000000002,-52.44999999999982
1330,1.330001,1429,3044011,2094.83,1111.26,-559.4499999999998
1331,1.331001,1430,3045011,-9044.17,945.26,1955.5500000000002
1332,1.332001,1431,3046011,-8999.17,240.26,4310.55
1333,1.333001,1432,3047011,-2453.17,-416.74,3688.55
1334,1.334000,1433,3048010,4127.83,-791.74,3770.55
1335,1.335001,1434,3049011,4214.83,-518.74,3241.55
1336,1.336001,1435,3050011,-2405.17,-121.74,516.5500000000002
1337,1.337001,1436,3051011,-9152.17,-133.74,879.5500000000002
1338,1.338001,1437,3052011,-18945.17,-1170.74,3388.55
1339,1.339001,1438,3053011,-21135.17,-833.74,2682.55
1340,1.340000,1439,3054010,-18860.17,88.26,1216.5500000000002
1341,1.341001,1440,3055011,-9127.17,-311.74,2611.55
1342,1.342001,1441,3056011,2941.83,114.26,2412.55
1343,1.343001,1442,3057011,5813.83,-14.74,101.55000000000018
1344,1.344000,1443,3058010,5872.83,-1.7400000000000002,-711.4499999999998
1345,1.345001,1444,3059011,3154.83,1047.26,-2102.45
1346,1.346001,1445,3060011,6845.83,970.26,-3049.45
1347,1.347001,1446,3061011,8185.83,250.26,-3202.45
1348,1.348001,1447,3062011,6813.83,-345.74,-2433.45
1349,1.349001,1448,3063011,1771.83,-375.74,-2393.45
1350,1.350000,1449,3064010,-5003.17,423.26,-3947.45
1351,1.351001,1450,3065011,935.83,379.26,-4387.45
1352,1.352001,1451,3066011,12168.83,-29.740000000000002,-4943.45
1353,1.353001,1452,3067011,20154.83,-52.74,-2818.45
1354,1.354000,1453,3068010,18028.83,-108.74,18.550000000000182
1355,1.355001,1454,3069011,4731.83,601.26,-668.4499999999998
1356,1.356001,1455,3070011,-7850.17,1131.26,1051.5500000000002
1357,1.357000,1456,3071010,-9912.17,202.26,4400.55
1358,1.358001,1457,3072011,-3695.17,-476.74,3949.55
1359,1.359001,1458,3073011,2501.83,-427.74,3210.55
1360,1.360001,1459,3074011,4384.83,-931.74,3123.55
1361,1.361000,1460,3075010,-1334.17,-245.74,826.5500000000002
1362,1.362001,1461,3076011,-7693.17,70.26,1002.5500000000002
1363,1.363001,1462,3077011,-17006.17,-1291.74,3464.55
1364,1.364000,1463,3078010,-21736.17,-688.74,2711.55
1365,1.365001,1464,3079011,-20799.17,248.26,1190.5500000000002
1366,1.366000,1465,3080010,-10832.17,-241.74,2766.55
1367,1.367001,1466,3081011,1844.83,140.26,3167.55
1368,1.368001,1467,3082011,6331.83,27.259999999999998,600.5500000000002
1369,1.369001,1468,3083011,6733.83,-91.74,-551.4499999999998
1370,1.370000,1469,3084010,3336.83,841.26,-1761.4499999999998
1371,1.371000,1470,3085010,6040.83,1013.26,-3165.45
1372,1.372001,1471,3086011,7821.83,557.26,-3680.45
1373,1.373000,1472,3087010,7579.83,-631.74,-2816.45
1374,1.374000,1473,3088010,2137.83,-448.74,-2617.45
1375,1.375000,1474,3089010,-5097.17,464.26,-3965.45
1376,1.376001,1475,3090011,539.83,46.26,-4292.45
1377,1.377001,1476,3091011,11103.83,207.26,-5217.45
1378,1.378001,1477,3092011,19724.83,-84.74,-3042.45
1379,1.379001,1478,3093011,19095.83,-135.74,-91.44999999999982
1380,1.380001,1479,3094011,6139.83,785.26,-819.4499999999998
1381,1.381000,1480,3095010,-7394.17,1040.26,1119.5500000000002
1382,1.382001,1481,3096011,-9732.17,373.26,4473.55
1383,1.383000,1482,3097010,-4143.17,-185.74,3881.55
1384,1.384000,1483,3098010,2480.83,-778.74,3351.55
1385,1.385001,1484,3099011,4708.83,-860.74,3557.55
1386,1.386001,1485,3100011,-1097.17,-51.74,1068.5500000000002
1387,1.387001,1486,3101011,-6707.17,-204.74,782.5500000000002
1388,1.388001,1487,3102011,-17246.17,-1044.74,2905.55
1389,1.389001,1488,3103011,-22418.17,-941.74,2609.55
1390,1.390001,1489,3104011,-20974.17,-33.74,1276.5500000000002
1391,1.391001,1490,3105011,-12482.17,49.26,2509.55
1392,1.392000,1491,3106010,1051.83,44.26,3218.55
1393,1.393001,1492,3107011,6511.83,45.26,877.5500000000002
1394,1.394001,1493,3108011,6871.83,43.26,-179.44999999999982
1395,1.395001,1494,3109011,3961.83,714.26,-1280.4499999999998
1396,1.396001,1495,3110011,5726.83,1258.26,-2965.45
1397,1.397001,1496,3111011,8106.83,709.26,-3711.45
1398,1.398000,1497,3112010,8063.83,-441.74,-2919.45
1399,1.399000,1498,3113010,2590.83,-746.74,-2549.45
1400,1.400001,1499,3114011,-5270.17,351.26,-3994.45
1401,1.401001,1500,3115011,277.83,293.26,-4274.45
1402,1.402000,1501,3116010,10281.83,-104.74,-5467.45
1403,1.403001,1502,3117011,18394.83,-64.74,-3824.45
1404,1.404001,1503,3118011,19667.83,-222.74,-187.44999999999982
1405,1.405001,1504,3119011,7380.83,721.26,-783.4499999999998
1406,1.406001,1505,3120011,-5751.17,1037.26,548.5500000000002
1407,1.407001,1506,3121011,-10392.17,599.26,3981.55
1408,1.408001,1507,3122011,-4892.17,-178.74,4265.55
1409,1.409001,1508,3123011,2293.83,-714.74,3670.55
1410,1.410001,1509,3124011,4533.83,-723.74,3898.55
1411,1.411001,1510,3125011,170.82999999999998,-229.74,1754.5500000000002
1412,1.412001,1511,3126011,-5687.17,-56.74,495.5500000000002
1413,1.413001,1512,3127011,-17443.17,-703.74,2744.55
1414,1.414001,1513,3128011,-23100.17,-1025.74,3144.55
1415,1.415000,1514,3129010,-19768.17,-105.74,1457.5500000000002
1416,1.416001,1515,3130011,-13607.17,-101.74,2089.55
1417,1.417001,1516,3131011,-722.17,-205.74,3249.55
1418,1.418001,1517,3132011,5930.83,143.26,971.5500000000002
1419,1.419001,1518,3133011,7097.83,-144.74,-339.4499999999998
1420,1.420000,1519,3134010,4037.83,722.26,-1429.4499999999998
1421,1.421001,1520,3135011,5586.83,1127.26,-3075.45
1422,1.422000,1521,3136010,8671.83,569.26,-3508.45
1423,1.423001,1522,3137011,8060.83,-278.74,-3068.45
1424,1.424001,1523,3138011,3397.83,-432.74,-2580.45
1425,1.425001,1524,3139011,-4580.17,119.26,-3614.45
1426,1.426001,1525,3140011,-405.17,43.26,-4119.45
1427,1.427001,1526,3141011,9304.83,222.26,-5462.45
1428,1.428001,1527,3142011,18239.83,-16.740000000000002,-3930.45
1429,1.429001,1528,3143011,19706.83,-248.74,-277.4499999999998
1430,1.430001,1529,3144011,8369.83,537.26,-781.4499999999998
1431,1.431001,1530,3145011,-4713.17,1013.26,194.55000000000018
1432,1.432001,1531,3146011,-10188.17,486.26,3905.55
1433,1.433000,1532,3147010,-5573.17,0.2599999999999998,4175.55
1434,1.434001,1533,3148011,1156.83,-705.74,3402.55
1435,1.435001,1534,3149011,4637.83,-1004.74,3921.55
1436,1.436001,1535,3150011,925.83,-238.74,1935.5500000000002
1437,1.437001,1536,3151011,-5343.17,10.26,519.5500000000002
1438,1.438001,1537,3152011,-16463.17,-534.74,2693.55
1439,1.439001,1538,3153011,-23726.17,-963.74,3031.55
1440,1.440000,1539,3154010,-20448.17,-15.74,1388.5500000000002
1441,1.441001,1540,3155011,-13437.17,-138.74,2660.55
1442,1.442000,1541,3156010,-1189.17,-54.74,3593.55
1443,1.443000,1542,3157010,6077.83,147.26,1264.5500000000002
1444,1.444001,1543,3158011,7218.83,-325.74,-129.44999999999982
1445,1.445001,1544,3159011,4260.83,671.26,-1533.4499999999998
1446,1.446001,1545,3160011,4641.83,1284.26,-3224.45
1447,1.447001,1546,3161011,8419.83,520.26,-3670.45
1448,1.448000,1547,3162010,8287.83,-371.74,-3204.45
1449,1.449001,1548,3163011,3658.83,-423.74,-2683.45
1450,1.450001,1549,3164011,-3983.17,-144.74,-3592.45
1451,1.451001,1550,3165011,-1357.17,132.26,-4223.45
1452,1.452001,1551,3166011,8491.83,305.26,-5337.45
1453,1.453000,1552,3167010,17625.83,-13.74,-4170.45
1454,1.454001,1553,3168011,20063.83,-176.74,-589.4499999999998
1455,1.455001,1554,3169011,9900.83,489.26,-485.4499999999998
1456,1.456001,1555,3170011,-3770.17,1148.26,206.55000000000018
1457,1.457001,1556,3171011,-9906.17,569.26,3760.55
1458,1.458000,1557,3172010,-6424.17,15.26,4298.55
1459,1.459000,1558,3173010,452.83,-643.74,3579.55
1460,1.460000,1559,3174010,4819.83,-1131.74,3914.55
1461,1.461001,1560,3175011,968.83,75.26,1866.5500000000002
1462,1.462000,1561,3176010,-4205.17,33.26,550.5500000000002
1463,1.463001,1562,3177011,-15256.17,-611.74,2421.55
1464,1.464000,1563,3178010,-23918.17,-849.74,2894.55
1465,1.465001,1564,3179011,-20343.17,-484.74,1777.5500000000002
1466,1.466001,1565,3180011,-14357.17,-45.74,2313.55
1467,1.467001,1566,3181011,-2677.17,142.26,3427.55
1468,1.468001,1567,3182011,5407.83,-55.74,1562.5500000000002
1469,1.469001,1568,3183011,7540.83,-266.74,-442.4499999999998
1470,1.470001,1569,3184011,4633.83,634.26,-1257.4499999999998
1471,1.471001,1570,3185011,4441.83,1044.26,-2714.45
1472,1.472000,1571,3186010,8183.83,789.26,-3811.45
1473,1.473001,1572,3187011,7878.83,-196.74,-3490.45
1474,1.474001,1573,3188011,4337.83,-709.74,-2497.45
1475,1.475001,1574,3189011,-3322.17,-166.74,-3229.45
1476,1.476001,1575,3190011,-1843.17,262.26,-4269.45
1477,1.477001,1576,3191011,7725.83,361.26,-5473.45
1478,1.478001,1577,3192011,16923.83,-156.74,-4252.45
1479,1.479001,1578,3193011,20311.83,-205.74,-620.4499999999998
1480,1.480001,1579,3194011,11186.83,434.26,-490.4499999999998
1481,1.481001,1580,3195011,-2982.17,1043.26,-84.44999999999982
1482,1.482000,1581,3196010,-9910.17,675.26,3439.55
1483,1.483001,1582,3197011,-6889.17,44.26,4371.55
1484,1.484001,1583,3198011,74.83,-566.74,3666.55
1485,1.485000,1584,3199010,5006.83,-1188.74,3936.55
1486,1.486001,1585,3200011,1929.83,-28.740000000000002,2184.55
1487,1.487001,1586,3201011,-4101.17,61.26,470.5500000000002
1488,1.488001,1587,3202011,-14807.17,-587.74,2122.55
1489,1.489000,1588,3203010,-24206.17,-813.74,2903.55
1490,1.490001,1589,3204011,-20840.17,-611.74,1774.5500000000002
1491,1.491001,1590,3205011,-14703.17,-44.74,2096.55
1492,1.492001,1591,3206011,-3447.17,242.26,3470.55
1493,1.493001,1592,3207011,5504.83,-121.74,1883.5500000000002
1494,1.494000,1593,3208010,7504.83,-211.74,-194.44999999999982
1495,1.495001,1594,3209011,4878.83,650.26,-929.4499999999998
1496,1.496000,1595,3210010,4210.83,1091.26,-2719.45
1497,1.497001,1596,3211011,7867.83,812.26,-3806.45
1498,1.498001,1597,3212011,7899.83,-152.74,-3535.45
1499,1.499001,1598,3213011,4784.83,-663.74,-2572.45
1500,1.500001,1599,3214011,-2246.17,-363.74,-3160.45
1501,1.501001,1600,3215011,-2511.17,359.26,-4366.45
1502,1.502001,1601,3216011,6092.83,380.26,-5462.45
1503,1.503001,1602,3217011,16780.83,-372.74,-4427.45
1504,1.504001,1603,3218011,20443.83,-205.74,-928.4499999999998
1505,1.505001,1604,3219011,12074.83,658.26,-510.4499999999998
1506,1.506001,1605,3220011,-1370.17,843.26,-100.44999999999982
1507,1.507001,1606,3221011,-10026.17,746.26,3153.55
1508,1.508001,1607,3222011,-7500.17,192.26,4476.55
1509,1.509001,1608,3223011,-366.17,-589.74,3722.55
1510,1.510001,1609,3224011,4279.83,-877.74,3940.55
1511,1.511001,1610,3225011,2434.83,-512.74,2601.55
1512,1.512001,1611,3226011,-3825.17,248.26,164.55000000000018
1513,1.513001,1612,3227011,-13562.17,-295.74,2005.5500000000002
1514,1.514001,1613,3228011,-23085.17,-1331.74,3530.55
1515,1.515001,1614,3229011,-20867.17,-357.74,1638.5500000000002
1516,1.516001,1615,3230011,-15346.17,-112.74,1567.5500000000002
1517,1.517001,1616,3231011,-5080.17,-165.74,3383.55
1518,1.518001,1617,3232011,4502.83,319.26,1935.5500000000002
1519,1.519000,1618,3233010,7100.83,-194.74,-122.44999999999982
1520,1.520001,1619,3234011,5554.83,360.26,-904.4499999999998
1521,1.521001,1620,3235011,5039.83,1071.26,-2548.45
1522,1.522001,1621,3236011,7961.83,885.26,-3604.45
1523,1.523001,1622,3237011,7827.83,41.26,-3405.45
1524,1.524000,1623,3238010,4852.83,-673.74,-2475.45
1525,1.525001,1624,3239011,-1805.17,-289.74,-3112.45
1526,1.526000,1625,3240010,-3214.17,350.26,-4099.45
1527,1.527000,1626,3241010,5382.83,174.26,-5171.45
1528,1.528001,1627,3242011,15807.83,-33.74,-4853.45
1529,1.529001,1628,3243011,20500.83,-242.74,-1095.4499999999998
1530,1.530001,1629,3244011,13492.83,156.26,-199.44999999999982
1531,1.531000,1630,3245010,-1349.17,1162.26,-674.4499999999998
1532,1.532001,1631,3246011,-9720.17,825.26,2811.55
1533,1.533000,1632,3247010,-7758.17,14.26,4583.55
1534,1.534001,1633,3248011,-723.17,-489.74,3558.55
1535,1.535001,1634,3249011,5243.83,-1021.74,4060.55
1536,1.536001,1635,3250011,2851.83,-486.74,2743.55
1537,1.537001,1636,3251011,-4075.17,274.26,244.55000000000018
1538,1.538000,1637,3252010,-12223.17,-367.74,1951.5500000000002
1539,1.539001,1638,3253011,-22841.17,-1117.74,3357.55
1540,1.540001,1639,3254011,-21709.17,-399.74,1882.5500000000002
1541,1.541001,1640,3255011,-15364.17,-316.74,1814.5500000000002
1542,1.542001,1641,3256011,-5581.17,-136.74,3416.55
1543,1.543000,1642,3257010,3838.83,424.26,1997.5500000000002
1544,1.544001,1643,3258011,6755.83,-273.74,-119.44999999999982
1545,1.545000,1644,3259010,5303.83,284.26,-847.4499999999998
1546,1.546001,1645,3260011,4498.83,1184.26,-2471.45
1547,1.547000,1646,3261010,7839.83,874.26,-3512.45
1548,1.548001,1647,3262011,8046.83,79.26,-3422.45
1549,1.549000,1648,3263010,5695.83,-580.74,-2385.45
1550,1.550001,1649,3264011,-761.17,-377.74,-2997.45
1551,1.551001,1650,3265011,-3602.17,394.26,-4219.45
1552,1.552001,1651,3266011,3608.83,360.26,-5043.45
1553,1.553001,1652,3267011,14908.83,-133.74,-4961.45
1554,1.554001,1653,3268011,20677.83,-223.74,-1726.4499999999998
1555,1.555001,1654,3269011,14952.83,156.26,-297.4499999999998
1556,1.556000,1655,3270010,639.83,954.26,-600.4499999999998
1557,1.557001,1656,3271011,-9923.17,1057.26,2298.55
1558,1.558001,1657,3272011,-7966.17,-180.74,4686.55
1559,1.559001,1658,3273011,-1512.17,-472.74,3769.55
1560,1.560001,1659,3274011,4079.83,-634.74,3710.55
1561,1.561001,1660,3275011,3616.83,-880.74,2994.55
1562,1.562001,1661,3276011,-4353.17,406.26,176.55000000000018
1563,1.563001,1662,3277011,-10651.17,-165.74,1555.5500000000002
1564,1.564001,1663,3278011,-20805.17,-1362.74,3758.55
1565,1.565001,1664,3279011,-22209.17,-304.74,2107.55
1566,1.566000,1665,3280010,-16570.17,-113.74,1540.5500000000002
1567,1.567001,1666,3281011,-7045.17,-167.74,3459.55
1568,1.568001,1667,3282011,3398.83,365.26,2620.55
1569,1.569000,1668,3283010,6564.83,-126.74,4.550000000000182
1570,1.570000,1669,3284010,5762.83,187.26,-929.4499999999998
1571,1.571001,1670,3285011,4568.83,824.26,-2214.45
1572,1.572000,1671,3286010,7496.83,1016.26,-3624.45
1573,1.573001,1672,3287011,7711.83,353.26,-3770.45
1574,1.574001,1673,3288011,5937.83,-828.74,-2528.45
1575,1.575000,1674,3289010,-268.17,-418.74,-2912.45
1576,1.576001,1675,3290011,-4053.17,446.26,-4186.45
1577,1.577001,1676,3291011,3029.83,310.26,-4843.45
1578,1.578001,1677,3292011,13930.83,-9.74,-5075.45
1579,1.579001,1678,3293011,21106.83,-213.74,-1858.4499999999998
1580,1.580001,1679,3294011,16286.83,-11.74,-10.449999999999818
1581,1.581001,1680,3295011,1814.83,902.26,-687.4499999999998
1582,1.582001,1681,3296011,-9614.17,1407.26,2101.55
1583,1.583001,1682,3297011,-8315.17,-293.74,4939.55
1584,1.584001,1683,3298011,-2558.17,-519.74,3530.55
1585,1.585000,1684,3299010,3866.83,-356.74,3545.55
1586,1.586001,1685,3300011,4415.83,-1037.74,3360.55
1587,1.587001,1686,3301011,-3881.17,294.26,228.55000000000018
1588,1.588001,1687,3302011,-10024.17,-151.74,1508.5500000000002
1589,1.589001,1688,3303011,-20300.17,-1586.74,3575.55
1590,1.590001,1689,3304011,-22646.17,-324.74,2065.55
1591,1.591001,1690,3305011,-17995.17,-15.74,1477.5500000000002
1592,1.592001,1691,3306011,-7839.17,-279.74,3140.55
1593,1.593001,1692,3307011,3047.83,516.26,2408.55
1594,1.594001,1693,3308011,7112.83,-433.74,393.5500000000002
1595,1.595001,1694,3309011,5564.83,382.26,-474.4499999999998
1596,1.596001,1695,3310011,4232.83,1072.26,-1939.4499999999998
1597,1.597000,1696,3311010,7216.83,779.26,-3600.45
1598,1.598001,1697,3312011,7817.83,688.26,-4008.45
1599,1.599001,1698,3313011,7192.83,-882.74,-2235.45
1600,1.600001,1699,3314011,700.83,-576.74,-2698.45
1601,1.601000,1700,3315010,-4507.17,673.26,-4541.45
1602,1.602001,1701,3316011,1924.83,40.26,-4947.45
1603,1.603001,1702,3317011,12430.83,-43.74,-5072.45
1604,1.604001,1703,3318011,20944.83,-135.74,-2149.45
1605,1.605000,1704,3319010,17676.83,-236.74,-172.44999999999982
1606,1.606001,1705,3320011,2374.83,1042.26,-906.4499999999998
1607,1.607001,1706,3321011,-8749.17,1223.26,1927.5500000000002
1608,1.608001,1707,3322011,-9156.17,-9.74,4761.55
1609,1.609000,1708,3323010,-2712.17,-340.74,3705.55
1610,1.610001,1709,3324011,3580.83,-598.74,3847.55
1611,1.611000,1710,3325010,4528.83,-876.74,3567.55
1612,1.612001,1711,3326011,-3004.17,210.26,613.5500000000002
1613,1.613001,1712,3327011,-9484.17,-161.74,1264.5500000000002
1614,1.614000,1713,3328010,-19031.17,-1302.74,3425.55
1615,1.615001,1714,3329011,-22019.17,-572.74,2515.55
1616,1.616001,1715,3330011,-18878.17,-145.74,1541.5500000000002
1617,1.617001,1716,3331011,-9574.17,-75.74,2620.55
1618,1.618001,1717,3332011,3023.83,144.26,2705.55
1619,1.619001,1718,3333011,5601.83,-217.74,272.5500000000002
1620,1.620001,1719,3334011,6590.83,189.26,-905.4499999999998
1621,1.621000,1720,3335010,3755.83,757.26,-1886.4499999999998
1622,1.622001,1721,3336011,6815.83,1034.26,-3434.45
1623,1.623001,1722,3337011,8678.83,520.26,-3686.45
1624,1.624001,1723,3338011,6674.83,-672.74,-2616.45
1625,1.625000,1724,3339010,1976.83,-352.74,-2643.45
1626,1.626001,1725,3340011,-5076.17,505.26,-4066.45
1627,1.627001,1726,3341011,1692.83,189.26,-4444.45
1628,1.628001,1727,3342011,12071.83,45.26,-5081.45
1629,1.629000,1728,3343010,20168.83,-268.74,-2553.45
1630,1.630001,1729,3344011,18234.83,-43.74,-53.44999999999982
1631,1.631001,1730,3345011,3550.83,841.26,-982.4499999999998
1632,1.632001,1731,3346011,-8335.17,918.26,1325.5500000000002
1633,1.633001,1732,3347011,-9634.17,311.26,4295.55
1634,1.634001,1733,3348011,-3293.17,-248.74,3869.55
1635,1.635001,1734,3349011,3461.83,-929.74,3736.55
1636,1.636001,1735,3350011,4221.83,-719.74,3350.55
1637,1.637000,1736,3351010,-2262.17,79.26,916.5500000000002
1638,1.638001,1737,3352011,-8342.17,-242.74,1146.5500000000002
1639,1.639001,1738,3353011,-18216.17,-1045.74,3347.55
1640,1.640001,1739,3354011,-22002.17,-636.74,2570.55
1641,1.641001,1740,3355011,-20081.17,165.26,1289.5500000000002
1642,1.642001,1741,3356011,-10128.17,-211.74,2996.55
1643,1.643000,1742,3357010,2407.83,140.26,3093.55
1644,1.644001,1743,3358011,6444.83,-23.740000000000002,556.5500000000002
1645,1.645001,1744,3359011,6618.83,-52.74,-486.4499999999998
1646,1.646001,1745,3360011,3362.83,889.26,-2029.4499999999998
1647,1.647001,1746,3361011,6395.83,1041.26,-3416.45
1648,1.648000,1747,3362010,7950.83,440.26,-3735.45
1649,1.649001,1748,3363011,7518.83,-595.74,-2799.45
1650,1.650000,1749,3364010,2080.83,-543.74,-2675.45
1651,1.651001,1750,3365011,-5072.17,428.26,-4101.45
1652,1.652001,1751,3366011,881.83,229.26,-4455.45
1653,1.653001,1752,3367011,11588.83,-31.740000000000002,-5193.45
1654,1.654001,1753,3368011,19465.83,47.26,-3016.45
1655,1.655001,1754,3369011,18770.83,-153.74,-47.44999999999982
1656,1.656001,1755,3370011,5706.83,648.26,-556.4499999999998
1657,1.657000,1756,3371010,-7459.17,1159.26,1072.5500000000002
1658,1.658000,1757,3372010,-9865.17,267.26,4461.55
1659,1.659000,1758,3373010,-4103.17,-402.74,4242.55
1660,1.660001,1759,3374011,2164.83,-460.74,3263.55
1661,1.661001,1760,3375011,4426.83,-905.74,3490.55
1662,1.662000,1761,3376010,-988.17,-330.74,1254.5500000000002
1663,1.663001,1762,3377011,-7446.17,342.26,577.5500000000002
1664,1.664001,1763,3378011,-16885.17,-1200.74,3175.55
1665,1.665000,1764,3379010,-22352.17,-903.74,2824.55
1666,1.666001,1765,3380011,-20650.17,368.26,1165.5500000000002
1667,1.667001,1766,3381011,-11832.17,-335.74,2714.55
1668,1.668001,1767,3382011,1215.83,198.26,3284.55
1669,1.669000,1768,3383010,6537.83,117.26,831.5500000000002
1670,1.670000,1769,3384010,7260.83,-284.74,-378.4499999999998
1671,1.671001,1770,3385011,4041.83,832.26,-1652.4499999999998
1672,1.672001,1771,3386011,5407.83,1187.26,-3129.45
1673,1.673001,1772,3387011,8270.83,554.26,-3774.45
1674,1.674001,1773,3388011,7223.83,-518.74,-3166.45
1675,1.675000,1774,3389010,2622.83,-596.74,-2698.45
1676,1.676000,1775,3390010,-4849.17,313.26,-3895.45
1677,1.677000,1776,3391010,262.83,161.26,-4183.45
1678,1.678001,1777,3392011,10906.83,18.259999999999998,-5279.45
1679,1.679001,1778,3393011,18636.83,-85.74,-3559.45
1680,1.680000,1779,3394010,19450.83,-180.74,37.55000000000018
1681,1.681001,1780,3395011,6864.83,703.26,-514.4499999999998
1682,1.682001,1781,3396011,-6270.17,1025.26,642.5500000000002
1683,1.683001,1782,3397011,-10102.17,715.26,4033.55
1684,1.684001,1783,3398011,-4296.17,-343.74,4343.55
1685,1.685001,1784,3399011,2223.83,-860.74,3600.55
1686,1.686001,1785,3400011,4313.83,-536.74,3580.55
1687,1.687001,1786,3401011,-114.17,-447.74,1607.5500000000002
1688,1.688001,1787,3402011,-6775.17,70.26,457.5500000000002
1689,1.689001,1788,3403011,-17308.17,-792.74,2881.55
1690,1.690001,1789,3404011,-23161.17,-1300.74,2974.55
1691,1.691001,1790,3405011,-20421.17,273.26,1106.5500000000002
1692,1.692001,1791,3406011,-12328.17,-145.74,2526.55
1693,1.693001,1792,3407011,206.82999999999998,-93.74,3174.55
1694,1.694001,1793,3408011,6083.83,207.26,1041.5500000000002
1695,1.695001,1794,3409011,7400.83,-366.74,-218.44999999999982
1696,1.696001,1795,3410011,3694.83,910.26,-1525.4499999999998
1697,1.697001,1796,3411011,4760.83,1330.26,-2821.45
1698,1.698001,1797,3412011,9146.83,450.26,-3805.45
1699,1.699000,1798,3413010,8137.83,-362.74,-3270.45
1700,1.700001,1799,3414011,3215.83,-523.74,-2295.45
1701,1.701001,1800,3415011,-4540.17,178.26,-3710.45
1702,1.702001,1801,3416011,-521.17,351.26,-4555.45
1703,1.703001,1802,3417011,9816.83,-157.74,-5354.45
1704,1.704000,1803,3418010,18603.83,-132.74,-3623.45
1705,1.705001,1804,3419011,19647.83,73.26,-319.4499999999998
1706,1.706001,1805,3420011,8560.83,337.26,-551.4499999999998
1707,1.707001,1806,3421011,-5995.17,1110.26,203.55000000000018
1708,1.708001,1807,3422011,-10459.17,598.26,3803.55
1709,1.709000,1808,3423010,-4711.17,-359.74,4548.55
1710,1.710000,1809,3424010,852.83,-528.74,3343.55
1711,1.711001,1810,3425011,4589.83,-876.74,3853.55
1712,1.712001,1811,3426011,327.83,-288.74,1924.5500000000002
1713,1.713000,1812,3427010,-5883.17,178.26,446.5500000000002
1714,1.714001,1813,3428011,-16722.17,-677.74,2797.55
1715,1.715001,1814,3429011,-22974.17,-947.74,3324.55
1716,1.716001,1815,3430011,-19787.17,-69.74,1448.5500000000002
1717,1.717001,1816,3431011,-12908.17,-220.74,2314.55
1718,1.718001,1817,3432011,-1240.17,101.26,3344.55
1719,1.719001,1818,3433011,5848.83,122.26,1084.5500000000002
1720,1.720001,1819,3434011,7367.83,-392.74,-275.4499999999998
1721,1.721001,1820,3435011,3846.83,798.26,-1736.4499999999998
1722,1.722001,1821,3436011,5100.83,1084.26,-3114.45
1723,1.723001,1822,3437011,8868.83,536.26,-3572.45
1724,1.724001,1823,3438011,8093.83,-217.74,-3571.45
1725,1.725001,1824,3439011,3674.83,-558.74,-2703.45
1726,1.726001,1825,3440011,-4166.17,-42.74,-3285.45
1727,1.727001,1826,3441011,-1194.17,138.26,-4171.45
1728,1.728000,1827,3442010,8375.83,219.26,-5257.45
1729,1.729001,1828,3443011,17002.83,159.26,-3969.45
1730,1.730001,1829,3444011,19935.83,-203.74,-358.4499999999998
1731,1.731001,1830,3445011,9563.83,491.26,-344.4499999999998
1732,1.732001,1831,3446011,-3424.17,1057.26,427.5500000000002
1733,1.733000,1832,3447010,-10233.17,566.26,3795.55
1734,1.734001,1833,3448011,-6622.17,51.26,4327.55
1735,1.735000,1834,3449010,625.83,-664.74,3657.55
1736,1.736001,1835,3450011,4393.83,-1031.74,3683.55
1737,1.737000,1836,3451010,1613.83,-238.74,1848.5500000000002
1738,1.738000,1837,3452010,-4112.17,-75.74,407.5500000000002
1739,1.739001,1838,3453011,-15535.17,-548.74,2190.55
1740,1.740000,1839,3454010,-23298.17,-937.74,2811.55
1741,1.741001,1840,3455011,-20006.17,-489.74,1364.5500000000002
1742,1.742001,1841,3456011,-14003.17,-38.74,2213.55
1743,1.743001,1842,3457011,-2451.17,-52.74,3528.55
1744,1.744001,1843,3458011,5569.83,36.26,1557.5500000000002
1745,1.745000,1844,3459010,7399.83,-100.74,-211.44999999999982
1746,1.746001,1845,3460011,4481.83,553.26,-1286.4499999999998
1747,1.747001,1846,3461011,4562.83,1098.26,-2720.45
1748,1.748000,1847,3462010,7762.83,889.26,-3557.45
1749,1.749001,1848,3463011,7927.83,-182.74,-3364.45
1750,1.750001,1849,3464011,4349.83,-765.74,-2337.45
1751,1.751000,1850,3465010,-3228.17,-110.74,-3192.45
1752,1.752001,1851,3466011,-2558.17,349.26,-4345.45
1753,1.753001,1852,3467011,6704.83,172.26,-5193.45
1754,1.754001,1853,3468011,16249.83,60.26,-4371.45
1755,1.755001,1854,3469011,19967.83,-158.74,-904.4499999999998
1756,1.756001,1855,3470011,12037.83,282.26,-181.44999999999982
1757,1.757001,1856,3471011,-1910.17,1125.26,41.55000000000018
1758,1.758001,1857,3472011,-9722.17,765.26,3280.55
1759,1.759000,1858,3473010,-7282.17,-88.74,4554.55
1760,1.760001,1859,3474011,-383.17,-646.74,3566.55
1761,1.761001,1860,3475011,4575.83,-893.74,3716.55
1762,1.762001,1861,3476011,2334.83,-296.74,2250.55
1763,1.763001,1862,3477011,-3903.17,136.26,277.5500000000002
1764,1.764000,1863,3478010,-13097.17,-354.74,1892.5500000000002
1765,1.765000,1864,3479010,-22423.17,-1136.74,3265.55
1766,1.766001,1865,3480011,-20701.17,-541.74,1870.5500000000002
1767,1.767001,1866,3481011,-14710.17,-43.74,1754.5500000000002
1768,1.768001,1867,3482011,-4812.17,-72.74,3325.55
1769,1.769001,1868,3483011,4159.83,235.26,1677.5500000000002
1770,1.770001,1869,3484011,6662.83,-183.74,-222.44999999999982
1771,1.771000,1870,3485010,5324.83,377.26,-932.4499999999998
1772,1.772001,1871,3486011,4729.83,1042.26,-2367.45
1773,1.773001,1872,3487011,7537.83,888.26,-3497.45
1774,1.774001,1873,3488011,7918.83,75.26,-3491.45
1775,1.775001,1874,3489011,5094.83,-676.74,-2282.45
1776,1.776001,1875,3490011,-1491.17,-287.74,-2917.45
1777,1.777001,1876,3491011,-3603.17,468.26,-4299.45
1778,1.778001,1877,3492011,4479.83,275.26,-5078.45
1779,1.779001,1878,3493011,15220.83,-184.74,-4639.45
1780,1.780001,1879,3494011,20503.83,-209.74,-1318.4499999999998
1781,1.781001,1880,3495011,13848.83,365.26,-197.44999999999982
1782,1.782001,1881,3496011,-221.17000000000002,940.26,-409.4499999999998
1783,1.783001,1882,3497011,-9663.17,844.26,2833.55
1784,1.784000,1883,3498010,-7939.17,71.26,4592.55
1785,1.785001,1884,3499011,-852.17,-557.74,3591.55
1786,1.786001,1885,3500011,4394.83,-742.74,3741.55
1787,1.787001,1886,3501011,3368.83,-670.74,2740.55
1788,1.788001,1887,3502011,-4098.17,137.26,138.55000000000018
1789,1.789001,1888,3503011,-11444.17,-354.74,1488.5500000000002
1790,1.790001,1889,3504011,-21509.17,-1291.74,3384.55
1791,1.791000,1890,3505010,-21634.17,-360.74,1836.5500000000002
1792,1.792001,1891,3506011,-15967.17,-170.74,1460.5500000000002
1793,1.793001,1892,3507011,-5938.17,-256.74,3314.55
1794,1.794001,1893,3508011,3550.83,479.26,2187.55
1795,1.795000,1894,3509010,6612.83,-231.74,121.55000000000018
1796,1.796001,1895,3510011,5776.83,198.26,-758.4499999999998
1797,1.797001,1896,3511011,3822.83,1175.26,-2389.45
1798,1.798001,1897,3512011,7618.83,931.26,-3274.45
1799,1.799001,1898,3513011,7878.83,217.26,-3344.45
1800,1.800000,1899,3514010,6092.83,-679.74,-2427.45
1801,1.801001,1900,3515011,-40.17,-320.74,-2969.45
1802,1.802001,1901,3516011,-4040.17,380.26,-4162.45
1803,1.803001,1902,3517011,2393.83,313.26,-4918.45
1804,1.804001,1903,3518011,13386.83,6.26,-5088.45
1805,1.805000,1904,3519010,20638.83,-340.74,-1829.4499999999998
1806,1.806001,1905,3520011,15758.83,121.26,-157.44999999999982
1807,1.807001,1906,3521011,1586.83,977.26,-496.4499999999998
1808,1.808001,1907,3522011,-9106.17,909.26,2263.55
1809,1.809001,1908,3523011,-8510.17,82.26,4575.55
1810,1.810000,1909,3524010,-2359.17,-343.74,3760.55
1811,1.811001,1910,3525011,4008.83,-806.74,3701.55
1812,1.812000,1911,3526010,3752.83,-671.74,3028.55
1813,1.813001,1912,3527011,-3490.17,139.26,447.5500000000002
1814,1.814001,1913,3528011,-9212.17,-236.74,1326.5500000000002
1815,1.815001,1914,3529011,-19237.17,-1231.74,3381.55
1816,1.816000,1915,3530010,-21408.17,-591.74,2345.55
1817,1.817001,1916,3531011,-18147.17,76.26,1274.5500000000002
1818,1.818000,1917,3532010,-8460.17,-313.74,2875.55
1819,1.819001,1918,3533011,3141.83,242.26,2513.55
1820,1.820001,1919,3534011,5910.83,-46.74,66.55000000000018
1821,1.821001,1920,3535011,6187.83,22.259999999999998,-793.4499999999998
1822,1.822000,1921,3536010,4127.83,932.26,-1990.4499999999998
1823,1.823000,1922,3537010,6734.83,1128.26,-3262.45
1824,1.824001,1923,3538011,8028.83,396.26,-3449.45
1825,1.825000,1924,3539010,6594.83,-694.74,-2441.45
1826,1.826001,1925,3540011,1009.83,-312.74,-2597.45
1827,1.827000,1926,3541010,-4317.17,426.26,-3892.45
1828,1.828000,1927,3542010,1552.83,227.26,-4609.45
1829,1.829001,1928,3543011,11987.83,100.26,-5146.45
1830,1.830001,1929,3544011,20054.83,-270.74,-2378.45
1831,1.831000,1930,3545010,17265.83,-86.74,-143.44999999999982
1832,1.832001,1931,3546011,3173.83,925.26,-846.4499999999998
1833,1.833000,1932,3547010,-8154.17,993.26,1675.5500000000002
1834,1.834000,1933,3548010,-9006.17,164.26,4611.55
1835,1.835001,1934,3549011,-2738.17,-292.74,3866.55
1836,1.836001,1935,3550011,3200.83,-696.74,3519.55
1837,1.837001,1936,3551011,4134.83,-814.74,3276.55
1838,1.838001,1937,3552011,-1924.17,-41.74,865.5500000000002
1839,1.839001,1938,3553011,-8736.17,-54.74,998.5500000000002
1840,1.840001,1939,3554011,-17908.17,-1191.74,3158.55
1841,1.841001,1940,3555011,-21631.17,-737.74,2529.55
1842,1.842001,1941,3556011,-19667.17,187.26,1263.5500000000002
1843,1.843001,1942,3557011,-9964.17,-315.74,2788.55
1844,1.844001,1943,3558011,2442.83,159.26,2758.55
1845,1.845001,1944,3559011,6111.83,-40.74,473.5500000000002
1846,1.846000,1945,3560010,6039.83,-31.740000000000002,-490.4499999999998
1847,1.847001,1946,3561011,3617.83,1002.26,-1940.4499999999998
1848,1.848001,1947,3562011,6079.83,1107.26,-3286.45
1849,1.849001,1948,3563011,8489.83,485.26,-3447.45
1850,1.850001,1949,3564011,7551.83,-639.74,-2495.45
1851,1.851001,1950,3565011,1846.83,-408.74,-2560.45
1852,1.852001,1951,3566011,-4881.17,461.26,-4004.45
1853,1.853001,1952,3567011,642.83,54.26,-4322.45
1854,1.854000,1953,3568010,10924.83,98.26,-5152.45
1855,1.855001,1954,3569011,19040.83,16.259999999999998,-3217.45
1856,1.856001,1955,3570011,18550.83,-213.74,-150.44999999999982
1857,1.857001,1956,3571011,5841.83,713.26,-525.4499999999998
1858,1.858001,1957,3572011,-6782.17,1086.26,1123.5500000000002
1859,1.859001,1958,3573011,-9640.17,315.26,4304.55
1860,1.860001,1959,3574011,-4315.17,-244.74,4174.55
1861,1.861000,1960,3575010,2195.83,-688.74,3561.55
1862,1.862001,1961,3576011,4437.83,-829.74,3460.55
1863,1.863001,1962,3577011,-905.17,-93.74,1151.5500000000002
1864,1.864001,1963,3578011,-6691.17,-142.74,840.5500000000002
1865,1.865001,1964,3579011,-16769.17,-898.74,2845.55
1866,1.866001,1965,3580011,-22187.17,-839.74,2661.55
1867,1.867001,1966,3581011,-20160.17,17.259999999999998,1411.5500000000002
1868,1.868001,1967,3582011,-12114.17,-97.74,2423.55
1869,1.869001,1968,3583011,721.83,-47.74,2997.55
1870,1.870001,1969,3584011,6098.83,-46.74,681.5500000000002
1871,1.871001,1970,3585011,7044.83,-88.74,-539.4499999999998
1872,1.872001,1971,3586011,3908.83,805.26,-1636.4499999999998
1873,1.873000,1972,3587010,5321.83,1141.26,-3104.45
1874,1.874001,1973,3588011,8476.83,637.26,-3613.45
1875,1.875001,1974,3589011,7879.83,-507.74,-2857.45
1876,1.876001,1975,3590011,2606.83,-456.74,-2481.45
1877,1.877000,1976,3591010,-4983.17,302.26,-3670.45
1878,1.878000,1977,3592010,-233.17000000000002,73.26,-4180.45
1879,1.879001,1978,3593011,9966.83,218.26,-5262.45
1880,1.880001,1979,3594011,18125.83,-10.74,-3538.45
1881,1.881001,1980,3595011,19124.83,-205.74,-292.4499999999998
1882,1.882000,1981,3596010,7743.83,623.26,-584.4499999999998
1883,1.883001,1982,3597011,-5629.17,1035.26,640.5500000000002
1884,1.884001,1983,3598011,-9686.17,473.26,4111.55
1885,1.885001,1984,3599011,-5321.17,-100.74,4175.55
1886,1.886001,1985,3600011,1501.83,-691.74,3495.55
1887,1.887001,1986,3601011,4898.83,-972.74,3777.55
1888,1.888001,1987,3602011,463.83,-182.74,1536.5500000000002
1889,1.889001,1988,3603011,-5353.17,-72.74,560.5500000000002
1890,1.890001,1989,3604011,-16648.17,-650.74,2428.55
1891,1.891001,1990,3605011,-23004.17,-961.74,2755.55
1892,1.892001,1991,3606011,-19709.17,-212.74,1433.5500000000002
1893,1.893001,1992,3607011,-12952.17,-94.74,2353.55
1894,1.894001,1993,3608011,-904.17,-50.74,3172.55
1895,1.895001,1994,3609011,5762.83,-15.74,1057.5500000000002
1896,1.896001,1995,3610011,6952.83,-146.74,-249.44999999999982
1897,1.897000,1996,3611010,4027.83,838.26,-1466.4499999999998
1898,1.898001,1997,3612011,4789.83,1169.26,-2913.45
1899,1.899001,1998,3613011,8458.83,657.26,-3382.45
1900,1.900001,1999,3614011,8011.83,-266.74,-2979.45
1901,1.901000,2000,3615010,3439.83,-489.74,-2430.45
1902,1.902001,2001,3616011,-4129.17,7.26,-3437.45
1903,1.903001,2002,3617011,-1560.17,210.26,-4207.45
1904,1.904001,2003,3618011,8358.83,240.26,-5217.45
1905,1.905001,2004,3619011,17090.83,3.26,-4117.45
1906,1.906001,2005,3620011,19475.83,-192.74,-639.4499999999998
1907,1.907001,2006,3621011,10217.83,435.26,-358.4499999999998
1908,1.908001,2007,3622011,-3484.17,1081.26,222.55000000000018
1909,1.909001,2008,3623011,-9975.17,642.26,3561.55
1910,1.910001,2009,3624011,-6500.17,-78.74,4330.55
1911,1.911001,2010,3625011,357.83,-613.74,3473.55
1912,1.912001,2011,3626011,4756.83,-989.74,3723.55
1913,1.913001,2012,3627011,1631.83,-300.74,1944.5500000000002
1914,1.914001,2013,3628011,-3809.17,115.26,340.5500000000002
1915,1.915001,2014,3629011,-14550.17,-501.74,2200.55
1916,1.916001,2015,3630011,-23178.17,-1099.74,3052.55
1917,1.917001,2016,3631011,-20041.17,-404.74,1619.5500000000002
1918,1.918001,2017,3632011,-14270.17,-96.74,1972.5500000000002
1919,1.919001,2018,3633011,-3464.17,-75.74,3318.55
1920,1.920001,2019,3634011,4960.83,101.26,1415.5500000000002
1921,1.921001,2020,3635011,7204.83,-187.74,-414.4499999999998
1922,1.922000,2021,3636010,4861.83,573.26,-1144.4499999999998
1923,1.923001,2022,3637011,4621.83,1117.26,-2582.45
1924,1.924000,2023,3638010,7805.83,822.26,-3469.45
1925,1.925001,2024,3639011,7861.83,-149.74,-3177.45
1926,1.926001,2025,3640011,4224.83,-653.74,-2263.45
1927,1.927001,2026,3641011,-2761.17,-105.74,-3012.45
1928,1.928001,2027,3642011,-2480.17,370.26,-4091.45
1929,1.929001,2028,3643011,6376.83,260.26,-5218.45
1930,1.930001,2029,3644011,16325.83,-17.740000000000002,-4409.45
1931,1.931001,2030,3645011,19683.83,-187.74,-961.4499999999998
1932,1.932001,2031,3646011,12137.83,302.26,-347.4499999999998
1933,1.933001,2032,3647011,-2003.17,1074.26,-306.4499999999998
1934,1.934001,2033,3648011,-9796.17,802.26,3079.55
1935,1.935001,2034,3649011,-6965.17,-51.74,4515.55
1936,1.936001,2035,3650011,-619.17,-610.74,3429.55
1937,1.937001,2036,3651011,5116.83,-871.74,3791.55
1938,1.938001,2037,3652011,2542.83,-447.74,2421.55
1939,1.939001,2038,3653011,-3852.17,192.26,230.55000000000018
1940,1.940001,2039,3654011,-12622.17,-367.74,1839.5500000000002
1941,1.941001,2040,3655011,-22896.17,-1137.74,3161.55
1942,1.942001,2041,3656011,-20552.17,-459.74,1917.5500000000002
1943,1.943001,2042,3657011,-15041.17,-204.74,1803.5500000000002
1944,1.944001,2043,3658011,-4634.17,-38.74,3318.55
1945,1.945001,2044,3659011,4083.83,234.26,1854.5500000000002
1946,1.946001,2045,3660011,6454.83,-219.74,-243.44999999999982
1947,1.947001,2046,3661011,5402.83,449.26,-877.4499999999998
1948,1.948001,2047,3662011,3822.83,1106.26,-2501.45
1949,1.949001,2048,3663011,8159.83,942.26,-3358.45
1950,1.950001,2049,3664011,7730.83,68.26,-3216.45
1951,1.951001,2050,3665011,5396.83,-680.74,-2364.45
1952,1.952001,2051,3666011,-1029.17,-158.74,-2984.45
1953,1.953001,2052,3667011,-3964.17,378.26,-4154.45
1954,1.954001,2053,3668011,4089.83,286.26,-4993.45
1955,1.955001,2054,3669011,14529.83,18.259999999999998,-4853.45
1956,1.956001,2055,3670011,20631.83,-306.74,-1461.4499999999998
1957,1.957001,2056,3671011,14687.83,201.26,-243.44999999999982
1958,1.958001,2057,3672011,234.82999999999998,1027.26,-460.4499999999998
1959,1.959000,2058,3673010,-9620.17,838.26,2611.55
1960,1.960001,2059,3674011,-8364.17,46.26,4591.55
1961,1.961001,2060,3675011,-1596.17,-470.74,3751.55
1962,1.962001,2061,3676011,4301.83,-884.74,3590.55
1963,1.963001,2062,3677011,3517.83,-571.74,2720.55
1964,1.964001,2063,3678011,-3467.17,173.26,367.5500000000002
1965,1.965001,2064,3679011,-10018.17,-301.74,1435.5500000000002
1966,1.966001,2065,3680011,-20652.17,-1187.74,3482.55
1967,1.967001,2066,3681011,-21654.17,-572.74,2188.55
1968,1.968001,2067,3682011,-16738.17,-74.74,1383.5500000000002
1969,1.969001,2068,3683011,-7242.17,-249.74,3163.55
1970,1.970001,2069,3684011,3635.83,301.26,2198.55
1971,1.971001,2070,3685011,6558.83,-109.74,-76.44999999999982
1972,1.972001,2071,3686011,5674.83,84.26,-835.4499999999998
1973,1.973001,2072,3687011,3953.83,1035.26,-2219.45
1974,1.974000,2073,3688010,7068.83,1064.26,-3304.45
1975,1.975001,2074,3689011,7868.83,240.26,-3451.45
1976,1.976001,2075,3690011,6424.83,-715.74,-2321.45
1977,1.977001,2076,3691011,104.83,-301.74,-2635.45
1978,1.978001,2077,3692011,-4488.17,448.26,-3961.45
1979,1.979000,2078,3693010,2164.83,281.26,-4787.45
1980,1.980001,2079,3694011,12902.83,18.259999999999998,-5086.45
1981,1.981001,2080,3695011,20692.83,-345.74,-1856.4499999999998
1982,1.982001,2081,3696011,16743.83,42.26,-135.44999999999982
1983,1.983001,2082,3697011,2117.83,993.26,-914.4499999999998
1984,1.984000,2083,3698010,-9064.17,962.26,2151.55
1985,1.985000,2084,3699010,-9282.17,149.26,4690.55
1986,1.986001,2085,3700011,-2127.17,-353.74,3636.55
1987,1.987001,2086,3701011,3956.83,-871.74,3607.55
1988,1.988000,2087,3702010,4088.83,-765.74,3154.55
1989,1.989001,2088,3703011,-2525.17,130.26,576.5500000000002
1990,1.990001,2089,3704011,-9561.17,-187.74,946.5500000000002
1991,1.991001,2090,3705011,-18851.17,-1206.74,3184.55
1992,1.992001,2091,3706011,-21538.17,-651.74,2449.55
1993,1.993001,2092,3707011,-18689.17,58.26,1308.5500000000002
1994,1.994001,2093,3708011,-8720.17,-276.74,2847.55
1995,1.995000,2094,3709010,3048.83,298.26,2542.55
1996,1.996001,2095,3710011,6001.83,-56.74,373.5500000000002
1997,1.997001,2096,3711011,5894.83,-5.74,-623.4499999999998
1998,1.998001,2097,3712011,3612.83,1054.26,-2087.45
1999,1.999001,2098,3713011,6278.83,1109.26,-3217.45
2000,2.000001,2099,3714011,8550.83,366.26,-3285.45
2001,2.001001,2100,3715011,7246.83,-646.74,-2520.45
2002,2.002001,2101,3716011,1416.83,-374.74,-2689.45
2003,2.003001,2102,3717011,-4953.17,444.26,-3882.45
2004,2.004000,2103,3718010,649.83,235.26,-4424.45
2005,2.005001,2104,3719011,11481.83,97.26,-5236.45
2006,2.006000,2105,3720010,19869.83,-164.74,-2816.45
2007,2.007001,2106,3721011,18289.83,-147.74,-44.44999999999982
2008,2.008001,2107,3722011,4804.83,762.26,-614.4499999999998
2009,2.009001,2108,3723011,-7812.17,1116.26,1340.5500000000002
2010,2.010001,2109,3724011,-9777.17,200.26,4361.55
2011,2.011001,2110,3725011,-3758.17,-399.74,4069.55
2012,2.012001,2111,3726011,2577.83,-671.74,3549.55
2013,2.013000,2112,3727010,4630.83,-793.74,3280.55
2014,2.014000,2113,3728010,-1057.17,-52.74,988.5500000000002
2015,2.015001,2114,3729011,-7585.17,-141.74,981.5500000000002
2016,2.016000,2115,3730010,-17243.17,-1049.74,2965.55
2017,2.017000,2116,3731010,-21753.17,-841.74,2601.55
2018,2.018001,2117,3732011,-20236.17,69.26,1377.5500000000002
2019,2.019001,2118,3733011,-11196.17,-111.74,2586.55
2020,2.020001,2119,3734011,1716.83,58.26,2799.55
2021,2.021001,2120,3735011,6349.83,-17.740000000000002,436.5500000000002
2022,2.022001,2121,3736011,6625.83,17.259999999999998,-399.4499999999998
2023,2.023000,2122,3737010,3574.83,839.26,-1637.4499999999998
2024,2.024001,2123,3738011,5709.83,1114.26,-3165.45
2025,2.025001,2124,3739011,8206.83,521.26,-3513.45
2026,2.026001,2125,3740011,7730.83,-572.74,-2630.45
2027,2.027001,2126,3741011,2495.83,-409.74,-2393.45
2028,2.028001,2127,3742011,-5269.17,373.26,-3872.45
2029,2.029001,2128,3743011,53.83,163.26,-4343.45
2030,2.030001,2129,3744011,10304.83,161.26,-5138.45
2031,2.031001,2130,3745011,18799.83,-66.74,-3210.45
2032,2.032001,2131,3746011,19261.83,-161.74,-240.44999999999982
2033,2.033001,2132,3747011,6660.83,679.26,-778.4499999999998
2034,2.034001,2133,3748011,-6375.17,1052.26,918.5500000000002
2035,2.035000,2134,3749010,-9956.17,404.26,4316.55
2036,2.036001,2135,3750011,-4533.17,-229.74,4042.55
2037,2.037001,2136,3751011,1743.83,-667.74,3371.55
2038,2.038000,2137,3752010,4962.83,-933.74,3742.55
2039,2.039000,2138,3753010,59.83,-176.74,1438.5500000000002
2040,2.040001,2139,3754011,-6256.17,-65.74,411.5500000000002
2041,2.041001,2140,3755011,-16625.17,-764.74,2558.55
2042,2.042001,2141,3756011,-22743.17,-978.74,2765.55
2043,2.043001,2142,3757011,-19548.17,-57.74,1432.5500000000002
2044,2.044001,2143,3758011,-12554.17,-93.74,2388.55
2045,2.045001,2144,3759011,-165.17000000000002,-60.74,2998.55
2046,2.046001,2145,3760011,6160.83,51.26,1067.5500000000002
2047,2.047001,2146,3761011,6619.83,-179.74,-236.44999999999982
2048,2.048001,2147,3762011,3794.83,850.26,-1577.4499999999998
2049,2.049001,2148,3763011,5092.83,1177.26,-2895.45
2050,2.050001,2149,3764011,8295.83,565.26,-3364.45
2051,2.051001,2150,3765011,8263.83,-366.74,-2881.45
2052,2.052001,2151,3766011,2897.83,-478.74,-2559.45
2053,2.053000,2152,3767010,-4682.17,98.26,-3579.45
2054,2.054001,2153,3768011,-821.17,170.26,-4078.45
2055,2.055001,2154,3769011,8695.83,275.26,-5346.45
2056,2.056001,2155,3770011,17906.83,25.259999999999998,-3890.45
2057,2.057001,2156,3771011,19408.83,-276.74,-392.4499999999998
2058,2.058001,2157,3772011,9086.83,516.26,-596.4499999999998
2059,2.059001,2158,3773011,-4028.17,1086.26,455.5500000000002
2060,2.060001,2159,3774011,-10365.17,484.26,3900.55
2061,2.061001,2160,3775011,-5824.17,-66.74,4244.55
2062,2.062001,2161,3776011,611.83,-615.74,3348.55
2063,2.063001,2162,3777011,4531.83,-999.74,3724.55
2064,2.064001,2163,3778011,1706.83,-212.74,1889.5500000000002
2065,2.065001,2164,3779011,-4232.17,-0.7400000000000002,388.5500000000002
2066,2.066001,2165,3780011,-15394.17,-568.74,2349.55
2067,2.067001,2166,3781011,-23324.17,-1036.74,2941.55
2068,2.068001,2167,3782011,-19802.17,-381.74,1556.5500000000002
2069,2.069001,2168,3783011,-14108.17,-85.74,2114.55
2070,2.070001,2169,3784011,-2473.17,11.26,3209.55
2071,2.071001,2170,3785011,5521.83,12.26,1302.5500000000002
2072,2.072001,2171,3786011,7198.83,-229.74,-383.4499999999998
2073,2.073001,2172,3787011,4600.83,687.26,-1309.4499999999998
2074,2.074000,2173,3788010,4476.83,1122.26,-2729.45
2075,2.075001,2174,3789011,8284.83,779.26,-3372.45
2076,2.076000,2175,3790010,7794.83,-205.74,-3060.45
2077,2.077001,2176,3791011,4199.83,-559.74,-2264.45
2078,2.078001,2177,3792011,-3700.17,-51.74,-3125.45
2079,2.079001,2178,3793011,-2472.17,277.26,-4177.45
2080,2.080001,2179,3794011,7191.83,308.26,-5292.45
2081,2.081001,2180,3795011,16460.83,-37.74,-4259.45
2082,2.082001,2181,3796011,20409.83,-234.74,-628.4499999999998
2083,2.083001,2182,3797011,11389.83,404.26,-440.4499999999998
2084,2.084001,2183,3798011,-2787.17,1068.26,-184.44999999999982
2085,2.085001,2184,3799011,-9870.17,699.26,3474.55
2086,2.086001,2185,3800011,-7218.17,-35.74,4367.55
2087,2.087001,2186,3801011,-6.170000000000002,-622.74,3398.55
2088,2.088000,2187,3802010,5205.83,-1029.74,3890.55
2089,2.089001,2188,3803011,2348.83,-374.74,2256.55
2090,2.090001,2189,3804011,-3744.17,198.26,201.55000000000018
2091,2.091001,2190,3805011,-13794.17,-389.74,1811.5500000000002
2092,2.092001,2191,3806011,-23043.17,-1113.74,3123.55
2093,2.093001,2192,3807011,-20341.17,-493.74,1824.5500000000002
2094,2.094001,2193,3808011,-14308.17,-179.74,1936.5500000000002
2095,2.095001,2194,3809011,-4255.17,-101.74,3363.55
2096,2.096001,2195,3810011,4476.83,222.26,1653.5500000000002
2097,2.097001,2196,3811011,6789.83,-181.74,-154.44999999999982
2098,2.098001,2197,3812011,4627.83,417.26,-1017.4499999999998
2099,2.099001,2198,3813011,4256.83,1163.26,-2671.45
2100,2.100001,2199,3814011,7842.83,911.26,-3313.45
2101,2.101001,2200,3815011,8010.83,-77.74,-3169.45
2102,2.102000,2201,3816010,5237.83,-643.74,-2394.45
2103,2.103001,2202,3817011,-1863.17,-196.74,-3054.45
2104,2.104001,2203,3818011,-3596.17,401.26,-4135.45
2105,2.105000,2204,3819010,4454.83,309.26,-5051.45
2106,2.106001,2205,3820011,15257.83,48.26,-4718.45
2107,2.107000,2206,3821010,20659.83,-212.74,-1252.4499999999998
2108,2.108001,2207,3822011,13912.83,129.26,-188.44999999999982
2109,2.109000,2208,3823010,-303.17,1080.26,-361.4499999999998
2110,2.110001,2209,3824011,-9756.17,877.26,2904.55
2111,2.111001,2210,3825011,-8175.17,-52.74,4597.55
2112,2.112000,2211,3826010,-1357.17,-476.74,3538.55
2113,2.113001,2212,3827011,4272.83,-859.74,3701.55
2114,2.114001,2213,3828011,3495.83,-576.74,2616.55
2115,2.115001,2214,3829011,-3314.17,221.26,151.55000000000018
2116,2.116001,2215,3830011,-10776.17,-370.74,1548.5500000000002
2117,2.117001,2216,3831011,-21318.17,-1198.74,3470.55
2118,2.118001,2217,3832011,-21521.17,-531.74,1982.5500000000002
2119,2.119001,2218,3833011,-16317.17,-157.74,1389.5500000000002
2120,2.120001,2219,3834011,-6662.17,-159.74,3252.55
2121,2.121001,2220,3835011,3899.83,340.26,2156.55
2122,2.122001,2221,3836011,6953.83,-179.74,-106.44999999999982
2123,2.123001,2222,3837011,5559.83,237.26,-897.4499999999998
2124,2.124001,2223,3838011,3978.83,1113.26,-2268.45
2125,2.125001,2224,3839011,7388.83,952.26,-3270.45
2126,2.126001,2225,3840011,7398.83,237.26,-3538.45
2127,2.127001,2226,3841011,6035.83,-702.74,-2323.45
2128,2.128001,2227,3842011,-220.17000000000002,-311.74,-2679.45
2129,2.129000,2228,3843010,-4212.17,490.26,-4110.45
2130,2.130001,2229,3844011,2691.83,296.26,-4927.45
2131,2.131001,2230,3845011,13596.83,-21.740000000000002,-5017.45
2132,2.132001,2231,3846011,20571.83,-238.74,-1700.4499999999998
2133,2.133001,2232,3847011,15800.83,141.26,-171.44999999999982
2134,2.134001,2233,3848011,1720.83,994.26,-701.4499999999998
2135,2.135000,2234,3849010,-9249.17,1040.26,2322.55
2136,2.136000,2235,3850010,-8521.17,66.26,4747.55
2137,2.137001,2236,3851011,-2141.17,-410.74,3662.55
2138,2.138000,2237,3852010,4172.83,-845.74,3596.55
2139,2.139000,2238,3853010,3726.83,-722.74,2991.55
2140,2.140001,2239,3854011,-3003.17,139.26,384.5500000000002
2141,2.141001,2240,3855011,-9296.17,-243.74,1097.5500000000002
2142,2.142000,2241,3856010,-19593.17,-1212.74,3192.55
2143,2.143000,2242,3857010,-21300.17,-678.74,2416.55
