row,seconds,esp32_index,micros,ax,ay,az
0,0.000000,99,1714006,4267.78,542.89,-1150.1099999999997
1,0.001000,100,1715006,3061.78,1261.89,-3088.1099999999997
2,0.002000,101,1716006,7105.78,582.89,-3532.1099999999997
3,0.002999,102,1717005,8121.78,213.89,-2754.1099999999997
4,0.004000,103,1718006,6356.78,-453.11,-1840.1099999999997
5,0.005000,104,1719006,-1501.22,-422.11,-2475.1099999999997
6,0.005999,105,1720005,-3311.22,499.89,-3639.1099999999997
7,0.007000,106,1721006,4636.78,511.89,-4737.11
8,0.008000,107,1722006,14481.78,-74.11,-4250.11
9,0.009000,108,1723006,21175.78,-424.11,-830.1099999999997
10,0.010000,109,1724006,13602.78,363.89,-879.1099999999997
11,0.011000,110,1725006,408.78,831.89,-830.1099999999997
12,0.012000,111,1726006,-10025.22,623.89,2787.8900000000003
13,0.013000,112,1727006,-9488.22,-27.11,3981.8900000000003
14,0.014000,113,1728006,-2596.22,-517.11,2745.8900000000003
15,0.015000,114,1729006,3439.78,-696.11,3606.8900000000003
16,0.016000,115,1730006,4544.78,-723.11,3219.8900000000003
17,0.017000,116,1731006,-1277.22,-83.11,246.89000000000033
18,0.018000,117,1732006,-9052.22,-129.11,1084.8900000000003
19,0.019000,118,1733006,-20552.22,-1092.11,2742.8900000000003
20,0.020000,119,1734006,-21301.22,-385.11,2145.8900000000003
21,0.021000,120,1735006,-16079.22,46.89,1516.8900000000003
22,0.022000,121,1736006,-7346.22,-36.11,2848.8900000000003
23,0.022999,122,1737005,3388.78,152.89,2236.8900000000003
24,0.024000,123,1738006,7322.78,-452.11,270.8900000000003
25,0.025000,124,1739006,4862.78,372.89,-710.1099999999997
26,0.026000,125,1740006,3345.78,1058.89,-2721.1099999999997
27,0.027000,126,1741006,6132.78,900.89,-3724.1099999999997
28,0.028000,127,1742006,8202.78,308.89,-2927.1099999999997
29,0.028999,128,1743005,7006.78,-528.11,-1689.1099999999997
30,0.029999,129,1744005,-280.22,-85.11,-2632.1099999999997
31,0.031000,130,1745006,-3988.22,522.89,-3633.1099999999997
32,0.032000,131,1746006,2663.78,149.89,-4436.11
33,0.032999,132,1747005,13438.78,65.89,-4471.11
34,0.034000,133,1748006,21177.78,-215.11,-1204.1099999999997
35,0.035000,134,1749006,15870.78,-14.11,-760.1099999999997
36,0.035999,135,1750005,1764.78,978.89,-1120.1099999999997
37,0.036999,136,1751005,-9327.22,710.89,2591.8900000000003
38,0.038000,137,1752006,-10336.22,42.89,3881.8900000000003
39,0.038999,138,1753005,-3421.22,-298.11,2592.8900000000003
40,0.039999,139,1754005,3400.78,-983.11,3909.8900000000003
41,0.040999,140,1755005,4693.78,-606.11,3427.8900000000003
42,0.042000,141,1756006,-1416.22,23.89,386.8900000000003
43,0.043000,142,1757006,-7961.22,-306.11,1009.8900000000003
44,0.044000,143,1758006,-18620.22,-832.11,2629.8900000000003
45,0.044999,144,1759005,-21101.22,-461.11,2327.8900000000003
46,0.046000,145,1760006,-17728.22,-19.11,1781.8900000000003
47,0.046999,146,1761005,-8291.22,-315.11,2601.8900000000003
48,0.048000,147,1762006,3372.78,217.89,2406.8900000000003
49,0.049000,148,1763006,6260.78,43.89,680.8900000000003
50,0.050000,149,1764006,5003.78,1.8900000000000006,-744.1099999999997
51,0.051000,150,1765006,3092.78,973.89,-2937.1099999999997
52,0.051999,151,1766005,6083.78,974.89,-3693.1099999999997
53,0.053000,152,1767006,8150.78,136.89,-2803.1099999999997
54,0.054000,153,1768006,7291.78,-434.11,-2049.1099999999997
55,0.055000,154,1769006,861.78,-344.11,-2411.1099999999997
56,0.055999,155,1770005,-4390.22,488.89,-3551.1099999999997
57,0.057000,156,1771006,1448.78,511.89,-4247.11
58,0.057999,157,1772005,12173.78,-16.11,-4423.11
59,0.059000,158,1773006,20791.78,-347.11,-1806.1099999999997
60,0.060000,159,1774006,17476.78,-2.1099999999999994,-517.1099999999997
61,0.061000,160,1775006,3313.78,999.89,-1174.1099999999997
62,0.062000,161,1776006,-8290.22,641.89,1903.8900000000003
63,0.062999,162,1777005,-10679.22,59.89,3939.8900000000003
64,0.064000,163,1778006,-4537.22,-134.11,2910.8900000000003
65,0.065000,164,1779006,2746.78,-935.11,3583.8900000000003
66,0.066000,165,1780006,4432.78,-757.11,3367.8900000000003
67,0.067000,166,1781006,-195.22,-2.1099999999999994,689.8900000000003
68,0.067999,167,1782005,-6150.22,-143.11,816.8900000000003
69,0.068999,168,1783005,-16741.22,-1010.11,2607.8900000000003
70,0.070000,169,1784006,-21124.22,-572.11,2279.8900000000003
71,0.071000,170,1785006,-19886.22,144.89,1520.8900000000003
72,0.072000,171,1786006,-10559.22,-337.11,2149.8900000000003
73,0.072999,172,1787005,2738.78,151.89,2780.8900000000003
74,0.073999,173,1788005,6252.78,11.89,979.8900000000003
75,0.075000,174,1789006,6110.78,-62.11,-515.1099999999997
76,0.076000,175,1790006,3338.78,886.89,-2238.1099999999997
77,0.077000,176,1791006,4894.78,1056.89,-3787.1099999999997
78,0.078000,177,1792006,7615.78,463.89,-3007.1099999999997
79,0.078999,178,1793005,7185.78,-101.11,-2205.1099999999997
80,0.080000,179,1794006,2112.78,-401.11,-2273.1099999999997
81,0.081000,180,1795006,-4009.22,-31.11,-3228.1099999999997
82,0.082000,181,1796006,696.78,319.89,-3908.1099999999997
83,0.083000,182,1797006,10999.78,185.89,-4531.11
84,0.084000,183,1798006,19645.78,-349.11,-2283.1099999999997
85,0.084999,184,1799005,18113.78,-67.11,-510.1099999999997
86,0.086000,185,1800006,5517.78,886.89,-1400.1099999999997
87,0.087000,186,1801006,-7184.22,958.89,1306.8900000000003
88,0.087999,187,1802005,-10087.22,93.89,4176.89
89,0.089000,188,1803006,-5106.22,-333.11,2897.8900000000003
90,0.090000,189,1804006,1296.78,-689.11,3148.8900000000003
91,0.091000,190,1805006,4657.78,-1012.11,3940.8900000000003
92,0.092000,191,1806006,325.78,-33.11,978.8900000000003
93,0.092999,192,1807005,-5047.22,-0.10999999999999943,603.8900000000003
94,0.094000,193,1808006,-15362.22,-1022.11,2288.8900000000003
95,0.095000,194,1809006,-21313.22,-671.11,2151.8900000000003
96,0.095999,195,1810005,-20237.22,-25.11,2031.8900000000003
97,0.096999,196,1811005,-12158.22,-201.11,2376.8900000000003
98,0.097999,197,1812005,1078.78,-42.11,2666.8900000000003
99,0.099000,198,1813006,6348.78,9.89,1151.8900000000003
100,0.100000,199,1814006,6246.78,151.89,-171.10999999999967
101,0.101000,200,1815006,3324.78,842.89,-2052.1099999999997
102,0.102000,201,1816006,4785.78,1095.89,-3698.1099999999997
103,0.102999,202,1817005,7595.78,606.89,-3119.1099999999997
104,0.104000,203,1818006,7879.78,-333.11,-2231.1099999999997
105,0.105000,204,1819006,3009.78,-617.11,-2232.1099999999997
106,0.106000,205,1820006,-4428.22,167.89,-3106.1099999999997
107,0.106999,206,1821005,-25.22,417.89,-3830.1099999999997
108,0.108000,207,1822006,9486.78,418.89,-4905.11
109,0.109000,208,1823006,18775.78,-275.11,-2752.1099999999997
110,0.109999,209,1824005,19365.78,-234.11,-508.1099999999997
111,0.111000,210,1825006,7235.78,846.89,-1335.1099999999997
112,0.112000,211,1826006,-5872.22,855.89,914.8900000000003
113,0.113000,212,1827006,-10368.22,176.89,4014.8900000000003
114,0.114000,213,1828006,-6240.22,-31.11,3097.8900000000003
115,0.115000,214,1829006,600.78,-809.11,3149.8900000000003
116,0.116000,215,1830006,4876.78,-1072.11,4096.89
117,0.116999,216,1831005,1447.78,103.89,1446.8900000000003
118,0.118000,217,1832006,-2979.22,-203.11,574.8900000000003
119,0.119000,218,1833006,-14875.22,-708.11,2078.8900000000003
120,0.120000,219,1834006,-22092.22,-846.11,2261.8900000000003
121,0.120999,220,1835005,-20629.22,-17.11,1732.8900000000003
122,0.121999,221,1836005,-14013.22,60.89,2095.8900000000003
123,0.123000,222,1837006,-304.22,-415.11,2768.8900000000003
124,0.123999,223,1838005,6139.78,71.89,955.8900000000003
125,0.124999,224,1839005,7114.78,21.89,-43.10999999999967
126,0.126000,225,1840006,3574.78,670.89,-1521.1099999999997
127,0.126999,226,1841005,3761.78,1176.89,-3569.1099999999997
128,0.127999,227,1842005,7665.78,553.89,-3264.1099999999997
129,0.129000,228,1843006,8260.78,-269.11,-2303.1099999999997
130,0.130000,229,1844006,3900.78,-229.11,-1920.1099999999997
131,0.131000,230,1845006,-4077.22,86.89,-2854.1099999999997
132,0.132000,231,1846006,-820.22,170.89,-3755.1099999999997
133,0.133000,232,1847006,8514.78,433.89,-5060.11
134,0.134000,233,1848006,17814.78,-103.11,-3049.1099999999997
135,0.135000,234,1849006,19368.78,-302.11,-626.1099999999997
136,0.136000,235,1850006,9126.78,298.89,-1442.1099999999997
137,0.137000,236,1851006,-3829.22,928.89,505.8900000000003
138,0.138000,237,1852006,-10535.22,639.89,3743.8900000000003
139,0.139000,238,1853006,-6780.22,-134.11,3222.8900000000003
140,0.140000,239,1854006,-564.22,-626.11,2851.8900000000003
141,0.141000,240,1855006,4577.78,-1177.11,4351.89
142,0.142000,241,1856006,2420.78,-263.11,1856.8900000000003
143,0.142999,242,1857005,-2610.22,242.89,-44.10999999999967
144,0.144000,243,1858006,-13543.22,-533.11,2040.8900000000003
145,0.145000,244,1859006,-22261.22,-946.11,2627.8900000000003
146,0.146000,245,1860006,-19566.22,-175.11,1810.8900000000003
147,0.147000,246,1861006,-14405.22,-328.11,2153.8900000000003
148,0.148000,247,1862006,-3118.22,-31.11,2933.8900000000003
149,0.148999,248,1863005,5563.78,332.89,1524.8900000000003
150,0.150000,249,1864006,6948.78,-250.11,109.89000000000033
151,0.151000,250,1865006,3932.78,681.89,-1437.1099999999997
152,0.152000,251,1866006,3414.78,1001.89,-3308.1099999999997
153,0.153000,252,1867006,7725.78,770.89,-3371.1099999999997
154,0.154000,253,1868006,8682.78,76.89,-2638.1099999999997
155,0.155000,254,1869006,4681.78,-454.11,-2144.1099999999997
156,0.155999,255,1870005,-3551.22,-39.11,-2943.1099999999997
157,0.157000,256,1871006,-1895.22,65.89,-3581.1099999999997
158,0.157999,257,1872005,6991.78,383.89,-4757.11
159,0.158999,258,1873005,16186.78,77.89,-3746.1099999999997
160,0.159999,259,1874005,20154.78,-312.11,-745.1099999999997
161,0.161000,260,1875006,11352.78,319.89,-1053.1099999999997
162,0.162000,261,1876006,-1701.22,861.89,-208.10999999999967
163,0.163000,262,1877006,-10318.22,593.89,3417.8900000000003
164,0.164000,263,1878006,-8613.22,-65.11,3623.8900000000003
165,0.165000,264,1879006,-1700.22,-576.11,2918.8900000000003
166,0.166000,265,1880006,4530.78,-971.11,4182.89
167,0.167000,266,1881006,3467.78,-271.11,2277.8900000000003
168,0.168000,267,1882006,-1547.22,-49.11,157.89000000000033
169,0.169000,268,1883006,-11171.22,-453.11,1657.8900000000003
170,0.169999,269,1884005,-22204.22,-600.11,2389.8900000000003
171,0.171000,270,1885006,-20411.22,-507.11,1886.8900000000003
172,0.172000,271,1886006,-15189.22,-148.11,1960.8900000000003
173,0.173000,272,1887006,-5544.22,283.89,2865.8900000000003
174,0.174000,273,1888006,4950.78,-60.11,1818.8900000000003
175,0.175000,274,1889006,7776.78,-459.11,192.89000000000033
176,0.175999,275,1890005,4554.78,591.89,-1018.1099999999997
177,0.176999,276,1891005,3088.78,1128.89,-3104.1099999999997
178,0.177999,277,1892005,6497.78,699.89,-3617.1099999999997
179,0.179000,278,1893006,8318.78,34.89,-2647.1099999999997
180,0.180000,279,1894006,5903.78,-357.11,-1814.1099999999997
181,0.180999,280,1895005,-1944.22,-214.11,-2547.1099999999997
182,0.181999,281,1896005,-2880.22,267.89,-3711.1099999999997
183,0.183000,282,1897006,4788.78,391.89,-4695.11
184,0.183999,283,1898005,14872.78,-22.11,-3968.1099999999997
185,0.185000,284,1899006,20400.78,-95.11,-1207.1099999999997
186,0.185999,285,1900005,13373.78,358.89,-1047.1099999999997
187,0.187000,286,1901006,401.78,752.89,-407.1099999999997
188,0.188000,287,1902006,-9466.22,593.89,3156.8900000000003
189,0.189000,288,1903006,-9003.22,-53.11,3717.8900000000003
190,0.190000,289,1904006,-2946.22,-467.11,2689.8900000000003
191,0.191000,290,1905006,3722.78,-969.11,4015.8900000000003
192,0.192000,291,1906006,4008.78,-536.11,2804.8900000000003
193,0.193000,292,1907006,-1968.22,109.89,54.89000000000033
194,0.194000,293,1908006,-8673.22,-453.11,1418.8900000000003
195,0.195000,294,1909006,-20604.22,-677.11,2528.8900000000003
196,0.195999,295,1910005,-21052.22,-478.11,2042.8900000000003
197,0.197000,296,1911006,-16146.22,-261.11,1872.8900000000003
198,0.197999,297,1912005,-7515.22,71.89,2670.8900000000003
199,0.198999,298,1913005,4285.78,17.89,2331.8900000000003
200,0.199999,299,1914005,7277.78,-109.11,370.8900000000003
201,0.201000,300,1915006,4939.78,554.89,-812.1099999999997
202,0.202000,301,1916006,3479.78,1036.89,-2650.1099999999997
203,0.202999,302,1917005,6313.78,834.89,-3618.1099999999997
204,0.203999,303,1918005,7845.78,164.89,-2811.1099999999997
205,0.205000,304,1919006,6606.78,-487.11,-1918.1099999999997
206,0.205999,305,1920005,-545.22,-302.11,-2620.1099999999997
207,0.207000,306,1921006,-4101.22,490.89,-3777.1099999999997
208,0.208000,307,1922006,3005.78,373.89,-4465.11
209,0.209000,308,1923006,13490.78,-277.11,-4245.11
210,0.209999,309,1924005,20660.78,-329.11,-1518.1099999999997
211,0.211000,310,1925006,15751.78,334.89,-750.1099999999997
212,0.212000,311,1926006,1673.78,876.89,-815.1099999999997
213,0.212999,312,1927005,-8939.22,678.89,2598.8900000000003
214,0.214000,313,1928006,-9747.22,15.89,4142.89
215,0.215000,314,1929006,-3713.22,-378.11,2817.8900000000003
216,0.216000,315,1930006,3342.78,-906.11,3779.8900000000003
217,0.217000,316,1931006,4502.78,-697.11,3257.8900000000003
218,0.217999,317,1932005,-1241.22,114.89,280.8900000000003
219,0.219000,318,1933006,-7376.22,-318.11,1046.8900000000003
220,0.219999,319,1934005,-18066.22,-982.11,2600.8900000000003
221,0.221000,320,1935006,-21471.22,-509.11,2119.8900000000003
222,0.222000,321,1936006,-18710.22,-106.11,1648.8900000000003
223,0.222999,322,1937005,-9160.22,-353.11,2406.8900000000003
224,0.224000,323,1938006,3067.78,295.89,2066.8900000000003
225,0.225000,324,1939006,7031.78,-4.109999999999999,481.8900000000003
226,0.226000,325,1940006,6059.78,142.89,-358.1099999999997
227,0.227000,326,1941006,3560.78,1155.89,-2416.1099999999997
228,0.228000,327,1942006,5836.78,939.89,-3514.1099999999997
229,0.229000,328,1943006,7519.78,301.89,-2747.1099999999997
230,0.230000,329,1944006,7133.78,-451.11,-1844.1099999999997
231,0.231000,330,1945006,913.78,-190.11,-2362.1099999999997
232,0.231999,331,1946005,-4405.22,420.89,-3486.1099999999997
233,0.233000,332,1947006,1499.78,156.89,-4349.11
234,0.234000,333,1948006,12144.78,40.89,-4615.11
235,0.235000,334,1949006,20384.78,-462.11,-1657.1099999999997
236,0.236000,335,1950006,17020.78,-25.11,-779.1099999999997
237,0.236999,336,1951005,3474.78,1103.89,-1391.1099999999997
238,0.237999,337,1952005,-8001.22,606.89,2151.8900000000003
239,0.238999,338,1953005,-10204.22,52.89,4080.8900000000003
240,0.240000,339,1954006,-4231.22,-100.11,2749.8900000000003
241,0.240999,340,1955005,2919.78,-918.11,3603.8900000000003
242,0.241999,341,1956005,4639.78,-787.11,3801.8900000000003
243,0.243000,342,1957006,-610.22,83.89,745.8900000000003
244,0.243999,343,1958005,-6393.22,-151.11,607.8900000000003
245,0.245000,344,1959006,-16683.22,-1047.11,2625.8900000000003
246,0.246000,345,1960006,-20944.22,-650.11,2387.8900000000003
247,0.247000,346,1961006,-19472.22,146.89,1518.8900000000003
248,0.247999,347,1962005,-10504.22,-391.11,2352.8900000000003
249,0.248999,348,1963005,1519.78,136.89,2351.8900000000003
250,0.250000,349,1964006,5862.78,133.89,363.8900000000003
251,0.251000,350,1965006,6106.78,-107.11,-502.1099999999997
252,0.252000,351,1966006,3323.78,950.89,-2318.1099999999997
253,0.252999,352,1967005,5789.78,1057.89,-3511.1099999999997
254,0.254000,353,1968006,8000.78,439.89,-2728.1099999999997
255,0.254999,354,1969005,7858.78,-228.11,-2044.1099999999997
256,0.256000,355,1970006,1907.78,-92.11,-2341.1099999999997
257,0.257000,356,1971006,-4500.22,240.89,-3134.1099999999997
258,0.258000,357,1972006,316.78,149.89,-3675.1099999999997
259,0.259000,358,1973006,10624.78,249.89,-4806.11
260,0.260000,359,1974006,19806.78,-217.11,-2544.1099999999997
261,0.261000,360,1975006,18368.78,-144.11,-434.1099999999997
262,0.262000,361,1976006,5853.78,703.89,-1319.1099999999997
263,0.262999,362,1977005,-7357.22,905.89,1131.8900000000003
264,0.264000,363,1978006,-10666.22,131.89,4122.89
265,0.265000,364,1979006,-5394.22,-242.11,3020.8900000000003
266,0.266000,365,1980006,1313.78,-733.11,3126.8900000000003
267,0.267000,366,1981006,5137.78,-977.11,3916.8900000000003
268,0.268000,367,1982006,895.78,-21.11,1061.8900000000003
269,0.269000,368,1983006,-4723.22,-32.11,622.8900000000003
270,0.269999,369,1984005,-15223.22,-900.11,2359.8900000000003
271,0.271000,370,1985006,-21599.22,-669.11,2182.8900000000003
272,0.271999,371,1986005,-20109.22,-62.11,1984.8900000000003
273,0.272999,372,1987005,-12399.22,-192.11,2288.8900000000003
274,0.273999,373,1988005,859.78,-105.11,2682.8900000000003
275,0.275000,374,1989006,6594.78,-209.11,1200.8900000000003
276,0.276000,375,1990006,6047.78,192.89,-492.1099999999997
277,0.277000,376,1991006,2975.78,938.89,-2223.1099999999997
278,0.277999,377,1992005,4396.78,1048.89,-3579.1099999999997
279,0.278999,378,1993005,7673.78,557.89,-3154.1099999999997
280,0.280000,379,1994006,8196.78,-246.11,-2126.1099999999997
281,0.280999,380,1995005,3628.78,-516.11,-1868.1099999999997
282,0.281999,381,1996005,-4518.22,329.89,-3114.1099999999997
283,0.282999,382,1997005,-223.22,329.89,-3648.1099999999997
284,0.284000,383,1998006,9286.78,101.89,-4833.11
285,0.285000,384,1999006,17738.78,127.89,-3130.1099999999997
286,0.286000,385,2000006,19682.78,-350.11,-418.1099999999997
287,0.287000,386,2001006,7948.78,486.89,-1330.1099999999997
288,0.287999,387,2002005,-5290.22,1131.89,739.8900000000003
289,0.288999,388,2003005,-10601.22,143.89,3931.8900000000003
290,0.290000,389,2004006,-6306.22,-254.11,3015.8900000000003
291,0.291000,390,2005006,191.78,-677.11,2912.8900000000003
292,0.291999,391,2006005,4275.78,-968.11,4019.8900000000003
293,0.292999,392,2007005,1887.78,-69.11,1497.8900000000003
294,0.293999,393,2008005,-2713.22,-184.11,379.8900000000003
295,0.294999,394,2009005,-14157.22,-595.11,2076.8900000000003
296,0.296000,395,2010006,-22343.22,-834.11,2280.8900000000003
297,0.297000,396,2011006,-19138.22,-346.11,1979.8900000000003
298,0.297999,397,2012005,-14220.22,69.89,2259.8900000000003
299,0.299000,398,2013006,-1698.22,151.89,2779.8900000000003
300,0.299999,399,2014005,6533.78,-296.11,1217.8900000000003
301,0.300999,400,2015005,6514.78,-143.11,-266.1099999999997
302,0.301999,401,2016005,3693.78,966.89,-1451.1099999999997
303,0.303000,402,2017006,3371.78,1079.89,-3402.1099999999997
304,0.303999,403,2018005,7848.78,777.89,-3493.1099999999997
305,0.305000,404,2019006,8728.78,-398.11,-2199.1099999999997
306,0.306000,405,2020006,3767.78,-441.11,-1922.1099999999997
307,0.307000,406,2021006,-4286.22,284.89,-3045.1099999999997
308,0.307999,407,2022005,-1091.22,-57.11,-3698.1099999999997
309,0.309000,408,2023006,8036.78,520.89,-4951.11
310,0.310000,409,2024006,17152.78,51.89,-3326.1099999999997
311,0.311000,410,2025006,20643.78,-359.11,-312.1099999999997
312,0.312000,411,2026006,9698.78,666.89,-1117.1099999999997
313,0.313000,412,2027006,-3803.22,934.89,-91.10999999999967
314,0.314000,413,2028006,-10460.22,376.89,3665.8900000000003
315,0.315000,414,2029006,-7643.22,-271.11,3563.8900000000003
316,0.315999,415,2030005,-892.22,-549.11,2695.8900000000003
317,0.317000,416,2031006,4627.78,-870.11,4098.89
318,0.318000,417,2032006,3187.78,-393.11,2029.8900000000003
319,0.319000,418,2033006,-1892.22,-61.11,-48.10999999999967
320,0.319999,419,2034005,-12967.22,-403.11,1955.8900000000003
321,0.320999,420,2035005,-22327.22,-949.11,2612.8900000000003
322,0.322000,421,2036006,-19859.22,-354.11,1773.8900000000003
323,0.322999,422,2037005,-14867.22,75.89,1491.8900000000003
324,0.324000,423,2038006,-3602.22,45.89,2768.8900000000003
325,0.325000,424,2039006,5188.78,-45.11,2146.8900000000003
326,0.325999,425,2040005,6965.78,-329.11,101.89000000000033
327,0.327000,426,2041006,4348.78,714.89,-1166.1099999999997
328,0.328000,427,2042006,3529.78,1153.89,-3127.1099999999997
329,0.329000,428,2043006,7199.78,654.89,-3562.1099999999997
330,0.330000,429,2044006,7924.78,-36.11,-2723.1099999999997
331,0.331000,430,2045006,5002.78,-403.11,-1794.1099999999997
332,0.332000,431,2046006,-3125.22,-96.11,-2636.1099999999997
333,0.333000,432,2047006,-1950.22,387.89,-3719.1099999999997
334,0.334000,433,2048006,6835.78,298.89,-4708.11
335,0.335000,434,2049006,15863.78,-150.11,-3761.1099999999997
336,0.336000,435,2050006,20701.78,-88.11,-598.1099999999997
337,0.337000,436,2051006,11944.78,244.89,-900.1099999999997
338,0.338000,437,2052006,-2306.22,989.89,-673.1099999999997
339,0.339000,438,2053006,-10417.22,608.89,3279.8900000000003
340,0.340000,439,2054006,-8022.22,-510.11,3842.8900000000003
341,0.341000,440,2055006,-1936.22,-288.11,2461.8900000000003
342,0.341999,441,2056005,4248.78,-952.11,4016.8900000000003
343,0.343000,442,2057006,3519.78,-784.11,2649.8900000000003
344,0.344000,443,2058006,-2318.22,446.89,-23.109999999999673
345,0.345000,444,2059006,-10009.22,-520.11,1753.8900000000003
346,0.345999,445,2060005,-20844.22,-1000.11,2672.8900000000003
347,0.347000,446,2061006,-20634.22,-114.11,1805.8900000000003
348,0.347999,447,2062005,-14607.22,-666.11,2432.8900000000003
349,0.349000,448,2063006,-6046.22,164.89,2877.8900000000003
350,0.349999,449,2064005,3813.78,592.89,1532.8900000000003
351,0.350999,450,2065005,7088.78,-576.11,248.89000000000033
352,0.352000,451,2066006,4539.78,529.89,-1144.1099999999997
353,0.353000,452,2067006,3369.78,1156.89,-3011.1099999999997
354,0.354000,453,2068006,6633.78,878.89,-3667.1099999999997
355,0.355000,454,2069006,8049.78,146.89,-2847.1099999999997
356,0.356008,455,2070014,6021.78,-716.11,-1777.1099999999997
357,0.357000,456,2071006,-1057.22,-212.11,-2580.1099999999997
358,0.358000,457,2072006,-3824.22,546.89,-3512.1099999999997
359,0.359000,458,2073006,4165.78,218.89,-4331.11
360,0.360000,459,2074006,14187.78,129.89,-4278.11
361,0.361001,460,2075007,20483.78,-148.11,-1092.1099999999997
362,0.361999,461,2076005,15149.78,-65.11,-452.1099999999997
363,0.363000,462,2077006,34.78,1068.89,-844.1099999999997
364,0.364000,463,2078006,-9376.22,674.89,2662.8900000000003
365,0.365000,464,2079006,-9242.22,-265.11,3865.8900000000003
366,0.366000,465,2080006,-3381.22,-299.11,2595.8900000000003
367,0.366999,466,2081005,3805.78,-911.11,3764.8900000000003
368,0.368000,467,2082006,4064.78,-538.11,2879.8900000000003
369,0.369000,468,2083006,-1250.22,120.89,289.8900000000003
370,0.370000,469,2084006,-7476.22,-504.11,1290.8900000000003
371,0.370999,470,2085005,-19100.22,-800.11,2481.8900000000003
372,0.372000,471,2086006,-21708.22,-347.11,2246.8900000000003
373,0.373000,472,2087006,-17553.22,-227.11,1731.8900000000003
374,0.374000,473,2088006,-7737.22,-188.11,2707.8900000000003
375,0.374999,474,2089005,3641.78,48.89,2049.8900000000003
376,0.376000,475,2090006,6942.78,-254.11,159.89000000000033
377,0.377000,476,2091006,5505.78,412.89,-527.1099999999997
378,0.378000,477,2092006,2783.78,1015.89,-2628.1099999999997
379,0.379000,478,2093006,5656.78,968.89,-3634.1099999999997
380,0.380000,479,2094006,7778.78,220.89,-2871.1099999999997
381,0.381000,480,2095006,6798.78,-530.11,-1806.1099999999997
382,0.382000,481,2096006,686.78,-157.11,-2296.1099999999997
383,0.383000,482,2097006,-3875.22,378.89,-3517.1099999999997
384,0.384000,483,2098006,1925.78,359.89,-4471.11
385,0.385000,484,2099006,12532.78,-38.11,-4461.11
386,0.386000,485,2100006,20323.78,-233.11,-1426.1099999999997
387,0.387000,486,2101006,17039.78,13.89,-493.1099999999997
388,0.388000,487,2102006,2465.78,1020.89,-1316.1099999999997
389,0.389000,488,2103006,-8489.22,809.89,2171.8900000000003
390,0.390000,489,2104006,-9589.22,-152.11,4143.89
391,0.390999,490,2105005,-4237.22,-85.11,2654.8900000000003
392,0.392000,491,2106006,2818.78,-993.11,3642.8900000000003
393,0.393000,492,2107006,4402.78,-810.11,3424.8900000000003
394,0.394000,493,2108006,-862.22,149.89,398.8900000000003
395,0.394999,494,2109005,-6714.22,-363.11,658.8900000000003
396,0.396000,495,2110006,-16453.22,-940.11,2552.8900000000003
397,0.396999,496,2111005,-20749.22,-459.11,2385.8900000000003
398,0.397999,497,2112005,-19398.22,82.89,1492.8900000000003
399,0.398999,498,2113005,-10196.22,-247.11,2286.8900000000003
400,0.399999,499,2114005,2821.78,101.89,2574.8900000000003
401,0.401000,500,2115006,6306.78,-13.11,794.8900000000003
402,0.402000,501,2116006,5571.78,140.89,-491.1099999999997
403,0.403000,502,2117006,3285.78,851.89,-2445.1099999999997
404,0.403999,503,2118005,5396.78,932.89,-3526.1099999999997
405,0.404999,504,2119005,7795.78,439.89,-2823.1099999999997
406,0.406000,505,2120006,7430.78,-307.11,-2127.1099999999997
407,0.406999,506,2121005,1615.78,-220.11,-2479.1099999999997
408,0.407999,507,2122005,-4272.22,131.89,-3280.1099999999997
409,0.408999,508,2123005,368.78,302.89,-3917.1099999999997
410,0.410000,509,2124006,10960.78,246.89,-4655.11
411,0.411000,510,2125006,19994.78,-242.11,-2279.1099999999997
412,0.412000,511,2126006,18223.78,-2.1099999999999994,-453.1099999999997
413,0.413000,512,2127006,5205.78,413.89,-949.1099999999997
414,0.414000,513,2128006,-7414.22,677.89,1252.8900000000003
415,0.414999,514,2129005,-10323.22,436.89,4050.8900000000003
416,0.416000,515,2130006,-5614.22,-174.11,3118.8900000000003
417,0.417000,516,2131006,1542.78,-783.11,3083.8900000000003
418,0.418000,517,2132006,4934.78,-822.11,3727.8900000000003
419,0.419000,518,2133006,801.78,-54.11,979.8900000000003
420,0.420000,519,2134006,-4501.22,-145.11,749.8900000000003
421,0.420999,520,2135005,-15283.22,-932.11,2247.8900000000003
422,0.421999,521,2136005,-21202.22,-850.11,2226.8900000000003
423,0.423000,522,2137006,-20235.22,89.89,1747.8900000000003
424,0.424000,523,2138006,-12882.22,47.89,2028.8900000000003
425,0.425000,524,2139006,557.78,-39.11,2515.8900000000003
426,0.426000,525,2140006,6723.78,-270.11,933.8900000000003
427,0.427000,526,2141006,6738.78,25.89,-220.10999999999967
428,0.427999,527,2142005,3359.78,964.89,-1804.1099999999997
429,0.429000,528,2143006,4164.78,1098.89,-3525.1099999999997
430,0.430000,529,2144006,7657.78,517.89,-3118.1099999999997
431,0.431000,530,2145006,7984.78,-217.11,-2083.1099999999997
432,0.431999,531,2146005,2914.78,-244.11,-2044.1099999999997
433,0.432999,532,2147005,-4490.22,174.89,-3162.1099999999997
434,0.434000,533,2148006,-154.22,103.89,-3765.1099999999997
435,0.435000,534,2149006,9370.78,272.89,-4747.11
436,0.436000,535,2150006,18392.78,40.89,-2830.1099999999997
437,0.437000,536,2151006,19515.78,-290.11,-469.1099999999997
438,0.438000,537,2152006,7523.78,547.89,-1494.1099999999997
439,0.438999,538,2153005,-5430.22,991.89,926.8900000000003
440,0.440000,539,2154006,-10145.22,203.89,4166.89
441,0.441000,540,2155006,-5978.22,-252.11,2951.8900000000003
442,0.441999,541,2156005,-323.22,-592.11,2917.8900000000003
443,0.442999,542,2157005,4726.78,-1056.11,4087.8900000000003
444,0.444000,543,2158006,1865.78,-19.11,1309.8900000000003
445,0.445000,544,2159006,-3364.22,-41.11,260.8900000000003
446,0.445999,545,2160005,-14170.22,-809.11,2222.8900000000003
447,0.446999,546,2161005,-21567.22,-842.11,2405.8900000000003
448,0.448000,547,2162006,-19466.22,-276.11,1904.8900000000003
449,0.448999,548,2163005,-14074.22,40.89,2185.8900000000003
450,0.449999,549,2164005,-1694.22,146.89,2504.8900000000003
451,0.451000,550,2165006,6135.78,-262.11,1501.8900000000003
452,0.452000,551,2166006,6896.78,-280.11,84.89000000000033
453,0.453000,552,2167006,2992.78,1164.89,-1983.1099999999997
454,0.453999,553,2168005,3715.78,1143.89,-3365.1099999999997
455,0.454999,554,2169005,8078.78,359.89,-3165.1099999999997
456,0.456000,555,2170006,8236.78,71.89,-2546.1099999999997
457,0.457000,556,2171006,4563.78,-404.11,-1868.1099999999997
458,0.458000,557,2172006,-4028.22,-39.11,-2759.1099999999997
459,0.458999,558,2173005,-1712.22,394.89,-3743.1099999999997
460,0.460000,559,2174006,8065.78,80.89,-4872.11
461,0.461000,560,2175006,16912.78,-104.11,-3331.1099999999997
462,0.461999,561,2176005,19906.78,-7.109999999999999,-441.1099999999997
463,0.463000,562,2177006,9823.78,406.89,-1370.1099999999997
464,0.464000,563,2178006,-3429.22,898.89,-51.10999999999967
465,0.465000,564,2179006,-10242.22,362.89,3849.8900000000003
466,0.466000,565,2180006,-7604.22,-131.11,3538.8900000000003
467,0.467000,566,2181006,-912.22,-509.11,2842.8900000000003
468,0.468000,567,2182006,4593.78,-1003.11,4221.89
469,0.468999,568,2183005,3205.78,-268.11,1999.8900000000003
470,0.470000,569,2184006,-1819.22,-23.11,43.89000000000033
471,0.471000,570,2185006,-12766.22,-429.11,1755.8900000000003
472,0.472000,571,2186006,-22193.22,-921.11,2517.8900000000003
473,0.473000,572,2187006,-19729.22,-358.11,1879.8900000000003
474,0.474000,573,2188006,-14641.22,-116.11,2156.8900000000003
475,0.475000,574,2189006,-3995.22,87.89,2618.8900000000003
476,0.476000,575,2190006,5324.78,-33.11,1413.8900000000003
477,0.476999,576,2191005,6772.78,-366.11,232.89000000000033
478,0.478000,577,2192006,4510.78,717.89,-1323.1099999999997
479,0.479000,578,2193006,3167.78,1221.89,-3347.1099999999997
480,0.480000,579,2194006,7022.78,788.89,-3409.1099999999997
481,0.481000,580,2195006,8859.78,-259.11,-2429.1099999999997
482,0.481999,581,2196005,4876.78,-230.11,-1881.1099999999997
483,0.483000,582,2197006,-3124.22,30.89,-2669.1099999999997
484,0.484000,583,2198006,-1934.22,-1.1099999999999994,-3683.1099999999997
485,0.484999,584,2199005,6219.78,560.89,-4745.11
486,0.486000,585,2200006,15595.78,-11.11,-3566.1099999999997
487,0.487000,586,2201006,20709.78,-342.11,-797.1099999999997
488,0.488000,587,2202006,12063.78,221.89,-1237.1099999999997
489,0.489000,588,2203006,-2146.22,939.89,-548.1099999999997
490,0.489999,589,2204005,-9926.22,855.89,3386.8900000000003
491,0.491000,590,2205006,-8368.22,-178.11,3759.8900000000003
492,0.492000,591,2206006,-2236.22,-428.11,2597.8900000000003
493,0.492999,592,2207005,4434.78,-1023.11,4122.89
494,0.494000,593,2208006,3676.78,-460.11,2581.8900000000003
495,0.495000,594,2209006,-2020.22,245.89,104.89000000000033
496,0.496000,595,2210006,-9852.22,-608.11,1577.8900000000003
497,0.497000,596,2211006,-20554.22,-818.11,2564.8900000000003
498,0.498000,597,2212006,-20719.22,-345.11,2064.8900000000003
499,0.499000,598,2213006,-15539.22,-273.11,1873.8900000000003
500,0.500000,599,2214006,-6610.22,230.89,2690.8900000000003
501,0.500999,600,2215005,3812.78,97.89,1746.8900000000003
502,0.502000,601,2216006,7417.78,-525.11,94.89000000000033
503,0.503000,602,2217006,4736.78,592.89,-997.1099999999997
504,0.503999,603,2218005,3329.78,1033.89,-3002.1099999999997
505,0.505000,604,2219006,6727.78,824.89,-3439.1099999999997
506,0.505999,605,2220005,7768.78,55.89,-2643.1099999999997
507,0.506999,606,2221005,6330.78,-515.11,-1906.1099999999997
508,0.508000,607,2222006,-1186.22,48.89,-2501.1099999999997
509,0.509000,608,2223006,-3011.22,350.89,-3315.1099999999997
510,0.509999,609,2224005,3903.78,404.89,-4567.11
511,0.511000,610,2225006,14202.78,54.89,-4192.11
512,0.511999,611,2226005,20903.78,-270.11,-933.1099999999997
513,0.513000,612,2227006,14136.78,182.89,-900.1099999999997
514,0.514000,613,2228006,724.78,856.89,-937.1099999999997
515,0.514999,614,2229005,-9648.22,529.89,2784.8900000000003
516,0.516000,615,2230006,-9758.22,-52.11,3870.8900000000003
517,0.516999,616,2231005,-3149.22,-400.11,2600.8900000000003
518,0.518000,617,2232006,3687.78,-1014.11,3728.8900000000003
519,0.519000,618,2233006,4445.78,-513.11,3057.8900000000003
520,0.520000,619,2234006,-1243.22,66.89,300.8900000000003
521,0.521000,620,2235006,-7746.22,-356.11,1151.8900000000003
522,0.522000,621,2236006,-19367.22,-762.11,2627.8900000000003
523,0.523000,622,2237006,-21253.22,-443.11,2313.8900000000003
524,0.524000,623,2238006,-16852.22,-266.11,1875.8900000000003
525,0.524999,624,2239005,-8047.22,-173.11,2602.8900000000003
526,0.525999,625,2240005,3730.78,236.89,2233.8900000000003
527,0.526999,626,2241005,6956.78,-264.11,435.8900000000003
528,0.528000,627,2242006,4888.78,268.89,-984.1099999999997
529,0.528999,628,2243005,2675.78,1191.89,-2935.1099999999997
530,0.530000,629,2244006,5894.78,934.89,-3529.1099999999997
531,0.530999,630,2245005,7688.78,91.89,-2734.1099999999997
532,0.532000,631,2246006,7079.78,-405.11,-1934.1099999999997
533,0.533000,632,2247006,854.78,-204.11,-2333.1099999999997
534,0.534000,633,2248006,-4074.22,306.89,-3273.1099999999997
535,0.535000,634,2249006,1826.78,413.89,-4282.11
536,0.536000,635,2250006,12328.78,70.89,-4515.11
537,0.537000,636,2251006,20327.78,-211.11,-1576.1099999999997
538,0.538000,637,2252006,16641.78,4.890000000000001,-543.1099999999997
539,0.538999,638,2253005,3137.78,1131.89,-1223.1099999999997
540,0.539999,639,2254005,-8352.22,834.89,2086.8900000000003
541,0.541000,640,2255006,-9953.22,-322.11,4405.89
542,0.542000,641,2256006,-4133.22,-329.11,2878.8900000000003
543,0.542999,642,2257005,2525.78,-850.11,3398.8900000000003
544,0.544000,643,2258006,4311.78,-734.11,3397.8900000000003
545,0.545000,644,2259006,-825.22,112.89,330.8900000000003
546,0.545999,645,2260005,-6557.22,-275.11,660.8900000000003
547,0.547000,646,2261006,-16354.22,-1137.11,2592.8900000000003
548,0.547999,647,2262005,-20883.22,-479.11,2302.8900000000003
549,0.549000,648,2263006,-19531.22,90.89,1571.8900000000003
550,0.550000,649,2264006,-9851.22,-433.11,2495.8900000000003
551,0.551000,650,2265006,2905.78,-1.1099999999999994,2867.8900000000003
552,0.552000,651,2266006,6338.78,66.89,676.8900000000003
553,0.553000,652,2267006,5633.78,288.89,-683.1099999999997
554,0.554000,653,2268006,3086.78,1073.89,-2454.1099999999997
555,0.554999,654,2269005,5431.78,968.89,-3496.1099999999997
556,0.556000,655,2270006,7464.78,338.89,-2826.1099999999997
557,0.557000,656,2271006,7591.78,-348.11,-2199.1099999999997
558,0.558000,657,2272006,2005.78,-462.11,-2336.1099999999997
559,0.559000,658,2273006,-4736.22,306.89,-3266.1099999999997
560,0.560000,659,2274006,728.78,516.89,-3977.1099999999997
561,0.560999,660,2275005,10782.78,197.89,-4943.11
562,0.562000,661,2276006,20195.78,-280.11,-2081.1099999999997
563,0.563000,662,2277006,18670.78,-155.11,-313.1099999999997
564,0.564000,663,2278006,4943.78,773.89,-1541.1099999999997
565,0.565000,664,2279006,-7803.22,954.89,1717.8900000000003
566,0.565999,665,2280005,-10678.22,67.89,4291.89
567,0.567000,666,2281006,-5143.22,-178.11,2695.8900000000003
568,0.568000,667,2282006,1927.78,-783.11,3352.8900000000003
569,0.569000,668,2283006,5244.78,-960.11,3926.8900000000003
570,0.570000,669,2284006,343.78,198.89,837.8900000000003
571,0.570999,670,2285005,-5204.22,-226.11,760.8900000000003
572,0.572000,671,2286006,-15624.22,-1126.11,2343.8900000000003
573,0.572999,672,2287005,-21730.22,-619.11,2260.8900000000003
574,0.574000,673,2288006,-20440.22,66.89,1742.8900000000003
575,0.574999,674,2289005,-12334.22,-166.11,1767.8900000000003
576,0.576000,675,2290006,1953.78,-122.11,2774.8900000000003
577,0.576999,676,2291005,6811.78,-155.11,1086.8900000000003
578,0.578000,677,2292006,5827.78,214.89,-489.1099999999997
579,0.579000,678,2293006,3392.78,992.89,-1803.1099999999997
580,0.580000,679,2294006,4446.78,984.89,-3469.1099999999997
581,0.581000,680,2295006,7826.78,585.89,-3136.1099999999997
582,0.582000,681,2296006,8522.78,-295.11,-2062.1099999999997
583,0.583000,682,2297006,2566.78,-432.11,-2066.1099999999997
584,0.583999,683,2298005,-4630.22,334.89,-3329.1099999999997
585,0.585000,684,2299006,104.78,309.89,-3943.1099999999997
586,0.586000,685,2300006,9796.78,171.89,-4731.11
587,0.587000,686,2301006,19285.78,-285.11,-2597.1099999999997
588,0.588000,687,2302006,19333.78,-199.11,-438.1099999999997
589,0.589000,688,2303006,6376.78,799.89,-1518.1099999999997
590,0.590000,689,2304006,-6199.22,902.89,1097.8900000000003
591,0.591000,690,2305006,-10425.22,107.89,4238.89
592,0.592000,691,2306006,-5957.22,-155.11,2808.8900000000003
593,0.592999,692,2307005,826.78,-652.11,3182.8900000000003
594,0.593999,693,2308005,4783.78,-1213.11,4192.89
595,0.595000,694,2309006,1217.78,83.89,1091.8900000000003
596,0.596000,695,2310006,-4149.22,14.89,376.8900000000003
597,0.596999,696,2311005,-14881.22,-912.11,2229.8900000000003
598,0.597999,697,2312005,-21774.22,-593.11,2361.8900000000003
599,0.599000,698,2313006,-19557.22,-322.11,2109.8900000000003
600,0.600000,699,2314006,-13325.22,-1.1099999999999994,2183.8900000000003
601,0.601000,700,2315006,-708.22,374.89,2560.8900000000003
602,0.601999,701,2316005,6576.78,-305.11,1358.8900000000003
603,0.603000,702,2317006,6549.78,-121.11,-234.10999999999967
604,0.604000,703,2318006,3276.78,946.89,-1994.1099999999997
605,0.605000,704,2319006,4312.78,991.89,-3542.1099999999997
606,0.606000,705,2320006,7691.78,595.89,-3200.1099999999997
607,0.607000,706,2321006,8323.78,-283.11,-2332.1099999999997
608,0.608000,707,2322006,3421.78,-288.11,-2326.1099999999997
609,0.609000,708,2323006,-4351.22,29.89,-2983.1099999999997
610,0.610000,709,2324006,-836.22,177.89,-3564.1099999999997
611,0.611000,710,2325006,9065.78,552.89,-4888.11
612,0.612000,711,2326006,18383.78,-258.11,-2917.1099999999997
613,0.613000,712,2327006,20007.78,-240.11,-332.1099999999997
614,0.614000,713,2328006,8551.78,859.89,-1416.1099999999997
615,0.615000,714,2329006,-5143.22,889.89,441.8900000000003
616,0.616000,715,2330006,-10650.22,201.89,3925.8900000000003
617,0.616999,716,2331005,-7244.22,-14.11,3091.8900000000003
618,0.618000,717,2332006,131.78,-762.11,2987.8900000000003
619,0.619000,718,2333006,5175.78,-965.11,4296.89
620,0.619999,719,2334005,2204.78,-33.11,1749.8900000000003
621,0.620999,720,2335005,-2278.22,-204.11,375.8900000000003
622,0.622000,721,2336006,-14560.22,-420.11,1832.8900000000003
623,0.623000,722,2337006,-22768.22,-979.11,2523.8900000000003
624,0.624000,723,2338006,-19630.22,-374.11,2103.8900000000003
625,0.625000,724,2339006,-14589.22,265.89,1824.8900000000003
626,0.626000,725,2340006,-1880.22,-86.11,2724.8900000000003
627,0.626999,726,2341005,6456.78,-566.11,1544.8900000000003
628,0.628000,727,2342006,6977.78,-55.11,-144.10999999999967
629,0.629000,728,2343006,3199.78,1113.89,-1704.1099999999997
630,0.630000,729,2344006,3134.78,1066.89,-3427.1099999999997
631,0.630999,730,2345005,7831.78,632.89,-3221.1099999999997
632,0.631999,731,2346005,8724.78,-126.11,-2301.1099999999997
633,0.633000,732,2347006,4837.78,-230.11,-1924.1099999999997
634,0.633999,733,2348005,-3724.22,182.89,-2882.1099999999997
635,0.635000,734,2349006,-1407.22,61.89,-3604.1099999999997
636,0.636000,735,2350006,7608.78,273.89,-4794.11
637,0.637000,736,2351006,16322.78,-7.109999999999999,-3422.1099999999997
638,0.638000,737,2352006,20774.78,-253.11,-457.1099999999997
639,0.639000,738,2353006,10702.78,536.89,-1283.1099999999997
640,0.640000,739,2354006,-3336.22,930.89,-206.10999999999967
641,0.641000,740,2355006,-10461.22,412.89,3607.8900000000003
642,0.641999,741,2356005,-7830.22,-187.11,3509.8900000000003
643,0.643000,742,2357006,-1213.22,-588.11,2735.8900000000003
644,0.644000,743,2358006,4280.78,-1034.11,4157.89
645,0.645000,744,2359006,2986.78,-348.11,2163.8900000000003
646,0.646000,745,2360006,-1960.22,56.89,-4.109999999999673
647,0.647000,746,2361006,-12764.22,-330.11,1777.8900000000003
648,0.648000,747,2362006,-22448.22,-879.11,2683.8900000000003
649,0.649000,748,2363006,-19362.22,-305.11,1821.8900000000003
650,0.650000,749,2364006,-14736.22,51.89,2084.8900000000003
651,0.651000,750,2365006,-4250.22,-60.11,3096.8900000000003
652,0.652000,751,2366006,5089.78,399.89,1519.8900000000003
653,0.653000,752,2367006,7334.78,-307.11,122.89000000000033
654,0.653999,753,2368005,4355.78,233.89,-1259.1099999999997
655,0.654999,754,2369005,3058.78,1161.89,-3424.1099999999997
656,0.655999,755,2370005,7300.78,671.89,-3379.1099999999997
657,0.657000,756,2371006,8591.78,-127.11,-2610.1099999999997
658,0.658000,757,2372006,5229.78,-506.11,-2176.1099999999997
659,0.659000,758,2373006,-3261.22,51.89,-2916.1099999999997
660,0.659999,759,2374005,-2049.22,64.89,-3453.1099999999997
661,0.661000,760,2375006,6306.78,400.89,-4806.11
662,0.662000,761,2376006,15741.78,233.89,-3817.1099999999997
663,0.663000,762,2377006,20901.78,-425.11,-381.1099999999997
664,0.664000,763,2378006,12238.78,473.89,-1022.1099999999997
665,0.665000,764,2379006,-1667.22,964.89,-386.1099999999997
666,0.666000,765,2380006,-10211.22,357.89,3555.8900000000003
667,0.667000,766,2381006,-8768.22,-39.11,3730.8900000000003
668,0.668000,767,2382006,-2004.22,-490.11,2628.8900000000003
669,0.669000,768,2383006,4425.78,-1001.11,4073.8900000000003
670,0.669999,769,2384005,3627.78,-349.11,2503.8900000000003
671,0.670999,770,2385005,-1525.22,33.89,31.890000000000327
672,0.671999,771,2386005,-10791.22,-492.11,1543.8900000000003
673,0.672999,772,2387005,-21900.22,-914.11,2643.8900000000003
674,0.674000,773,2388006,-20992.22,-320.11,1598.8900000000003
675,0.675000,774,2389006,-15680.22,-83.11,1596.8900000000003
676,0.675999,775,2390005,-5485.22,-29.11,3113.8900000000003
677,0.677000,776,2391006,5055.78,55.89,2084.8900000000003
678,0.678000,777,2392006,7596.78,-301.11,257.8900000000003
679,0.679000,778,2393006,4356.78,462.89,-962.1099999999997
680,0.680000,779,2394006,3136.78,1193.89,-3071.1099999999997
681,0.680999,780,2395005,6827.78,850.89,-3465.1099999999997
682,0.682000,781,2396006,8589.78,-8.11,-2486.1099999999997
683,0.682999,782,2397005,5895.78,-186.11,-2007.1099999999997
684,0.683999,783,2398005,-2545.22,-370.11,-2678.1099999999997
685,0.684999,784,2399005,-2800.22,-71.11,-3382.1099999999997
686,0.686000,785,2400006,4981.78,588.89,-4883.11
687,0.687000,786,2401006,14698.78,197.89,-4292.11
688,0.688000,787,2402006,21094.78,-276.11,-718.1099999999997
689,0.688999,788,2403005,13747.78,231.89,-1001.1099999999997
690,0.690000,789,2404006,-201.22,986.89,-903.1099999999997
691,0.691000,790,2405006,-9651.22,578.89,3209.8900000000003
692,0.692000,791,2406006,-9142.22,-74.11,3894.8900000000003
693,0.693000,792,2407006,-2641.22,-439.11,2534.8900000000003
694,0.694000,793,2408006,3993.78,-1057.11,4110.89
695,0.695000,794,2409006,4076.78,-538.11,3023.8900000000003
696,0.696000,795,2410006,-2291.22,239.89,-86.10999999999967
697,0.696999,796,2411005,-8880.22,-417.11,1252.8900000000003
698,0.698000,797,2412006,-20213.22,-909.11,2817.8900000000003
699,0.698999,798,2413005,-21239.22,-340.11,2100.8900000000003
700,0.699999,799,2414005,-15948.22,-412.11,1783.8900000000003
701,0.701000,800,2415006,-7489.22,55.89,2587.8900000000003
702,0.702000,801,2416006,3897.78,362.89,2161.8900000000003
703,0.703000,802,2417006,6803.78,-275.11,403.8900000000003
704,0.704000,803,2418006,4979.78,369.89,-924.1099999999997
705,0.705000,804,2419006,3578.78,973.89,-2797.1099999999997
706,0.706000,805,2420006,6573.78,853.89,-3478.1099999999997
707,0.707000,806,2421006,8335.78,200.89,-2665.1099999999997
708,0.707999,807,2422005,6145.78,-459.11,-2138.1099999999997
709,0.709000,808,2423006,-873.22,-142.11,-2600.1099999999997
710,0.710000,809,2424006,-3561.22,231.89,-3335.1099999999997
711,0.710999,810,2425005,3301.78,394.89,-4737.11
712,0.712000,811,2426006,14014.78,92.89,-4444.11
713,0.712999,812,2427005,21417.78,-279.11,-1006.1099999999997
714,0.713999,813,2428005,15335.78,263.89,-731.1099999999997
715,0.715000,814,2429006,729.78,694.89,-1054.1099999999997
716,0.716000,815,2430006,-9447.22,565.89,2688.8900000000003
717,0.717000,816,2431006,-9830.22,19.89,4050.8900000000003
718,0.718000,817,2432006,-3722.22,-224.11,2527.8900000000003
719,0.719000,818,2433006,4072.78,-1041.11,3841.8900000000003
720,0.720000,819,2434006,4584.78,-558.11,3308.8900000000003
721,0.720999,820,2435005,-1437.22,212.89,345.8900000000003
722,0.721999,821,2436005,-7305.22,-551.11,1244.8900000000003
723,0.723000,822,2437006,-19104.22,-875.11,2621.8900000000003
724,0.724000,823,2438006,-21666.22,-353.11,2116.8900000000003
725,0.725000,824,2439006,-17976.22,-104.11,1609.8900000000003
726,0.726000,825,2440006,-8327.22,-271.11,2361.8900000000003
727,0.727000,826,2441006,3509.78,254.89,2425.8900000000003
728,0.728000,827,2442006,6523.78,-157.11,641.8900000000003
729,0.729000,828,2443006,5549.78,143.89,-729.1099999999997
730,0.729999,829,2444005,3341.78,1057.89,-2620.1099999999997
731,0.730999,830,2445005,5665.78,948.89,-3593.1099999999997
732,0.731999,831,2446005,8009.78,361.89,-2774.1099999999997
733,0.733000,832,2447006,7289.78,-153.11,-2028.1099999999997
734,0.734000,833,2448006,461.78,-329.11,-2316.1099999999997
735,0.735000,834,2449006,-4391.22,35.89,-3431.1099999999997
736,0.736000,835,2450006,2105.78,436.89,-4492.11
737,0.737000,836,2451006,13105.78,10.89,-4410.11
738,0.738000,837,2452006,20747.78,-515.11,-1451.1099999999997
739,0.739000,838,2453006,16410.78,226.89,-701.1099999999997
740,0.739999,839,2454005,2365.78,1225.89,-1426.1099999999997
741,0.741000,840,2455006,-8129.22,574.89,2121.8900000000003
742,0.742000,841,2456006,-10108.22,-87.11,4036.8900000000003
743,0.743000,842,2457006,-4361.22,-188.11,2696.8900000000003
744,0.744000,843,2458006,3114.78,-1095.11,3615.8900000000003
745,0.745000,844,2459006,4516.78,-579.11,3521.8900000000003
746,0.746000,845,2460006,-759.22,118.89,705.8900000000003
747,0.746999,846,2461005,-6663.22,-359.11,839.8900000000003
748,0.747999,847,2462005,-17067.22,-911.11,2442.8900000000003
749,0.749000,848,2463006,-20933.22,-663.11,2605.8900000000003
750,0.750000,849,2464006,-19650.22,189.89,1853.8900000000003
751,0.751000,850,2465006,-9993.22,-403.11,2149.8900000000003
752,0.751999,851,2466005,2788.78,-133.11,2356.8900000000003
753,0.753000,852,2467006,5727.78,105.89,706.8900000000003
754,0.754000,853,2468006,6126.78,150.89,-358.1099999999997
755,0.755000,854,2469006,2957.78,1023.89,-2592.1099999999997
756,0.756000,855,2470006,5464.78,1042.89,-3765.1099999999997
757,0.757000,856,2471006,7993.78,373.89,-2928.1099999999997
758,0.758000,857,2472006,7512.78,-348.11,-2018.1099999999997
759,0.759000,858,2473006,1882.78,-330.11,-2225.1099999999997
760,0.759999,859,2474005,-4599.22,302.89,-3338.1099999999997
761,0.760999,860,2475005,1097.78,397.89,-4022.1099999999997
762,0.761999,861,2476005,11543.78,105.89,-4708.11
763,0.763000,862,2477006,20064.78,-377.11,-1981.1099999999997
764,0.764000,863,2478006,18592.78,29.89,-227.10999999999967
765,0.765000,864,2479006,4826.78,900.89,-1373.1099999999997
766,0.766000,865,2480006,-8094.22,805.89,1344.8900000000003
767,0.767000,866,2481006,-10479.22,-14.11,4149.89
768,0.768000,867,2482006,-5485.22,-140.11,2714.8900000000003
769,0.769000,868,2483006,2046.78,-753.11,3248.8900000000003
770,0.770000,869,2484006,4814.78,-948.11,3742.8900000000003
771,0.770999,870,2485005,557.78,115.89,886.8900000000003
772,0.772000,871,2486006,-5337.22,-238.11,816.8900000000003
773,0.773000,872,2487006,-16174.22,-1019.11,2399.8900000000003
774,0.774000,873,2488006,-21818.22,-351.11,2322.8900000000003
775,0.774999,874,2489005,-20903.22,146.89,1739.8900000000003
776,0.775999,875,2490005,-10891.22,-292.11,2423.8900000000003
777,0.777000,876,2491006,2344.78,109.89,2670.8900000000003
778,0.777999,877,2492005,6536.78,-166.11,990.8900000000003
779,0.779000,878,2493006,6209.78,-126.11,-259.1099999999997
780,0.779999,879,2494005,2964.78,980.89,-2386.1099999999997
781,0.781000,880,2495006,4423.78,1108.89,-3724.1099999999997
782,0.782000,881,2496006,7711.78,410.89,-3011.1099999999997
783,0.783000,882,2497006,8070.78,-324.11,-2237.1099999999997
784,0.784000,883,2498006,2440.78,-261.11,-2453.1099999999997
785,0.785000,884,2499006,-4442.22,193.89,-3184.1099999999997
786,0.786000,885,2500006,626.78,210.89,-3635.1099999999997
787,0.786999,886,2501005,10043.78,432.89,-4840.11
788,0.788000,887,2502006,19217.78,-382.11,-2496.1099999999997
789,0.788999,888,2503005,19033.78,-405.11,-263.1099999999997
790,0.790000,889,2504006,6526.78,1020.89,-1601.1099999999997
791,0.790999,890,2505005,-6362.22,1012.89,993.8900000000003
792,0.792000,891,2506006,-10336.22,44.89,4353.89
793,0.793000,892,2507006,-5665.22,-183.11,3014.8900000000003
794,0.793999,893,2508005,719.78,-701.11,3072.8900000000003
795,0.795000,894,2509006,4536.78,-1051.11,3941.8900000000003
796,0.796000,895,2510006,753.78,4.890000000000001,1067.8900000000003
797,0.796999,896,2511005,-3998.22,-105.11,362.8900000000003
798,0.798000,897,2512006,-14984.22,-824.11,2263.8900000000003
799,0.799000,898,2513006,-21697.22,-886.11,2527.8900000000003
800,0.799999,899,2514005,-20096.22,-76.11,1720.8900000000003
801,0.801000,900,2515006,-13382.22,9.89,1915.8900000000003
802,0.802000,901,2516006,353.78,-230.11,3106.8900000000003
803,0.803000,902,2517006,6589.78,136.89,1339.8900000000003
804,0.803999,903,2518005,6485.78,152.89,-391.1099999999997
805,0.805000,904,2519006,3593.78,703.89,-1771.1099999999997
806,0.806000,905,2520006,3955.78,1147.89,-3574.1099999999997
807,0.807000,906,2521006,7922.78,524.89,-3080.1099999999997
808,0.807999,907,2522005,8251.78,-275.11,-2431.1099999999997
809,0.809000,908,2523006,3141.78,-323.11,-2235.1099999999997
810,0.810000,909,2524006,-4620.22,116.89,-2992.1099999999997
811,0.810999,910,2525005,-714.22,231.89,-3879.1099999999997
812,0.812000,911,2526006,9169.78,373.89,-4996.11
813,0.813000,912,2527006,18578.78,-73.11,-2912.1099999999997
814,0.814000,913,2528006,20340.78,-252.11,-98.10999999999967
815,0.815000,914,2529006,8179.78,561.89,-1330.1099999999997
816,0.816000,915,2530006,-5667.22,1023.89,293.8900000000003
817,0.816999,916,2531005,-10712.22,335.89,4036.8900000000003
818,0.817999,917,2532005,-6757.22,-303.11,3339.8900000000003
819,0.818999,918,2533005,107.78,-597.11,2944.8900000000003
820,0.819999,919,2534005,5364.78,-1068.11,4138.89
821,0.821000,920,2535006,2393.78,-134.11,1659.8900000000003
822,0.822000,921,2536006,-2656.22,-47.11,431.8900000000003
823,0.822999,922,2537005,-15029.22,-562.11,1703.8900000000003
824,0.824000,923,2538006,-22690.22,-855.11,2238.8900000000003
825,0.825000,924,2539006,-19774.22,-464.11,2126.8900000000003
826,0.825999,925,2540005,-14529.22,326.89,1855.8900000000003
827,0.827000,926,2541006,-1385.22,-87.11,2739.8900000000003
828,0.828000,927,2542006,6399.78,-392.11,1434.8900000000003
829,0.829000,928,2543006,7145.78,84.89,-59.10999999999967
830,0.829999,929,2544005,3387.78,911.89,-1435.1099999999997
831,0.831000,930,2545006,3580.78,983.89,-3365.1099999999997
832,0.832000,931,2546006,7604.78,578.89,-3263.1099999999997
833,0.832999,932,2547005,8385.78,2.8900000000000006,-2473.1099999999997
834,0.833999,933,2548005,4390.78,-290.11,-1991.1099999999997
835,0.835000,934,2549006,-4416.22,-78.11,-2944.1099999999997
836,0.836000,935,2550006,-1301.22,231.89,-3902.1099999999997
837,0.837000,936,2551006,8701.78,277.89,-4713.11
838,0.838000,937,2552006,17694.78,-136.11,-3058.1099999999997
839,0.838999,938,2553005,19675.78,37.89,-902.1099999999997
840,0.839999,939,2554005,9693.78,554.89,-1579.1099999999997
841,0.841000,940,2555006,-3909.22,644.89,290.8900000000003
842,0.842000,941,2556006,-10297.22,339.89,3883.8900000000003
843,0.842999,942,2557005,-7146.22,-51.11,3226.8900000000003
844,0.844000,943,2558006,-1002.22,-648.11,2748.8900000000003
845,0.845000,944,2559006,4666.78,-1045.11,4300.89
846,0.846000,945,2560006,2535.78,-183.11,2068.8900000000003
847,0.846999,946,2561005,-2175.22,69.89,209.89000000000033
848,0.848000,947,2562006,-12570.22,-543.11,1781.8900000000003
849,0.849000,948,2563006,-22233.22,-891.11,2587.8900000000003
850,0.849999,949,2564005,-20037.22,-381.11,2061.8900000000003
851,0.850999,950,2565005,-14818.22,57.89,1830.8900000000003
852,0.852000,951,2566006,-3729.22,91.89,2852.8900000000003
853,0.853000,952,2567006,5564.78,-313.11,1821.8900000000003
854,0.854000,953,2568006,7166.78,-278.11,-151.10999999999967
855,0.855000,954,2569006,3842.78,781.89,-1359.1099999999997
856,0.856000,955,2570006,3184.78,1125.89,-3392.1099999999997
857,0.857000,956,2571006,7554.78,681.89,-3465.1099999999997
858,0.858000,957,2572006,8441.78,-276.11,-2468.1099999999997
859,0.859000,958,2573006,4862.78,-307.11,-2117.1099999999997
860,0.859999,959,2574005,-3374.22,-188.11,-2724.1099999999997
861,0.861000,960,2575006,-1775.22,41.89,-3578.1099999999997
862,0.862000,961,2576006,6867.78,729.89,-4756.11
863,0.863000,962,2577006,16184.78,23.89,-3577.1099999999997
864,0.864000,963,2578006,20687.78,-284.11,-749.1099999999997
865,0.865000,964,2579006,11437.78,471.89,-997.1099999999997
866,0.866000,965,2580006,-1997.22,808.89,-178.10999999999967
867,0.867000,966,2581006,-9952.22,514.89,3189.8900000000003
868,0.868000,967,2582006,-8632.22,-101.11,3627.8900000000003
869,0.868999,968,2583005,-1957.22,-622.11,2647.8900000000003
870,0.870000,969,2584006,4205.78,-715.11,3810.8900000000003
871,0.871000,970,2585006,3671.78,-437.11,2496.8900000000003
872,0.872000,971,2586006,-1190.22,-142.11,209.89000000000033
873,0.873000,972,2587006,-10748.22,-371.11,1452.8900000000003
874,0.874000,973,2588006,-21942.22,-860.11,2651.8900000000003
875,0.875000,974,2589006,-21034.22,-305.11,2116.8900000000003
876,0.876000,975,2590006,-15670.22,-151.11,1883.8900000000003
877,0.877000,976,2591006,-5150.22,-338.11,3043.8900000000003
878,0.878000,977,2592006,5057.78,180.89,1773.8900000000003
879,0.879000,978,2593006,7148.78,9.89,42.89000000000033
880,0.879999,979,2594005,4750.78,450.89,-815.1099999999997
881,0.881000,980,2595006,3035.78,1081.89,-3200.1099999999997
882,0.882000,981,2596006,6600.78,582.89,-3537.1099999999997
883,0.883000,982,2597006,7943.78,114.89,-2580.1099999999997
884,0.884000,983,2598006,5715.78,-439.11,-1972.1099999999997
885,0.885000,984,2599006,-2177.22,-58.11,-2930.1099999999997
886,0.886000,985,2600006,-2623.22,202.89,-3702.1099999999997
887,0.886999,986,2601005,5402.78,175.89,-4474.11
888,0.888000,987,2602006,14765.78,283.89,-3966.1099999999997
889,0.888999,988,2603005,20713.78,-323.11,-871.1099999999997
890,0.889999,989,2604005,13676.78,0.8900000000000006,-974.1099999999997
891,0.890999,990,2605005,-774.22,1321.89,-698.1099999999997
892,0.891999,991,2606005,-9223.22,589.89,3274.8900000000003
893,0.892999,992,2607005,-8827.22,-259.11,3689.8900000000003
894,0.894000,993,2608006,-3377.22,-98.11,2499.8900000000003
895,0.894999,994,2609005,4320.78,-1318.11,4076.8900000000003
896,0.896000,995,2610006,3800.78,-275.11,2695.8900000000003
897,0.897000,996,2611006,-2128.22,215.89,181.89000000000033
898,0.898000,997,2612006,-7697.22,-887.11,1539.8900000000003
899,0.899000,998,2613006,-20209.22,-444.11,2501.8900000000003
900,0.899999,999,2614005,-21411.22,-529.11,2210.8900000000003
901,0.901000,1000,2615006,-16449.22,-324.11,1831.8900000000003
902,0.901999,1001,2616005,-7876.22,123.89,2593.8900000000003
903,0.903000,1002,2617006,3911.78,-228.11,2280.8900000000003
904,0.904000,1003,2618006,6668.78,-165.11,153.89000000000033
905,0.905000,1004,2619006,5284.78,633.89,-884.1099999999997
906,0.906000,1005,2620006,3578.78,943.89,-2832.1099999999997
907,0.907000,1006,2621006,6195.78,948.89,-3582.1099999999997
908,0.908000,1007,2622006,7815.78,175.89,-2877.1099999999997
909,0.909000,1008,2623006,6952.78,-558.11,-1938.1099999999997
910,0.909999,1009,2624005,-516.22,-63.11,-2215.1099999999997
911,0.911000,1010,2625006,-3846.22,390.89,-3546.1099999999997
912,0.912000,1011,2626006,3154.78,326.89,-4628.11
913,0.913000,1012,2627006,13823.78,-266.11,-4024.1099999999997
914,0.914000,1013,2628006,21049.78,-337.11,-1249.1099999999997
915,0.914999,1014,2629005,15666.78,519.89,-881.1099999999997
916,0.916000,1015,2630006,1077.78,917.89,-1038.1099999999997
917,0.917000,1016,2631006,-9275.22,550.89,2205.8900000000003
918,0.918000,1017,2632006,-9750.22,109.89,4074.8900000000003
919,0.918999,1018,2633005,-3443.22,-520.11,2931.8900000000003
920,0.920000,1019,2634006,3310.78,-863.11,3474.8900000000003
921,0.921000,1020,2635006,4376.78,-540.11,3150.8900000000003
922,0.922000,1021,2636006,-609.22,-153.11,584.8900000000003
923,0.922999,1022,2637005,-7996.22,-137.11,938.8900000000003
924,0.924000,1023,2638006,-18444.22,-994.11,2652.8900000000003
925,0.925000,1024,2639006,-21351.22,-440.11,2130.8900000000003
926,0.925999,1025,2640005,-18452.22,2.8900000000000006,1703.8900000000003
927,0.927000,1026,2641006,-8343.22,-392.11,2841.8900000000003
928,0.928000,1027,2642006,3345.78,223.89,2202.8900000000003
929,0.929000,1028,2643006,6687.78,-21.11,639.8900000000003
930,0.930000,1029,2644006,5590.78,147.89,-671.1099999999997
931,0.931000,1030,2645006,3048.78,1169.89,-2833.1099999999997
932,0.932000,1031,2646006,5743.78,908.89,-3507.1099999999997
933,0.933000,1032,2647006,7724.78,189.89,-2929.1099999999997
934,0.934000,1033,2648006,7285.78,-409.11,-2002.1099999999997
935,0.935000,1034,2649006,896.78,-378.11,-2385.1099999999997
936,0.936000,1035,2650006,-4395.22,476.89,-3504.1099999999997
937,0.937000,1036,2651006,1519.78,271.89,-4097.11
938,0.938000,1037,2652006,12393.78,-12.11,-4498.11
939,0.939000,1038,2653006,20348.78,-172.11,-1908.1099999999997
940,0.940000,1039,2654006,17025.78,50.89,-571.1099999999997
941,0.940999,1040,2655005,3425.78,956.89,-1203.1099999999997
942,0.942000,1041,2656006,-8322.22,821.89,2026.8900000000003
943,0.943000,1042,2657006,-9775.22,-73.11,4166.89
944,0.944000,1043,2658006,-4449.22,-221.11,2833.8900000000003
945,0.945000,1044,2659006,2500.78,-831.11,3721.8900000000003
946,0.945999,1045,2660005,4422.78,-869.11,3695.8900000000003
947,0.947000,1046,2661006,-665.22,35.89,560.8900000000003
948,0.948000,1047,2662006,-6158.22,-212.11,721.8900000000003
949,0.949000,1048,2663006,-16296.22,-878.11,2359.8900000000003
950,0.950000,1049,2664006,-20616.22,-533.11,2247.8900000000003
951,0.950999,1050,2665005,-19406.22,-111.11,1659.8900000000003
952,0.952000,1051,2666006,-10590.22,-240.11,2055.8900000000003
953,0.953000,1052,2667006,1869.78,260.89,2699.8900000000003
954,0.954000,1053,2668006,6053.78,-230.11,876.8900000000003
955,0.954999,1054,2669005,5929.78,-72.11,-587.1099999999997
956,0.956000,1055,2670006,3369.78,1028.89,-2255.1099999999997
957,0.957000,1056,2671006,5446.78,992.89,-3484.1099999999997
958,0.958000,1057,2672006,7651.78,465.89,-2898.1099999999997
959,0.959000,1058,2673006,7669.78,-422.11,-2346.1099999999997
960,0.959999,1059,2674005,2235.78,-329.11,-2134.1099999999997
961,0.961000,1060,2675006,-4878.22,413.89,-3070.1099999999997
962,0.962000,1061,2676006,237.78,323.89,-3907.1099999999997
963,0.963000,1062,2677006,10309.78,171.89,-4702.11
964,0.964000,1063,2678006,19687.78,-91.11,-2457.1099999999997
965,0.965000,1064,2679006,18901.78,-228.11,-351.1099999999997
966,0.966000,1065,2680006,5659.78,449.89,-1258.1099999999997
967,0.967000,1066,2681006,-7036.22,920.89,1231.8900000000003
968,0.968000,1067,2682006,-10817.22,265.89,4004.8900000000003
969,0.969000,1068,2683006,-5152.22,-237.11,3024.8900000000003
970,0.970000,1069,2684006,1438.78,-779.11,3091.8900000000003
971,0.971000,1070,2685006,5099.78,-765.11,3870.8900000000003
972,0.972000,1071,2686006,1095.78,-38.11,1296.8900000000003
973,0.973000,1072,2687006,-4203.22,-132.11,621.8900000000003
974,0.974000,1073,2688006,-15141.22,-818.11,2328.8900000000003
975,0.974999,1074,2689005,-22069.22,-863.11,2286.8900000000003
976,0.975999,1075,2690005,-19854.22,143.89,1658.8900000000003
977,0.976999,1076,2691005,-12637.22,-108.11,2337.8900000000003
978,0.978000,1077,2692006,467.78,-408.11,2767.8900000000003
979,0.979000,1078,2693006,6069.78,105.89,446.8900000000003
980,0.979999,1079,2694005,6341.78,-0.10999999999999943,-418.1099999999997
981,0.981000,1080,2695006,3131.78,745.89,-1667.1099999999997
982,0.982000,1081,2696006,3952.78,1230.89,-3521.1099999999997
983,0.983000,1082,2697006,7695.78,516.89,-3149.1099999999997
984,0.984000,1083,2698006,8265.78,-220.11,-2026.1099999999997
985,0.985000,1084,2699006,3817.78,-479.11,-1828.1099999999997
986,0.986000,1085,2700006,-4306.22,344.89,-3162.1099999999997
987,0.987000,1086,2701006,-387.22,319.89,-3739.1099999999997
988,0.988000,1087,2702006,9360.78,92.89,-4713.11
989,0.988999,1088,2703005,17995.78,93.89,-3024.1099999999997
990,0.990000,1089,2704006,19087.78,-373.11,-527.1099999999997
991,0.990999,1090,2705005,8116.78,137.89,-1095.1099999999997
992,0.992000,1091,2706006,-4404.22,1138.89,667.8900000000003
993,0.993000,1092,2707006,-10484.22,720.89,3699.8900000000003
994,0.994000,1093,2708006,-6237.22,-512.11,3227.8900000000003
995,0.995000,1094,2709006,-550.22,-790.11,2705.8900000000003
996,0.996000,1095,2710006,4149.78,-611.11,3887.8900000000003
997,0.997000,1096,2711006,2711.78,-373.11,1650.8900000000003
998,0.998000,1097,2712006,-3000.22,-91.11,225.89000000000033
999,0.998999,1098,2713005,-14493.22,-513.11,2104.8900000000003
1000,1.000000,1099,2714006,-22301.22,-1002.11,2457.8900000000003
1001,1.001000,1100,2715006,-19418.22,-123.11,2194.8900000000003
1002,1.001999,1101,2716005,-13992.22,3.8900000000000006,2337.8900000000003
1003,1.003000,1102,2717006,-1654.22,117.89,2581.8900000000003
1004,1.004000,1103,2718006,6221.78,-128.11,1377.8900000000003
1005,1.005000,1104,2719006,6733.78,-284.11,-112.10999999999967
1006,1.005999,1105,2720005,3110.78,1096.89,-1863.1099999999997
1007,1.007000,1106,2721006,3391.78,1028.89,-3532.1099999999997
1008,1.008000,1107,2722006,8069.78,431.89,-3426.1099999999997
1009,1.009000,1108,2723006,8543.78,-103.11,-2477.1099999999997
1010,1.009999,1109,2724005,4062.78,-424.11,-1934.1099999999997
1011,1.010999,1110,2725005,-3860.22,131.89,-2940.1099999999997
1012,1.012000,1111,2726006,-1142.22,208.89,-3736.1099999999997
1013,1.013000,1112,2727006,8129.78,380.89,-4840.11
1014,1.014000,1113,2728006,17124.78,-42.11,-3166.1099999999997
1015,1.015000,1114,2729006,20222.78,-321.11,-321.1099999999997
1016,1.015999,1115,2730005,10147.78,409.89,-1048.1099999999997
1017,1.017000,1116,2731006,-3860.22,836.89,97.89000000000033
1018,1.018000,1117,2732006,-10486.22,350.89,3545.8900000000003
1019,1.019000,1118,2733006,-7843.22,-53.11,3381.8900000000003
1020,1.020000,1119,2734006,-894.22,-435.11,2621.8900000000003
1021,1.020999,1120,2735005,4955.78,-1037.11,4129.89
1022,1.022000,1121,2736006,3040.78,-198.11,2093.8900000000003
1023,1.023000,1122,2737006,-1644.22,-13.11,-46.10999999999967
1024,1.024000,1123,2738006,-13803.22,-527.11,1702.8900000000003
1025,1.025000,1124,2739006,-22674.22,-851.11,2680.8900000000003
1026,1.026000,1125,2740006,-19755.22,-283.11,1891.8900000000003
1027,1.027000,1126,2741006,-14802.22,-69.11,1983.8900000000003
1028,1.028000,1127,2742006,-2609.22,-415.11,3192.8900000000003
1029,1.029000,1128,2743006,5492.78,215.89,1445.8900000000003
1030,1.030000,1129,2744006,6772.78,50.89,20.890000000000327
1031,1.031000,1130,2745006,3939.78,534.89,-1251.1099999999997
1032,1.032000,1131,2746006,3231.78,1197.89,-3550.1099999999997
1033,1.033000,1132,2747006,7388.78,536.89,-3245.1099999999997
1034,1.034000,1133,2748006,8808.78,60.89,-2366.1099999999997
1035,1.035000,1134,2749006,4921.78,-45.11,-2144.1099999999997
1036,1.036000,1135,2750006,-3858.22,-200.11,-2848.1099999999997
1037,1.036999,1136,2751005,-1853.22,-201.11,-3537.1099999999997
1038,1.038000,1137,2752006,6988.78,386.89,-4771.11
1039,1.039000,1138,2753006,16021.78,215.89,-3708.1099999999997
1040,1.040000,1139,2754006,20953.78,-259.11,-663.1099999999997
1041,1.041000,1140,2755006,11606.78,342.89,-1184.1099999999997
1042,1.041999,1141,2756005,-2240.22,1034.89,-336.1099999999997
1043,1.043000,1142,2757006,-9975.22,367.89,3559.8900000000003
1044,1.044000,1143,2758006,-8742.22,-102.11,3522.8900000000003
1045,1.045000,1144,2759006,-1771.22,-473.11,2665.8900000000003
1046,1.045999,1145,2760005,4582.78,-1161.11,4150.89
1047,1.047000,1146,2761006,3296.78,-372.11,2281.8900000000003
1048,1.047999,1147,2762005,-2016.22,107.89,91.89000000000033
1049,1.049000,1148,2763006,-10543.22,-498.11,1723.8900000000003
1050,1.050000,1149,2764006,-21971.22,-788.11,2639.8900000000003
1051,1.050999,1150,2765005,-20757.22,-275.11,1927.8900000000003
1052,1.052000,1151,2766006,-14982.22,-286.11,1750.8900000000003
1053,1.053000,1152,2767006,-5586.22,214.89,2830.8900000000003
1054,1.054000,1153,2768006,4122.78,302.89,1977.8900000000003
1055,1.054999,1154,2769005,7151.78,-463.11,120.89000000000033
1056,1.056000,1155,2770006,5373.78,290.89,-986.1099999999997
1057,1.057000,1156,2771006,3298.78,1027.89,-2995.1099999999997
1058,1.058000,1157,2772006,6642.78,944.89,-3656.1099999999997
1059,1.059000,1158,2773006,8421.78,56.89,-2618.1099999999997
1060,1.060000,1159,2774006,5919.78,-723.11,-1905.1099999999997
1061,1.061000,1160,2775006,-2077.22,-7.109999999999999,-2795.1099999999997
1062,1.061999,1161,2776005,-2840.22,235.89,-3490.1099999999997
1063,1.062999,1162,2777005,5076.78,311.89,-4528.11
1064,1.063999,1163,2778005,14853.78,257.89,-4108.11
1065,1.065000,1164,2779006,21178.78,-398.11,-733.1099999999997
1066,1.066000,1165,2780006,13403.78,402.89,-876.1099999999997
1067,1.067000,1166,2781006,-687.22,974.89,-810.1099999999997
1068,1.068000,1167,2782006,-9805.22,510.89,2949.8900000000003
1069,1.069000,1168,2783006,-9238.22,-19.11,3670.8900000000003
1070,1.069999,1169,2784005,-2554.22,-565.11,2666.8900000000003
1071,1.071000,1170,2785006,4094.78,-1025.11,3967.8900000000003
1072,1.072000,1171,2786006,4505.78,-456.11,2992.8900000000003
1073,1.073000,1172,2787006,-1799.22,85.89,127.89000000000033
1074,1.074000,1173,2788006,-9053.22,-386.11,1341.8900000000003
1075,1.074999,1174,2789005,-20498.22,-801.11,2716.8900000000003
1076,1.076000,1175,2790006,-21479.22,-412.11,2071.8900000000003
1077,1.076999,1176,2791005,-16483.22,-237.11,1734.8900000000003
1078,1.078000,1177,2792006,-6938.22,-291.11,2622.8900000000003
1079,1.079000,1178,2793006,4185.78,335.89,2113.8900000000003
1080,1.079999,1179,2794005,6960.78,-17.11,310.8900000000003
1081,1.080999,1180,2795005,4998.78,199.89,-828.1099999999997
1082,1.082000,1181,2796006,2968.78,1081.89,-2875.1099999999997
1083,1.083000,1182,2797006,6343.78,943.89,-3560.1099999999997
1084,1.084000,1183,2798006,8321.78,72.89,-2801.1099999999997
1085,1.085000,1184,2799006,6547.78,-325.11,-2001.1099999999997
1086,1.085999,1185,2800005,-370.22,-235.11,-2347.1099999999997
1087,1.087000,1186,2801006,-3464.22,126.89,-3435.1099999999997
1088,1.088000,1187,2802006,2396.78,599.89,-4552.11
1089,1.088999,1188,2803005,13816.78,-298.11,-4253.11
1090,1.090000,1189,2804006,21085.78,-316.11,-1280.1099999999997
1091,1.091000,1190,2805006,15212.78,632.89,-816.1099999999997
1092,1.092000,1191,2806006,1943.78,664.89,-881.1099999999997
1093,1.093000,1192,2807006,-9433.22,668.89,2316.8900000000003
1094,1.094000,1193,2808006,-9822.22,189.89,3852.8900000000003
1095,1.095000,1194,2809006,-3314.22,-595.11,2796.8900000000003
1096,1.096000,1195,2810006,3206.78,-1036.11,3792.8900000000003
1097,1.097000,1196,2811006,4551.78,-537.11,3421.8900000000003
1098,1.098000,1197,2812006,-1250.22,46.89,350.8900000000003
1099,1.098999,1198,2813005,-8258.22,-52.11,816.8900000000003
1100,1.100000,1199,2814006,-17967.22,-1146.11,2785.8900000000003
1101,1.100999,1200,2815005,-21074.22,-471.11,2383.8900000000003
1102,1.102000,1201,2816006,-18242.22,203.89,1627.8900000000003
1103,1.103000,1202,2817006,-8069.22,-633.11,2984.8900000000003
1104,1.104000,1203,2818006,2875.78,301.89,2207.8900000000003
1105,1.105000,1204,2819006,6319.78,-54.11,285.8900000000003
1106,1.106000,1205,2820006,5197.78,13.89,-702.1099999999997
1107,1.107000,1206,2821006,3491.78,1199.89,-2858.1099999999997
1108,1.107999,1207,2822005,6154.78,916.89,-3337.1099999999997
1109,1.109000,1208,2823006,7214.78,417.89,-3005.1099999999997
1110,1.110000,1209,2824006,7599.78,-474.11,-2224.1099999999997
1111,1.111000,1210,2825006,833.78,-552.11,-2169.1099999999997
1112,1.112000,1211,2826006,-4568.22,572.89,-3262.1099999999997
1113,1.113000,1212,2827006,2184.78,275.89,-4232.11
1114,1.113999,1213,2828005,12170.78,112.89,-4637.11
1115,1.115000,1214,2829006,20861.78,-294.11,-1566.1099999999997
1116,1.116000,1215,2830006,17557.78,-99.11,-559.1099999999997
1117,1.117000,1216,2831006,2927.78,1028.89,-1254.1099999999997
1118,1.118000,1217,2832006,-9074.22,642.89,2087.8900000000003
1119,1.119000,1218,2833006,-10386.22,-9.11,3971.8900000000003
1120,1.120000,1219,2834006,-4132.22,-106.11,2578.8900000000003
1121,1.121000,1220,2835006,3157.78,-889.11,3708.8900000000003
1122,1.121999,1221,2836005,4935.78,-951.11,3865.8900000000003
1123,1.123000,1222,2837006,-735.22,263.89,572.8900000000003
1124,1.123999,1223,2838005,-6739.22,-70.11,766.8900000000003
1125,1.125000,1224,2839006,-17152.22,-1101.11,2640.8900000000003
1126,1.125999,1225,2840005,-21120.22,-438.11,2443.8900000000003
1127,1.127000,1226,2841006,-19642.22,277.89,1612.8900000000003
1128,1.128000,1227,2842006,-9869.22,-580.11,2679.8900000000003
1129,1.129000,1228,2843006,2805.78,35.89,2511.8900000000003
1130,1.130000,1229,2844006,6242.78,131.89,308.8900000000003
1131,1.131000,1230,2845006,5669.78,-5.109999999999999,-495.1099999999997
1132,1.132000,1231,2846006,2956.78,998.89,-2608.1099999999997
1133,1.133000,1232,2847006,5039.78,856.89,-3848.1099999999997
1134,1.134000,1233,2848006,7599.78,373.89,-2807.1099999999997
1135,1.135000,1234,2849006,8074.78,-234.11,-1985.1099999999997
1136,1.136000,1235,2850006,1752.78,-154.11,-2410.1099999999997
1137,1.137000,1236,2851006,-4300.22,296.89,-3283.1099999999997
1138,1.137999,1237,2852005,1030.78,164.89,-3944.1099999999997
1139,1.139000,1238,2853006,11045.78,220.89,-4707.11
1140,1.139999,1239,2854005,20197.78,-24.11,-2183.1099999999997
1141,1.140999,1240,2855005,18611.78,-190.11,-431.1099999999997
1142,1.142000,1241,2856006,4691.78,694.89,-1260.1099999999997
1143,1.143000,1242,2857006,-7594.22,812.89,1662.8900000000003
1144,1.144000,1243,2858006,-10147.22,44.89,4092.8900000000003
1145,1.145000,1244,2859006,-5485.22,-207.11,2772.8900000000003
1146,1.146000,1245,2860006,1635.78,-974.11,3323.8900000000003
1147,1.147000,1246,2861006,4629.78,-636.11,3670.8900000000003
1148,1.148000,1247,2862006,199.78,48.89,689.8900000000003
1149,1.149000,1248,2863006,-4924.22,-377.11,778.8900000000003
1150,1.150000,1249,2864006,-15860.22,-715.11,2465.8900000000003
1151,1.151000,1250,2865006,-21708.22,-804.11,2274.8900000000003
1152,1.152000,1251,2866006,-19884.22,-38.11,2067.8900000000003
1153,1.153000,1252,2867006,-11822.22,1.8900000000000006,2403.8900000000003
1154,1.154000,1253,2868006,1682.78,-208.11,2835.8900000000003
1155,1.155000,1254,2869006,6574.78,6.890000000000001,953.8900000000003
1156,1.156000,1255,2870006,6031.78,222.89,-711.1099999999997
1157,1.157000,1256,2871006,3025.78,831.89,-2206.1099999999997
1158,1.158000,1257,2872006,4127.78,1028.89,-3775.1099999999997
1159,1.158999,1258,2873005,8393.78,473.89,-3386.1099999999997
1160,1.159999,1259,2874005,8207.78,-457.11,-2049.1099999999997
1161,1.161000,1260,2875006,2575.78,-469.11,-1933.1099999999997
1162,1.161999,1261,2876005,-4555.22,376.89,-3331.1099999999997
1163,1.163000,1262,2877006,-205.22,395.89,-3894.1099999999997
1164,1.164000,1263,2878006,10183.78,225.89,-4580.11
1165,1.165000,1264,2879006,19067.78,-228.11,-2448.1099999999997
1166,1.166000,1265,2880006,19888.78,-197.11,-332.1099999999997
1167,1.167000,1266,2881006,6520.78,846.89,-1377.1099999999997
1168,1.168000,1267,2882006,-6547.22,977.89,1003.8900000000003
1169,1.168999,1268,2883005,-10802.22,165.89,3973.8900000000003
1170,1.170000,1269,2884006,-6382.22,-181.11,2950.8900000000003
1171,1.171000,1270,2885006,1250.78,-878.11,3150.8900000000003
1172,1.172000,1271,2886006,4869.78,-827.11,3902.8900000000003
1173,1.172999,1272,2887005,1641.78,-61.11,1286.8900000000003
1174,1.174000,1273,2888006,-3648.22,-260.11,580.8900000000003
1175,1.175000,1274,2889006,-15617.22,-543.11,2025.8900000000003
1176,1.176000,1275,2890006,-22237.22,-893.11,2405.8900000000003
1177,1.177000,1276,2891006,-20199.22,-25.11,2006.8900000000003
1178,1.178000,1277,2892006,-13376.22,151.89,2122.8900000000003
1179,1.178999,1278,2893005,654.78,-318.11,2649.8900000000003
1180,1.180000,1279,2894006,6596.78,-237.11,1136.8900000000003
1181,1.181000,1280,2895006,6461.78,66.89,34.89000000000033
1182,1.182000,1281,2896006,3085.78,945.89,-1783.1099999999997
1183,1.182999,1282,2897005,3610.78,1120.89,-3702.1099999999997
1184,1.184000,1283,2898006,8040.78,500.89,-3297.1099999999997
1185,1.185000,1284,2899006,8682.78,-257.11,-2222.1099999999997
1186,1.186000,1285,2900006,3569.78,-362.11,-1852.1099999999997
1187,1.187000,1286,2901006,-4784.22,203.89,-3190.1099999999997
1188,1.188000,1287,2902006,-796.22,248.89,-3854.1099999999997
1189,1.189000,1288,2903006,8900.78,247.89,-4666.11
1190,1.190000,1289,2904006,18101.78,4.890000000000001,-2972.1099999999997
1191,1.191000,1290,2905006,20293.78,-209.11,-437.1099999999997
1192,1.192000,1291,2906006,8989.78,451.89,-1305.1099999999997
1193,1.193000,1292,2907006,-4886.22,980.89,426.8900000000003
1194,1.194000,1293,2908006,-10957.22,342.89,3871.8900000000003
1195,1.195000,1294,2909006,-6642.22,-371.11,3241.8900000000003
1196,1.195999,1295,2910005,-283.22,-653.11,3010.8900000000003
1197,1.197000,1296,2911006,4746.78,-1020.11,4204.89
1198,1.198000,1297,2912006,2022.78,-64.11,1519.8900000000003
1199,1.199000,1298,2913006,-2727.22,-7.109999999999999,43.89000000000033
1200,1.199999,1299,2914005,-13825.22,-780.11,1989.8900000000003
1201,1.200999,1300,2915005,-22645.22,-841.11,2451.8900000000003
1202,1.202000,1301,2916006,-19183.22,-135.11,1840.8900000000003
1203,1.203000,1302,2917006,-14905.22,99.89,2018.8900000000003
1204,1.204000,1303,2918006,-2607.22,-32.11,2901.8900000000003
1205,1.205000,1304,2919006,6487.78,-157.11,1674.8900000000003
1206,1.205999,1305,2920005,7126.78,-267.11,41.89000000000033
1207,1.207000,1306,2921006,3541.78,830.89,-1649.1099999999997
1208,1.208000,1307,2922006,4034.78,850.89,-3196.1099999999997
1209,1.209000,1308,2923006,7945.78,449.89,-3226.1099999999997
1210,1.210000,1309,2924006,8033.78,189.89,-2869.1099999999997
1211,1.211000,1310,2925006,4297.78,-329.11,-2220.1099999999997
1212,1.212000,1311,2926006,-4668.22,76.89,-2983.1099999999997
1213,1.213000,1312,2927006,-871.22,47.89,-3434.1099999999997
1214,1.213999,1313,2928005,8035.78,312.89,-4760.11
1215,1.215000,1314,2929006,16685.78,194.89,-3531.1099999999997
1216,1.215999,1315,2930005,21168.78,-297.11,-384.1099999999997
1217,1.216999,1316,2931005,10266.78,487.89,-1246.1099999999997
1218,1.218000,1317,2932006,-3811.22,904.89,-100.10999999999967
1219,1.219000,1318,2933006,-10446.22,257.89,3573.8900000000003
1220,1.220000,1319,2934006,-7807.22,66.89,3409.8900000000003
1221,1.221000,1320,2935006,-814.22,-577.11,2890.8900000000003
1222,1.222000,1321,2936006,4875.78,-1267.11,4282.89
1223,1.223000,1322,2937006,2894.78,7.890000000000001,2044.8900000000003
1224,1.223999,1323,2938005,-1930.22,4.890000000000001,115.89000000000033
1225,1.225000,1324,2939006,-12525.22,-415.11,1805.8900000000003
1226,1.226000,1325,2940006,-22655.22,-716.11,2400.8900000000003
1227,1.227000,1326,2941006,-20017.22,-698.11,1963.8900000000003
1228,1.227999,1327,2942005,-14769.22,22.89,2066.8900000000003
1229,1.228999,1328,2943005,-3863.22,-233.11,2904.8900000000003
1230,1.230000,1329,2944006,5339.78,21.89,1394.8900000000003
1231,1.231000,1330,2945006,6975.78,17.89,-75.10999999999967
1232,1.232000,1331,2946006,4122.78,560.89,-1099.1099999999997
1233,1.233000,1332,2947006,3364.78,1251.89,-3217.1099999999997
1234,1.233999,1333,2948005,7005.78,627.89,-3402.1099999999997
1235,1.235000,1334,2949006,8598.78,78.89,-2558.1099999999997
1236,1.235999,1335,2950005,5452.78,-520.11,-1779.1099999999997
1237,1.237000,1336,2951006,-3267.22,-155.11,-2658.1099999999997
1238,1.237999,1337,2952005,-2124.22,315.89,-3712.1099999999997
1239,1.239000,1338,2953006,6296.78,296.89,-4850.11
1240,1.240000,1339,2954006,15724.78,71.89,-3884.1099999999997
1241,1.241000,1340,2955006,20473.78,-206.11,-803.1099999999997
1242,1.241999,1341,2956005,12205.78,433.89,-1136.1099999999997
1243,1.243000,1342,2957006,-1358.22,935.89,-404.1099999999997
1244,1.244000,1343,2958006,-9902.22,510.89,3434.8900000000003
1245,1.244999,1344,2959005,-8396.22,-114.11,3648.8900000000003
1246,1.246000,1345,2960006,-2088.22,-506.11,2660.8900000000003
1247,1.247000,1346,2961006,4243.78,-1063.11,4218.89
1248,1.248000,1347,2962006,3422.78,-389.11,2545.8900000000003
1249,1.249000,1348,2963006,-2168.22,130.89,-41.10999999999967
1250,1.250000,1349,2964006,-10068.22,-529.11,1553.8900000000003
1251,1.251000,1350,2965006,-21266.22,-836.11,2679.8900000000003
1252,1.252000,1351,2966006,-20636.22,-430.11,2051.8900000000003
1253,1.252999,1352,2967005,-15482.22,-259.11,1843.8900000000003
1254,1.254000,1353,2968006,-6390.22,165.89,2752.8900000000003
1255,1.255000,1354,2969006,4389.78,216.89,1970.8900000000003
1256,1.256000,1355,2970006,7268.78,-436.11,236.89000000000033
1257,1.256999,1356,2971005,4691.78,474.89,-1030.1099999999997
1258,1.257999,1357,2972005,3501.78,1165.89,-2951.1099999999997
1259,1.259000,1358,2973006,7076.78,829.89,-3453.1099999999997
1260,1.260000,1359,2974006,7918.78,188.89,-2826.1099999999997
1261,1.261000,1360,2975006,6137.78,-500.11,-2096.1099999999997
1262,1.261999,1361,2976005,-1653.22,-262.11,-2588.1099999999997
1263,1.262999,1362,2977005,-3475.22,494.89,-3525.1099999999997
1264,1.264000,1363,2978006,4892.78,148.89,-4694.11
1265,1.265000,1364,2979006,14279.78,-100.11,-4212.11
1266,1.266000,1365,2980006,20846.78,-166.11,-816.1099999999997
1267,1.267000,1366,2981006,14469.78,-76.11,-584.1099999999997
1268,1.268000,1367,2982006,-614.22,1248.89,-1149.1099999999997
1269,1.268999,1368,2983005,-9824.22,727.89,2641.8900000000003
1270,1.269999,1369,2984005,-9068.22,-66.11,3922.8900000000003
1271,1.270999,1370,2985005,-2557.22,-264.11,2760.8900000000003
1272,1.271999,1371,2986005,4274.78,-1005.11,4277.89
1273,1.273000,1372,2987006,4302.78,-497.11,3106.8900000000003
1274,1.273999,1373,2988005,-1927.22,95.89,75.89000000000033
1275,1.275000,1374,2989006,-8736.22,-276.11,1233.8900000000003
1276,1.276000,1375,2990006,-19755.22,-884.11,2783.8900000000003
1277,1.277000,1376,2991006,-21119.22,-559.11,2097.8900000000003
1278,1.278000,1377,2992006,-16518.22,-318.11,1664.8900000000003
1279,1.278999,1378,2993005,-8098.22,-2.1099999999999994,2668.8900000000003
1280,1.279999,1379,2994005,3231.78,269.89,1950.8900000000003
1281,1.281000,1380,2995006,6588.78,-353.11,72.89000000000033
1282,1.282000,1381,2996006,5202.78,223.89,-931.1099999999997
1283,1.282999,1382,2997005,3605.78,1151.89,-2791.1099999999997
1284,1.284000,1383,2998006,6359.78,840.89,-3420.1099999999997
1285,1.284999,1384,2999005,7904.78,176.89,-2619.1099999999997
1286,1.285999,1385,3000005,6759.78,-220.11,-2011.1099999999997
1287,1.287000,1386,3001006,77.78,-57.11,-2332.1099999999997
1288,1.287999,1387,3002005,-3805.22,258.89,-3177.1099999999997
1289,1.288999,1388,3003005,2944.78,284.89,-4444.11
1290,1.290000,1389,3004006,13407.78,108.89,-4515.11
1291,1.290999,1390,3005005,20392.78,-358.11,-1519.1099999999997
1292,1.292000,1391,3006006,15640.78,13.89,-652.1099999999997
1293,1.292999,1392,3007005,1739.78,1021.89,-1151.1099999999997
1294,1.294000,1393,3008006,-8934.22,681.89,2163.8900000000003
1295,1.295000,1394,3009006,-9850.22,-30.11,3936.8900000000003
1296,1.295999,1395,3010005,-3596.22,-327.11,2848.8900000000003
1297,1.297000,1396,3011006,3436.78,-1021.11,3635.8900000000003
1298,1.298000,1397,3012006,4590.78,-487.11,3217.8900000000003
1299,1.299000,1398,3013006,-1255.22,45.89,667.8900000000003
1300,1.299999,1399,3014005,-7374.22,-322.11,1142.8900000000003
1301,1.301000,1400,3015006,-17561.22,-775.11,2705.8900000000003
1302,1.302000,1401,3016006,-21188.22,-552.11,2401.8900000000003
1303,1.302999,1402,3017005,-18527.22,91.89,1949.8900000000003
1304,1.303999,1403,3018005,-8979.22,-241.11,2644.8900000000003
1305,1.305000,1404,3019006,3200.78,139.89,1952.8900000000003
1306,1.306000,1405,3020006,6180.78,-21.11,348.8900000000003
1307,1.307000,1406,3021006,5085.78,-163.11,-548.1099999999997
1308,1.307999,1407,3022005,3064.78,892.89,-2802.1099999999997
1309,1.308999,1408,3023005,5784.78,1016.89,-3722.1099999999997
1310,1.310000,1409,3024006,7968.78,310.89,-3007.1099999999997
1311,1.311000,1410,3025006,7385.78,-609.11,-1931.1099999999997
1312,1.311999,1411,3026005,1273.78,-379.11,-2114.1099999999997
1313,1.313000,1412,3027006,-4228.22,571.89,-3397.1099999999997
1314,1.314000,1413,3028006,1331.78,598.89,-4245.11
1315,1.314999,1414,3029005,12395.78,70.89,-4448.11
1316,1.316000,1415,3030006,20785.78,-412.11,-1642.1099999999997
1317,1.316999,1416,3031005,17349.78,249.89,-584.1099999999997
1318,1.318000,1417,3032006,3688.78,904.89,-1260.1099999999997
1319,1.319000,1418,3033006,-8618.22,628.89,1779.8900000000003
1320,1.320000,1419,3034006,-10494.22,26.89,4105.89
1321,1.321000,1420,3035006,-4739.22,-305.11,2689.8900000000003
1322,1.322000,1421,3036006,2686.78,-734.11,3406.8900000000003
1323,1.322999,1422,3037005,4822.78,-837.11,3773.8900000000003
1324,1.324000,1423,3038006,146.78,-144.11,655.8900000000003
1325,1.325000,1424,3039006,-6375.22,-58.11,686.8900000000003
1326,1.326000,1425,3040006,-17499.22,-923.11,2336.8900000000003
1327,1.327000,1426,3041006,-21158.22,-500.11,2447.8900000000003
1328,1.327999,1427,3042005,-20037.22,90.89,1825.8900000000003
1329,1.328999,1428,3043005,-10177.22,-124.11,2212.8900000000003
1330,1.330000,1429,3044006,3212.78,100.89,2814.8900000000003
1331,1.331000,1430,3045006,6376.78,-230.11,963.8900000000003
1332,1.332000,1431,3046006,5588.78,36.89,-499.1099999999997
1333,1.333000,1432,3047006,2797.78,947.89,-2379.1099999999997
1334,1.333999,1433,3048005,5006.78,1056.89,-3819.1099999999997
1335,1.335000,1434,3049006,7963.78,361.89,-2935.1099999999997
1336,1.336000,1435,3050006,8018.78,-392.11,-2032.1099999999997
1337,1.337000,1436,3051006,2331.78,-64.11,-2500.1099999999997
1338,1.338000,1437,3052006,-4569.22,182.89,-3356.1099999999997
1339,1.339000,1438,3053006,132.78,-21.11,-3832.1099999999997
1340,1.340000,1439,3054006,10668.78,157.89,-4829.11
1341,1.341000,1440,3055006,20160.78,-283.11,-2302.1099999999997
1342,1.342000,1441,3056006,18648.78,20.89,-292.1099999999997
1343,1.343000,1442,3057006,5580.78,876.89,-1340.1099999999997
1344,1.344000,1443,3058006,-7160.22,993.89,1320.8900000000003
1345,1.345000,1444,3059006,-10533.22,69.89,4210.89
1346,1.346000,1445,3060006,-5285.22,-202.11,3009.8900000000003
1347,1.347000,1446,3061006,1320.78,-758.11,3307.8900000000003
1348,1.347999,1447,3062005,4962.78,-1039.11,3972.8900000000003
1349,1.349000,1448,3063006,556.78,79.89,944.8900000000003
1350,1.350000,1449,3064006,-5361.22,-160.11,510.8900000000003
1351,1.351000,1450,3065006,-15259.22,-958.11,2366.8900000000003
1352,1.352000,1451,3066006,-21388.22,-684.11,2064.8900000000003
1353,1.352999,1452,3067005,-20320.22,-25.11,1693.8900000000003
1354,1.354000,1453,3068006,-12349.22,-198.11,2319.8900000000003
1355,1.355000,1454,3069006,834.78,230.89,2572.8900000000003
1356,1.355999,1455,3070005,6367.78,29.89,1055.8900000000003
1357,1.356999,1456,3071005,6336.78,-195.11,-155.10999999999967
1358,1.358000,1457,3072006,3706.78,814.89,-1917.1099999999997
1359,1.358999,1458,3073005,4725.78,1061.89,-3466.1099999999997
1360,1.359999,1459,3074005,7740.78,534.89,-3054.1099999999997
1361,1.360999,1460,3075005,8215.78,-208.11,-2373.1099999999997
1362,1.362000,1461,3076006,2787.78,-311.11,-2378.1099999999997
1363,1.363000,1462,3077006,-4566.22,-70.11,-3070.1099999999997
1364,1.363999,1463,3078005,21.78,91.89,-3652.1099999999997
1365,1.365000,1464,3079006,9504.78,517.89,-5014.11
1366,1.366000,1465,3080006,18524.78,51.89,-2946.1099999999997
1367,1.367000,1466,3081006,19467.78,-315.11,-191.10999999999967
1368,1.367999,1467,3082005,7206.78,626.89,-1371.1099999999997
1369,1.369000,1468,3083006,-5626.22,906.89,663.8900000000003
1370,1.370000,1469,3084006,-10611.22,204.89,4036.8900000000003
1371,1.371000,1470,3085006,-6256.22,-71.11,3179.8900000000003
1372,1.372000,1471,3086006,724.78,-724.11,3130.8900000000003
1373,1.373000,1472,3087006,4867.78,-991.11,4090.8900000000003
1374,1.373999,1473,3088005,1755.78,-46.11,1507.8900000000003
1375,1.375000,1474,3089006,-3178.22,-159.11,486.8900000000003
1376,1.375999,1475,3090005,-15145.22,-563.11,2180.8900000000003
1377,1.377000,1476,3091006,-23001.22,-758.11,2165.8900000000003
1378,1.378000,1477,3092006,-19390.22,-298.11,1812.8900000000003
1379,1.378999,1478,3093005,-13544.22,134.89,2027.8900000000003
1380,1.380000,1479,3094006,-714.22,55.89,2712.8900000000003
1381,1.381000,1480,3095006,6169.78,-190.11,1243.8900000000003
1382,1.381999,1481,3096005,6551.78,-270.11,-304.1099999999997
1383,1.383000,1482,3097006,3747.78,736.89,-1674.1099999999997
1384,1.384000,1483,3098006,3467.78,1327.89,-3505.1099999999997
1385,1.385000,1484,3099006,7963.78,589.89,-3060.1099999999997
1386,1.386000,1485,3100006,8554.78,-309.11,-2195.1099999999997
1387,1.386999,1486,3101005,4265.78,-211.11,-2052.1099999999997
1388,1.388000,1487,3102006,-4315.22,88.89,-2974.1099999999997
1389,1.389000,1488,3103006,-995.22,65.89,-3639.1099999999997
1390,1.390000,1489,3104006,8399.78,369.89,-4817.11
1391,1.391000,1490,3105006,17026.78,105.89,-3387.1099999999997
1392,1.392000,1491,3106006,20105.78,-383.11,-451.1099999999997
1393,1.392999,1492,3107005,9481.78,445.89,-1072.1099999999997
1394,1.394000,1493,3108006,-3835.22,1131.89,212.89000000000033
1395,1.395000,1494,3109006,-10427.22,210.89,3640.8900000000003
1396,1.395999,1495,3110005,-7616.22,-205.11,3284.8900000000003
1397,1.396999,1496,3111005,-691.22,-545.11,2917.8900000000003
1398,1.398000,1497,3112006,4807.78,-1059.11,4046.8900000000003
1399,1.398999,1498,3113005,2543.78,-302.11,1753.8900000000003
1400,1.400000,1499,3114006,-2378.22,39.89,367.8900000000003
1401,1.400999,1500,3115005,-13388.22,-243.11,1909.8900000000003
1402,1.402000,1501,3116006,-22733.22,-985.11,2491.8900000000003
1403,1.403000,1502,3117006,-19753.22,-397.11,2103.8900000000003
1404,1.404000,1503,3118006,-14123.22,170.89,2067.8900000000003
1405,1.405000,1504,3119006,-2874.22,-190.11,2924.8900000000003
1406,1.406000,1505,3120006,5624.78,-43.11,1394.8900000000003
1407,1.407000,1506,3121006,6866.78,5.890000000000001,-349.1099999999997
1408,1.408000,1507,3122006,3973.78,722.89,-1425.1099999999997
1409,1.409000,1508,3123006,3227.78,1140.89,-3320.1099999999997
1410,1.410000,1509,3124006,7685.78,468.89,-3482.1099999999997
1411,1.411000,1510,3125006,8456.78,342.89,-2582.1099999999997
1412,1.411999,1511,3126005,4830.78,-461.11,-1811.1099999999997
1413,1.412999,1512,3127005,-3538.22,-577.11,-2830.1099999999997
1414,1.413999,1513,3128005,-1909.22,341.89,-3784.1099999999997
1415,1.415000,1514,3129006,7193.78,318.89,-4697.11
1416,1.416000,1515,3130006,16235.78,0.8900000000000006,-3521.1099999999997
1417,1.417000,1516,3131006,20153.78,135.89,-741.1099999999997
1418,1.418000,1517,3132006,11311.78,417.89,-1169.1099999999997
1419,1.419000,1518,3133006,-2405.22,629.89,-106.10999999999967
1420,1.419999,1519,3134005,-10433.22,514.89,3509.8900000000003
1421,1.421000,1520,3135006,-7785.22,-98.11,3681.8900000000003
1422,1.421999,1521,3136005,-1533.22,-520.11,2813.8900000000003
1423,1.423000,1522,3137006,4793.78,-1078.11,4063.8900000000003
1424,1.424000,1523,3138006,3591.78,-319.11,2256.8900000000003
1425,1.425000,1524,3139006,-2225.22,36.89,172.89000000000033
1426,1.426000,1525,3140006,-11638.22,-487.11,1693.8900000000003
1427,1.427000,1526,3141006,-22414.22,-811.11,2324.8900000000003
1428,1.428000,1527,3142006,-20384.22,-491.11,1962.8900000000003
1429,1.429000,1528,3143006,-14961.22,-174.11,1977.8900000000003
1430,1.430000,1529,3144006,-4657.22,-84.11,2870.8900000000003
1431,1.431000,1530,3145006,5058.78,86.89,1592.8900000000003
1432,1.432000,1531,3146006,6679.78,-147.11,-94.10999999999967
1433,1.433000,1532,3147006,4449.78,639.89,-987.1099999999997
1434,1.433999,1533,3148005,3549.78,1057.89,-3078.1099999999997
1435,1.435000,1534,3149006,6864.78,829.89,-3325.1099999999997
1436,1.436000,1535,3150006,8314.78,168.89,-2616.1099999999997
1437,1.437000,1536,3151006,5888.78,-607.11,-1963.1099999999997
1438,1.437999,1537,3152005,-2668.22,-69.11,-2594.1099999999997
1439,1.439000,1538,3153006,-2573.22,315.89,-3450.1099999999997
1440,1.440000,1539,3154006,5808.78,287.89,-4791.11
1441,1.440999,1540,3155005,15132.78,-0.10999999999999943,-4220.11
1442,1.442000,1541,3156006,20715.78,-88.11,-849.1099999999997
1443,1.443000,1542,3157006,12784.78,538.89,-1042.1099999999997
1444,1.444000,1543,3158006,-1061.22,774.89,-654.1099999999997
1445,1.445000,1544,3159006,-9588.22,203.89,3278.8900000000003
1446,1.445999,1545,3160005,-9019.22,-41.11,3665.8900000000003
1447,1.447000,1546,3161006,-2055.22,-333.11,2725.8900000000003
1448,1.447999,1547,3162005,4333.78,-1326.11,4397.89
1449,1.448999,1548,3163005,3654.78,-362.11,2577.8900000000003
1450,1.449999,1549,3164005,-2252.22,324.89,-94.10999999999967
1451,1.451000,1550,3165006,-9551.22,-598.11,1583.8900000000003
1452,1.452000,1551,3166006,-20465.22,-681.11,2707.8900000000003
1453,1.453000,1552,3167006,-21202.22,-319.11,2013.8900000000003
1454,1.454000,1553,3168006,-15594.22,-365.11,1831.8900000000003
1455,1.455000,1554,3169006,-7422.22,327.89,2582.8900000000003
1456,1.455999,1555,3170005,3899.78,215.89,1928.8900000000003
1457,1.457000,1556,3171006,7438.78,-657.11,415.8900000000003
1458,1.458000,1557,3172006,4852.78,304.89,-955.1099999999997
1459,1.459000,1558,3173006,3518.78,1104.89,-3022.1099999999997
1460,1.460000,1559,3174006,6760.78,910.89,-3525.1099999999997
1461,1.461000,1560,3175006,7938.78,-5.109999999999999,-2626.1099999999997
1462,1.462000,1561,3176006,6466.78,-514.11,-1978.1099999999997
1463,1.463000,1562,3177006,-910.22,25.89,-2487.1099999999997
1464,1.463999,1563,3178005,-3898.22,405.89,-3363.1099999999997
1465,1.465000,1564,3179006,3827.78,327.89,-4581.11
1466,1.466000,1565,3180006,14319.78,-4.109999999999999,-4335.11
1467,1.467000,1566,3181006,21257.78,-92.11,-1148.1099999999997
1468,1.467999,1567,3182005,14988.78,270.89,-576.1099999999997
1469,1.469000,1568,3183006,393.78,825.89,-945.1099999999997
1470,1.470000,1569,3184006,-9340.22,537.89,2671.8900000000003
1471,1.470999,1570,3185005,-9991.22,-13.11,3936.8900000000003
1472,1.472000,1571,3186006,-3206.22,-337.11,2643.8900000000003
1473,1.473000,1572,3187006,4086.78,-1076.11,3852.8900000000003
1474,1.473999,1573,3188005,4229.78,-376.11,2921.8900000000003
1475,1.475000,1574,3189006,-1069.22,-6.109999999999999,342.8900000000003
1476,1.476000,1575,3190006,-7896.22,-439.11,1236.8900000000003
1477,1.476999,1576,3191005,-19471.22,-672.11,2500.8900000000003
1478,1.478000,1577,3192006,-21545.22,-589.11,2136.8900000000003
1479,1.479000,1578,3193006,-17701.22,-12.11,1748.8900000000003
1480,1.480000,1579,3194006,-8332.22,-74.11,2669.8900000000003
1481,1.481000,1580,3195006,3912.78,368.89,1848.8900000000003
1482,1.482000,1581,3196006,7116.78,-210.11,419.8900000000003
1483,1.482999,1582,3197005,5218.78,-41.11,-299.1099999999997
1484,1.484000,1583,3198006,2941.78,1130.89,-2744.1099999999997
1485,1.485000,1584,3199006,5999.78,933.89,-3623.1099999999997
1486,1.485999,1585,3200005,8054.78,290.89,-2763.1099999999997
1487,1.487000,1586,3201006,7295.78,-340.11,-1855.1099999999997
1488,1.488000,1587,3202006,441.78,-335.11,-2365.1099999999997
1489,1.489000,1588,3203006,-4363.22,150.89,-3509.1099999999997
1490,1.490000,1589,3204006,2154.78,415.89,-4408.11
1491,1.490999,1590,3205005,12954.78,103.89,-4416.11
1492,1.492000,1591,3206006,20657.78,-247.11,-1611.1099999999997
1493,1.493000,1592,3207006,16406.78,101.89,-761.1099999999997
1494,1.494000,1593,3208006,2508.78,860.89,-1153.1099999999997
1495,1.495000,1594,3209006,-8540.22,791.89,2125.8900000000003
1496,1.496000,1595,3210006,-9967.22,-36.11,4130.89
1497,1.497000,1596,3211006,-4043.22,-293.11,2822.8900000000003
1498,1.497999,1597,3212005,2931.78,-879.11,3585.8900000000003
1499,1.499000,1598,3213006,4575.78,-790.11,3553.8900000000003
1500,1.500000,1599,3214006,-1024.22,85.89,432.8900000000003
1501,1.501000,1600,3215006,-7202.22,-194.11,803.8900000000003
1502,1.501999,1601,3216005,-16704.22,-1048.11,2539.8900000000003
1503,1.503000,1602,3217006,-21033.22,-509.11,2146.8900000000003
1504,1.504000,1603,3218006,-19135.22,26.89,1803.8900000000003
1505,1.505000,1604,3219006,-9755.22,-354.11,2447.8900000000003
1506,1.506000,1605,3220006,2365.78,166.89,2303.8900000000003
1507,1.507000,1606,3221006,6321.78,-115.11,871.8900000000003
1508,1.507999,1607,3222005,5879.78,252.89,-631.1099999999997
1509,1.509000,1608,3223006,3441.78,1072.89,-2569.1099999999997
1510,1.509999,1609,3224005,5429.78,937.89,-3504.1099999999997
1511,1.510999,1610,3225005,7928.78,444.89,-3030.1099999999997
1512,1.511999,1611,3226005,7501.78,-453.11,-2055.1099999999997
1513,1.512999,1612,3227005,1535.78,-204.11,-2397.1099999999997
1514,1.514000,1613,3228006,-4592.22,384.89,-3310.1099999999997
1515,1.515000,1614,3229006,865.78,219.89,-3809.1099999999997
1516,1.516000,1615,3230006,11326.78,146.89,-4664.11
1517,1.517000,1616,3231006,19925.78,-248.11,-2186.1099999999997
1518,1.518000,1617,3232006,18102.78,-39.11,-384.1099999999997
1519,1.519000,1618,3233006,4466.78,747.89,-1357.1099999999997
1520,1.520000,1619,3234006,-7800.22,916.89,1328.8900000000003
1521,1.521000,1620,3235006,-10214.22,83.89,4141.89
1522,1.522000,1621,3236006,-4994.22,-354.11,2843.8900000000003
1523,1.523000,1622,3237006,2088.78,-604.11,3362.8900000000003
1524,1.524000,1623,3238006,4880.78,-888.11,3939.8900000000003
1525,1.525000,1624,3239006,527.78,-17.11,881.8900000000003
1526,1.525999,1625,3240005,-5337.22,-65.11,679.8900000000003
1527,1.526999,1626,3241005,-15889.22,-1037.11,2298.8900000000003
1528,1.527999,1627,3242005,-21128.22,-674.11,2314.8900000000003
1529,1.529000,1628,3243006,-19842.22,133.89,1581.8900000000003
1530,1.529999,1629,3244005,-11624.22,-221.11,2184.8900000000003
1531,1.531000,1630,3245006,1398.78,-186.11,2641.8900000000003
1532,1.532000,1631,3246006,5889.78,-217.11,636.8900000000003
1533,1.533000,1632,3247006,6028.78,221.89,-437.1099999999997
1534,1.534000,1633,3248006,3152.78,972.89,-2006.1099999999997
1535,1.535000,1634,3249006,4487.78,904.89,-3592.1099999999997
1536,1.535999,1635,3250005,7991.78,644.89,-3007.1099999999997
1537,1.537000,1636,3251006,8064.78,-387.11,-1915.1099999999997
1538,1.538000,1637,3252006,2832.78,-280.11,-2081.1099999999997
1539,1.539000,1638,3253006,-4364.22,334.89,-3067.1099999999997
1540,1.540000,1639,3254006,5.779999999999999,71.89,-3666.1099999999997
1541,1.541000,1640,3255006,9722.78,310.89,-4732.11
1542,1.542000,1641,3256006,18709.78,68.89,-2757.1099999999997
1543,1.542999,1642,3257005,19286.78,-317.11,-431.1099999999997
1544,1.544000,1643,3258006,6644.78,367.89,-1218.1099999999997
1545,1.544999,1644,3259005,-6133.22,763.89,768.8900000000003
1546,1.546000,1645,3260006,-10044.22,263.89,3797.8900000000003
1547,1.547000,1646,3261006,-5995.22,41.89,3167.8900000000003
1548,1.548000,1647,3262006,413.78,-683.11,3199.8900000000003
1549,1.549000,1648,3263006,4651.78,-1078.11,3919.8900000000003
1550,1.550000,1649,3264006,1531.78,-24.11,1260.8900000000003
1551,1.551000,1650,3265006,-3465.22,-110.11,399.8900000000003
1552,1.552000,1651,3266006,-14616.22,-488.11,2020.8900000000003
1553,1.552999,1652,3267005,-21330.22,-887.11,2520.8900000000003
1554,1.553999,1653,3268005,-19702.22,-211.11,1934.8900000000003
1555,1.554999,1654,3269005,-13987.22,139.89,2109.8900000000003
1556,1.556000,1655,3270006,-857.22,-209.11,2904.8900000000003
1557,1.557000,1656,3271006,5914.78,-20.11,1101.8900000000003
1558,1.558000,1657,3272006,6772.78,20.89,-320.1099999999997
1559,1.559000,1658,3273006,3622.78,797.89,-1850.1099999999997
1560,1.560000,1659,3274006,3932.78,1047.89,-3491.1099999999997
1561,1.561000,1660,3275006,7611.78,570.89,-3146.1099999999997
1562,1.562000,1661,3276006,8505.78,-183.11,-2420.1099999999997
1563,1.562999,1662,3277005,3777.78,-243.11,-2210.1099999999997
1564,1.563999,1663,3278005,-4718.22,34.89,-2811.1099999999997
1565,1.565000,1664,3279006,-540.22,-110.11,-3317.1099999999997
1566,1.566000,1665,3280006,8651.78,450.89,-4897.11
1567,1.567000,1666,3281006,16994.78,224.89,-3227.1099999999997
1568,1.567999,1667,3282005,20043.78,-323.11,-238.10999999999967
1569,1.569000,1668,3283006,9146.78,465.89,-1400.1099999999997
1570,1.570000,1669,3284006,-4157.22,890.89,180.89000000000033
1571,1.570999,1670,3285005,-10364.22,315.89,3862.8900000000003
1572,1.572000,1671,3286006,-7147.22,-99.11,3340.8900000000003
1573,1.572999,1672,3287005,-552.22,-537.11,2907.8900000000003
1574,1.573999,1673,3288005,4723.78,-1084.11,4153.89
1575,1.575000,1674,3289006,2823.78,-170.11,1837.8900000000003
1576,1.576000,1675,3290006,-2044.22,13.89,170.89000000000033
1577,1.576999,1676,3291005,-13407.22,-546.11,1904.8900000000003
1578,1.578000,1677,3292006,-22354.22,-956.11,2389.8900000000003
1579,1.578999,1678,3293005,-19492.22,-336.11,1691.8900000000003
1580,1.579999,1679,3294005,-14908.22,124.89,2031.8900000000003
1581,1.581000,1680,3295006,-2920.22,-476.11,2979.8900000000003
1582,1.582000,1681,3296006,5872.78,-109.11,1393.8900000000003
1583,1.583000,1682,3297006,6535.78,220.89,-96.10999999999967
1584,1.584000,1683,3298006,3883.78,658.89,-1387.1099999999997
1585,1.585000,1684,3299006,3283.78,1153.89,-3375.1099999999997
1586,1.586000,1685,3300006,7214.78,797.89,-3162.1099999999997
1587,1.587000,1686,3301006,8473.78,-178.11,-2423.1099999999997
1588,1.588000,1687,3302006,4915.78,-196.11,-2242.1099999999997
1589,1.588999,1688,3303005,-3190.22,-102.11,-2561.1099999999997
1590,1.590000,1689,3304006,-1789.22,84.89,-3346.1099999999997
1591,1.591000,1690,3305006,6951.78,549.89,-4848.11
1592,1.592000,1691,3306006,15959.78,60.89,-3800.1099999999997
1593,1.593000,1692,3307006,20318.78,-347.11,-702.1099999999997
1594,1.594000,1693,3308006,11294.78,158.89,-848.1099999999997
1595,1.594999,1694,3309005,-2012.22,958.89,-363.1099999999997
1596,1.595999,1695,3310005,-9888.22,481.89,3267.8900000000003
1597,1.597000,1696,3311006,-8828.22,-120.11,3590.8900000000003
1598,1.598000,1697,3312006,-1633.22,-566.11,2715.8900000000003
1599,1.599000,1698,3313006,4455.78,-848.11,3940.8900000000003
1600,1.600000,1699,3314006,3106.78,-363.11,2319.8900000000003
1601,1.601000,1700,3315006,-1772.22,-16.11,191.89000000000033
1602,1.601999,1701,3316005,-10539.22,-338.11,1597.8900000000003
1603,1.602999,1702,3317005,-21538.22,-944.11,2932.8900000000003
1604,1.603999,1703,3318005,-19770.22,-407.11,2000.8900000000003
1605,1.605000,1704,3319006,-14884.22,2.8900000000000006,1759.8900000000003
1606,1.606000,1705,3320006,-6279.22,102.89,2760.8900000000003
1607,1.607000,1706,3321006,4573.78,-30.11,1647.8900000000003
1608,1.607999,1707,3322005,6956.78,-317.11,55.89000000000033
1609,1.609000,1708,3323006,4516.78,584.89,-1108.1099999999997
1610,1.609999,1709,3324005,3203.78,1010.89,-2991.1099999999997
1611,1.611000,1710,3325006,6916.78,824.89,-3611.1099999999997
1612,1.612000,1711,3326006,8293.78,75.89,-2622.1099999999997
1613,1.613000,1712,3327006,5751.78,-530.11,-1659.1099999999997
1614,1.613999,1713,3328005,-1721.22,-0.10999999999999943,-2606.1099999999997
1615,1.615000,1714,3329006,-3123.22,432.89,-3831.1099999999997
1616,1.616000,1715,3330006,4910.78,201.89,-4443.11
1617,1.617000,1716,3331006,14677.78,-73.11,-3867.1099999999997
1618,1.618000,1717,3332006,20417.78,-189.11,-926.1099999999997
1619,1.619000,1718,3333006,13503.78,212.89,-724.1099999999997
1620,1.620000,1719,3334006,-220.22,840.89,-839.1099999999997
1621,1.621000,1720,3335006,-9474.22,606.89,2960.8900000000003
1622,1.621999,1721,3336005,-8971.22,-8.11,3866.8900000000003
1623,1.623000,1722,3337006,-2849.22,-279.11,2577.8900000000003
1624,1.624000,1723,3338006,3947.78,-1083.11,3898.8900000000003
1625,1.624999,1724,3339005,4040.78,-566.11,2613.8900000000003
1626,1.626000,1725,3340006,-1592.22,97.89,-15.109999999999673
1627,1.626999,1726,3341005,-8526.22,-616.11,1400.8900000000003
1628,1.627999,1727,3342005,-19828.22,-571.11,2440.8900000000003
1629,1.629000,1728,3343006,-21119.22,-326.11,1936.8900000000003
1630,1.630000,1729,3344006,-16508.22,-310.11,1879.8900000000003
1631,1.630999,1730,3345005,-7026.22,-102.11,2606.8900000000003
1632,1.631999,1731,3346005,3930.78,318.89,2337.8900000000003
1633,1.632999,1732,3347005,6940.78,-283.11,576.8900000000003
1634,1.634000,1733,3348006,4769.78,217.89,-972.1099999999997
1635,1.634999,1734,3349005,3184.78,1126.89,-2694.1099999999997
1636,1.635999,1735,3350005,5863.78,815.89,-3553.1099999999997
1637,1.637000,1736,3351006,7680.78,235.89,-2896.1099999999997
1638,1.637999,1737,3352005,6649.78,-454.11,-2120.1099999999997
1639,1.639000,1738,3353006,-60.22,-237.11,-2523.1099999999997
1640,1.640000,1739,3354006,-3737.22,304.89,-3308.1099999999997
1641,1.641000,1740,3355006,2489.78,307.89,-4295.11
1642,1.642000,1741,3356006,12652.78,123.89,-4385.11
1643,1.643000,1742,3357006,20692.78,-288.11,-1258.1099999999997
1644,1.644000,1743,3358006,16217.78,200.89,-639.1099999999997
1645,1.645000,1744,3359006,2158.78,1049.89,-1147.1099999999997
1646,1.645999,1745,3360005,-8367.22,641.89,2448.8900000000003
1647,1.647000,1746,3361006,-9698.22,86.89,4043.8900000000003
1648,1.647999,1747,3362005,-4043.22,-279.11,2842.8900000000003
1649,1.649000,1748,3363006,2908.78,-1071.11,3777.8900000000003
1650,1.650000,1749,3364006,4531.78,-666.11,3290.8900000000003
1651,1.651000,1750,3365006,-1141.22,26.89,303.8900000000003
1652,1.652000,1751,3366006,-6672.22,-376.11,932.8900000000003
1653,1.652999,1752,3367005,-16942.22,-973.11,2450.8900000000003
1654,1.653999,1753,3368005,-21146.22,-527.11,1983.8900000000003
1655,1.655000,1754,3369006,-19395.22,-130.11,1401.8900000000003
1656,1.655999,1755,3370005,-9928.22,-279.11,2218.8900000000003
1657,1.657000,1756,3371006,2846.78,478.89,2602.8900000000003
1658,1.658000,1757,3372006,6580.78,48.89,656.8900000000003
1659,1.658999,1758,3373005,6075.78,-4.109999999999999,-636.1099999999997
1660,1.660000,1759,3374006,3599.78,918.89,-2161.1099999999997
1661,1.661000,1760,3375006,5478.78,944.89,-3355.1099999999997
1662,1.662000,1761,3376006,7504.78,436.89,-2870.1099999999997
1663,1.663000,1762,3377006,7386.78,-351.11,-2075.1099999999997
1664,1.664000,1763,3378006,1675.78,-311.11,-2227.1099999999997
1665,1.665000,1764,3379006,-4417.22,363.89,-3125.1099999999997
1666,1.666000,1765,3380006,930.78,322.89,-4104.11
1667,1.667000,1766,3381006,11252.78,149.89,-4897.11
1668,1.668000,1767,3382006,19966.78,-434.11,-2063.1099999999997
1669,1.669000,1768,3383006,18055.78,-212.11,-337.1099999999997
1670,1.669999,1769,3384005,4429.78,996.89,-1409.1099999999997
1671,1.671000,1770,3385006,-7925.22,951.89,1532.8900000000003
1672,1.671999,1771,3386005,-10508.22,123.89,4176.89
1673,1.673000,1772,3387006,-4782.22,-311.11,2823.8900000000003
1674,1.674000,1773,3388006,2637.78,-962.11,3490.8900000000003
1675,1.675000,1774,3389006,4941.78,-818.11,3790.8900000000003
1676,1.676000,1775,3390006,-154.22,88.89,873.8900000000003
1677,1.677000,1776,3391006,-5568.22,-214.11,866.8900000000003
1678,1.678000,1777,3392006,-16434.22,-1100.11,2313.8900000000003
1679,1.679000,1778,3393006,-21558.22,-523.11,2165.8900000000003
1680,1.679999,1779,3394005,-20027.22,87.89,1771.8900000000003
1681,1.680999,1780,3395005,-10688.22,-664.11,2378.8900000000003
1682,1.682000,1781,3396006,2034.78,214.89,2304.8900000000003
1683,1.683000,1782,3397006,5397.78,292.89,450.8900000000003
1684,1.684000,1783,3398006,6235.78,18.89,-268.1099999999997
1685,1.684999,1784,3399005,3026.78,1050.89,-2057.1099999999997
1686,1.686000,1785,3400006,4513.78,977.89,-3756.1099999999997
1687,1.686999,1786,3401005,8077.78,452.89,-2779.1099999999997
1688,1.688000,1787,3402006,8440.78,-383.11,-1745.1099999999997
1689,1.689000,1788,3403006,2814.78,-290.11,-2282.1099999999997
1690,1.689999,1789,3404005,-4574.22,308.89,-3281.1099999999997
1691,1.691000,1790,3405006,23.78,151.89,-3883.1099999999997
1692,1.692000,1791,3406006,9916.78,296.89,-4932.11
1693,1.692999,1792,3407005,19324.78,-283.11,-2552.1099999999997
1694,1.694000,1793,3408006,18825.78,-176.11,-312.1099999999997
1695,1.695000,1794,3409006,6482.78,765.89,-1372.1099999999997
1696,1.696000,1795,3410006,-6376.22,829.89,1007.8900000000003
1697,1.696999,1796,3411005,-10569.22,187.89,4151.89
1698,1.698000,1797,3412006,-5962.22,-232.11,3081.8900000000003
1699,1.699000,1798,3413006,820.78,-682.11,3075.8900000000003
1700,1.700000,1799,3414006,4939.78,-946.11,3968.8900000000003
1701,1.700999,1800,3415005,1123.78,-99.11,1202.8900000000003
1702,1.702000,1801,3416006,-4160.22,-22.11,497.8900000000003
1703,1.703000,1802,3417006,-15293.22,-842.11,2277.8900000000003
1704,1.704000,1803,3418006,-21511.22,-878.11,2270.8900000000003
1705,1.704999,1804,3419005,-20323.22,126.89,1989.8900000000003
1706,1.706000,1805,3420006,-13413.22,-10.11,2169.8900000000003
1707,1.707000,1806,3421006,677.78,63.89,2661.8900000000003
1708,1.708000,1807,3422006,6618.78,-102.11,1350.8900000000003
1709,1.708999,1808,3423005,6352.78,-330.11,-380.1099999999997
1710,1.710000,1809,3424006,3134.78,975.89,-2106.1099999999997
1711,1.711000,1810,3425006,4213.78,1066.89,-3454.1099999999997
1712,1.712000,1811,3426006,7809.78,404.89,-3125.1099999999997
1713,1.713000,1812,3427006,8749.78,-153.11,-2230.1099999999997
1714,1.714000,1813,3428006,3838.78,-330.11,-2098.1099999999997
1715,1.715000,1814,3429006,-4579.22,194.89,-3052.1099999999997
1716,1.716000,1815,3430006,-781.22,362.89,-3765.1099999999997
1717,1.717000,1816,3431006,8906.78,363.89,-5066.11
1718,1.718000,1817,3432006,17824.78,-284.11,-2847.1099999999997
1719,1.719000,1818,3433006,19983.78,-168.11,-280.1099999999997
1720,1.720000,1819,3434006,8615.78,773.89,-1566.1099999999997
1721,1.721000,1820,3435006,-5502.22,744.89,543.8900000000003
1722,1.722000,1821,3436006,-10430.22,150.89,4301.89
1723,1.723000,1822,3437006,-7052.22,103.89,3021.8900000000003
1724,1.724000,1823,3438006,288.78,-718.11,2855.8900000000003
1725,1.724999,1824,3439005,5137.78,-1273.11,4324.89
1726,1.725999,1825,3440005,1866.78,112.89,1512.8900000000003
1727,1.727000,1826,3441006,-2663.22,-142.11,407.8900000000003
1728,1.728000,1827,3442006,-15096.22,-661.11,2009.8900000000003
1729,1.729000,1828,3443006,-22412.22,-751.11,2309.8900000000003
1730,1.730000,1829,3444006,-19859.22,-276.11,1797.8900000000003
1731,1.731000,1830,3445006,-14025.22,227.89,2015.8900000000003
1732,1.732000,1831,3446006,-804.22,-288.11,3219.8900000000003
1733,1.732999,1832,3447005,6026.78,-236.11,1319.8900000000003
1734,1.734000,1833,3448006,6784.78,143.89,-294.1099999999997
1735,1.734999,1834,3449005,3446.78,742.89,-1519.1099999999997
1736,1.735999,1835,3450005,3618.78,1011.89,-3547.1099999999997
1737,1.737000,1836,3451006,7409.78,739.89,-3324.1099999999997
1738,1.738000,1837,3452006,8748.78,-185.11,-2451.1099999999997
1739,1.738999,1838,3453005,4484.78,-488.11,-2044.1099999999997
1740,1.740000,1839,3454006,-4357.22,108.89,-2880.1099999999997
1741,1.741000,1840,3455006,-1126.22,87.89,-3747.1099999999997
1742,1.741999,1841,3456005,8167.78,440.89,-4873.11
1743,1.743000,1842,3457006,17236.78,60.89,-3134.1099999999997
1744,1.744000,1843,3458006,20123.78,-138.11,-568.1099999999997
1745,1.744999,1844,3459005,10278.78,614.89,-1354.1099999999997
1746,1.746000,1845,3460006,-3916.22,818.89,185.89000000000033
1747,1.746999,1846,3461005,-10064.22,312.89,3912.8900000000003
1748,1.748000,1847,3462006,-7612.22,-201.11,3529.8900000000003
1749,1.749000,1848,3463006,-1354.22,-622.11,2821.8900000000003
1750,1.750000,1849,3464006,4762.78,-1115.11,4196.89
1751,1.750999,1850,3465005,2465.78,-186.11,1902.8900000000003
1752,1.752000,1851,3466006,-2111.22,27.89,167.89000000000033
1753,1.753000,1852,3467006,-12850.22,-547.11,1846.8900000000003
1754,1.754000,1853,3468006,-22513.22,-893.11,2436.8900000000003
1755,1.755000,1854,3469006,-19710.22,-366.11,1833.8900000000003
1756,1.755999,1855,3470005,-14828.22,100.89,1952.8900000000003
1757,1.757000,1856,3471006,-4133.22,116.89,2911.8900000000003
1758,1.757999,1857,3472005,5794.78,-40.11,1521.8900000000003
1759,1.759000,1858,3473006,7580.78,-409.11,86.89000000000033
1760,1.759999,1859,3474005,4216.78,670.89,-1125.1099999999997
1761,1.761000,1860,3475006,3732.78,1228.89,-3201.1099999999997
1762,1.762000,1861,3476006,7173.78,722.89,-3505.1099999999997
1763,1.762999,1862,3477005,8290.78,-86.11,-2606.1099999999997
1764,1.764000,1863,3478006,4891.78,-494.11,-1905.1099999999997
1765,1.764999,1864,3479005,-3810.22,-73.11,-2738.1099999999997
1766,1.765999,1865,3480005,-1632.22,141.89,-3661.1099999999997
1767,1.767000,1866,3481006,7010.78,441.89,-5006.11
1768,1.767999,1867,3482005,15934.78,-73.11,-3734.1099999999997
1769,1.769000,1868,3483006,20605.78,-405.11,-645.1099999999997
1770,1.770000,1869,3484006,11654.78,525.89,-1177.1099999999997
1771,1.771000,1870,3485006,-2441.22,1012.89,-287.1099999999997
1772,1.771999,1871,3486005,-10193.22,450.89,3550.8900000000003
1773,1.773000,1872,3487006,-8152.22,-100.11,3659.8900000000003
1774,1.774000,1873,3488006,-1535.22,-532.11,2671.8900000000003
1775,1.775000,1874,3489006,4728.78,-973.11,4308.89
1776,1.776000,1875,3490006,3374.78,-393.11,2574.8900000000003
1777,1.777000,1876,3491006,-2015.22,-3.1099999999999994,44.89000000000033
1778,1.778000,1877,3492006,-10950.22,-329.11,1583.8900000000003
1779,1.778999,1878,3493005,-22514.22,-820.11,2506.8900000000003
1780,1.780000,1879,3494006,-20613.22,-469.11,1964.8900000000003
1781,1.781000,1880,3495006,-14366.22,-281.11,1655.8900000000003
1782,1.782000,1881,3496006,-5591.22,178.89,2727.8900000000003
1783,1.783000,1882,3497006,4324.78,166.89,1829.8900000000003
1784,1.784000,1883,3498006,7306.78,-541.11,111.89000000000033
1785,1.785000,1884,3499006,4535.78,545.89,-954.1099999999997
1786,1.785999,1885,3500005,3337.78,1200.89,-3108.1099999999997
1787,1.786999,1886,3501005,7289.78,697.89,-3401.1099999999997
1788,1.788000,1887,3502006,8254.78,29.89,-2490.1099999999997
1789,1.789000,1888,3503006,5509.78,-362.11,-1821.1099999999997
1790,1.790000,1889,3504006,-2703.22,33.89,-2766.1099999999997
1791,1.791000,1890,3505006,-2447.22,245.89,-3683.1099999999997
1792,1.791999,1891,3506005,5932.78,222.89,-4703.11
1793,1.793000,1892,3507006,15367.78,19.89,-4044.1099999999997
1794,1.794000,1893,3508006,20698.78,-312.11,-964.1099999999997
1795,1.795000,1894,3509006,12837.78,508.89,-1180.1099999999997
1796,1.796000,1895,3510006,-819.22,1048.89,-649.1099999999997
1797,1.797000,1896,3511006,-9894.22,366.89,3265.8900000000003
1798,1.798000,1897,3512006,-8819.22,-118.11,3662.8900000000003
1799,1.799000,1898,3513006,-2626.22,-438.11,2612.8900000000003
1800,1.800000,1899,3514006,4035.78,-1054.11,4115.89
1801,1.801000,1900,3515006,4099.78,-442.11,2657.8900000000003
1802,1.801999,1901,3516005,-2120.22,207.89,43.89000000000033
1803,1.803000,1902,3517006,-9006.22,-604.11,1711.8900000000003
1804,1.804000,1903,3518006,-20737.22,-627.11,2525.8900000000003
1805,1.805000,1904,3519006,-21413.22,-259.11,2024.8900000000003
1806,1.806000,1905,3520006,-15908.22,-387.11,2083.8900000000003
1807,1.806999,1906,3521005,-6831.22,70.89,2774.8900000000003
1808,1.808000,1907,3522006,4223.78,-51.11,2372.8900000000003
1809,1.809000,1908,3523006,6945.78,-307.11,224.89000000000033
1810,1.810000,1909,3524006,4988.78,551.89,-1194.1099999999997
1811,1.811000,1910,3525006,3681.78,1039.89,-2916.1099999999997
1812,1.812000,1911,3526006,6484.78,844.89,-3593.1099999999997
1813,1.813000,1912,3527006,7739.78,199.89,-2832.1099999999997
1814,1.814000,1913,3528006,6462.78,-542.11,-1974.1099999999997
1815,1.814999,1914,3529005,-1192.22,-211.11,-2452.1099999999997
1816,1.815999,1915,3530005,-3506.22,355.89,-3457.1099999999997
1817,1.817000,1916,3531006,4308.78,230.89,-4716.11
1818,1.817999,1917,3532005,13960.78,-27.11,-4388.11
1819,1.819000,1918,3533006,20789.78,-276.11,-1035.1099999999997
1820,1.820000,1919,3534006,14715.78,290.89,-940.1099999999997
1821,1.821000,1920,3535006,667.78,909.89,-1011.1099999999997
1822,1.822000,1921,3536006,-9409.22,594.89,2685.8900000000003
1823,1.822999,1922,3537005,-9383.22,143.89,3917.8900000000003
1824,1.824000,1923,3538006,-2560.22,-348.11,2885.8900000000003
1825,1.824999,1924,3539005,3781.78,-1020.11,3987.8900000000003
1826,1.826000,1925,3540006,4280.78,-499.11,3244.8900000000003
1827,1.827000,1926,3541006,-1505.22,65.89,230.89000000000033
1828,1.828000,1927,3542006,-7990.22,-469.11,1217.8900000000003
1829,1.828999,1928,3543005,-19305.22,-851.11,2705.8900000000003
1830,1.829999,1929,3544005,-21265.22,-293.11,1732.8900000000003
1831,1.831000,1930,3545006,-17827.22,-107.11,1530.8900000000003
1832,1.832000,1931,3546006,-8832.22,-279.11,2787.8900000000003
1833,1.833000,1932,3547006,3041.78,676.89,1935.8900000000003
1834,1.834000,1933,3548006,6735.78,-146.11,558.8900000000003
1835,1.835000,1934,3549006,5966.78,-393.11,-271.1099999999997
1836,1.836000,1935,3550006,3489.78,1148.89,-2678.1099999999997
1837,1.837000,1936,3551006,5914.78,1026.89,-3518.1099999999997
1838,1.838000,1937,3552006,7930.78,249.89,-2699.1099999999997
1839,1.839000,1938,3553006,7246.78,-412.11,-1810.1099999999997
1840,1.840000,1939,3554006,584.78,-355.11,-2393.1099999999997
1841,1.841000,1940,3555006,-4274.22,469.89,-3470.1099999999997
1842,1.841999,1941,3556005,2474.78,363.89,-4408.11
1843,1.842999,1942,3557005,13041.78,-10.11,-4757.11
1844,1.844000,1943,3558006,20527.78,-380.11,-1715.1099999999997
1845,1.845000,1944,3559006,16331.78,3.8900000000000006,-716.1099999999997
1846,1.846000,1945,3560006,2503.78,1078.89,-1352.1099999999997
1847,1.847000,1946,3561006,-8738.22,673.89,2083.8900000000003
1848,1.847999,1947,3562005,-10224.22,-101.11,3974.8900000000003
1849,1.849000,1948,3563006,-4014.22,-213.11,2743.8900000000003
1850,1.850000,1949,3564006,3077.78,-905.11,3711.8900000000003
1851,1.851000,1950,3565006,4665.78,-736.11,3507.8900000000003
1852,1.852000,1951,3566006,-1050.22,175.89,610.8900000000003
1853,1.853000,1952,3567006,-6738.22,-210.11,1082.8900000000003
1854,1.854000,1953,3568006,-17275.22,-967.11,2668.8900000000003
1855,1.855000,1954,3569006,-21299.22,-387.11,2332.8900000000003
1856,1.856000,1955,3570006,-19345.22,23.89,1867.8900000000003
1857,1.857000,1956,3571006,-9686.22,-413.11,2603.8900000000003
1858,1.857999,1957,3572005,2932.78,99.89,2680.8900000000003
1859,1.858999,1958,3573005,6258.78,-4.109999999999999,465.8900000000003
1860,1.860000,1959,3574006,5654.78,192.89,-853.1099999999997
1861,1.861000,1960,3575006,3359.78,985.89,-2522.1099999999997
1862,1.862000,1961,3576006,5711.78,827.89,-3754.1099999999997
1863,1.863000,1962,3577006,7465.78,285.89,-2979.1099999999997
1864,1.864000,1963,3578006,7334.78,-375.11,-2039.1099999999997
1865,1.865000,1964,3579006,1589.78,-346.11,-2374.1099999999997
1866,1.866000,1965,3580006,-4047.22,360.89,-3217.1099999999997
1867,1.867000,1966,3581006,1585.78,325.89,-3918.1099999999997
1868,1.868000,1967,3582006,11700.78,123.89,-4771.11
1869,1.868999,1968,3583005,20165.78,-173.11,-2051.1099999999997
1870,1.870000,1969,3584006,17328.78,-138.11,-457.1099999999997
1871,1.871000,1970,3585006,4160.78,790.89,-1356.1099999999997
1872,1.872000,1971,3586006,-7745.22,967.89,1573.8900000000003
1873,1.873000,1972,3587006,-9903.22,95.89,4150.89
1874,1.873999,1973,3588005,-4807.22,-292.11,2820.8900000000003
1875,1.875000,1974,3589006,1837.78,-803.11,3415.8900000000003
1876,1.876000,1975,3590006,4755.78,-901.11,3793.8900000000003
1877,1.877000,1976,3591006,44.78,8.89,678.8900000000003
1878,1.878000,1977,3592006,-5437.22,-83.11,904.8900000000003
1879,1.879000,1978,3593006,-15925.22,-1087.11,2584.8900000000003
1880,1.879999,1979,3594005,-21905.22,-487.11,2027.8900000000003
1881,1.881000,1980,3595006,-20673.22,117.89,1840.8900000000003
1882,1.882000,1981,3596006,-11284.22,-323.11,2468.8900000000003
1883,1.883000,1982,3597006,2108.78,441.89,2755.8900000000003
1884,1.884000,1983,3598006,7044.78,-88.11,1119.8900000000003
1885,1.885000,1984,3599006,6122.78,-198.11,-429.1099999999997
1886,1.886000,1985,3600006,3232.78,1000.89,-2130.1099999999997
1887,1.886999,1986,3601005,4754.78,1010.89,-3599.1099999999997
1888,1.888000,1987,3602006,7183.78,511.89,-3174.1099999999997
1889,1.888999,1988,3603005,7617.78,-310.11,-2248.1099999999997
1890,1.890000,1989,3604006,2585.78,-322.11,-2207.1099999999997
1891,1.891000,1990,3605006,-3871.22,202.89,-3235.1099999999997
1892,1.892000,1991,3606006,489.78,200.89,-4204.11
1893,1.892999,1992,3607005,10579.78,229.89,-4798.11
1894,1.894000,1993,3608006,19254.78,-154.11,-2474.1099999999997
1895,1.895000,1994,3609006,18381.78,-207.11,-568.1099999999997
1896,1.896000,1995,3610006,6348.78,514.89,-1327.1099999999997
1897,1.897000,1996,3611006,-6648.22,1144.89,1044.8900000000003
1898,1.898000,1997,3612006,-9841.22,174.89,4300.89
1899,1.898999,1998,3613005,-5845.22,-380.11,2974.8900000000003
1900,1.899999,1999,3614005,491.78,-354.11,2973.8900000000003
1901,1.901000,2000,3615006,4944.78,-1052.11,4156.89
1902,1.901999,2001,3616005,862.78,-194.11,1296.8900000000003
1903,1.902999,2002,3617005,-4292.22,27.89,643.8900000000003
1904,1.904000,2003,3618006,-14672.22,-1008.11,2368.8900000000003
1905,1.905000,2004,3619006,-21857.22,-755.11,2425.8900000000003
1906,1.905999,2005,3620005,-20381.22,160.89,1825.8900000000003
1907,1.906999,2006,3621005,-12728.22,-387.11,2135.8900000000003
1908,1.908000,2007,3622006,-270.22,-70.11,2647.8900000000003
1909,1.909000,2008,3623006,5965.78,198.89,1000.8900000000003
1910,1.909999,2009,3624005,6740.78,-17.11,-212.10999999999967
1911,1.911000,2010,3625006,3690.78,819.89,-1786.1099999999997
1912,1.912000,2011,3626006,4506.78,1199.89,-3651.1099999999997
1913,1.912999,2012,3627005,7686.78,793.89,-3311.1099999999997
1914,1.914000,2013,3628006,7737.78,-410.11,-2126.1099999999997
1915,1.915000,2014,3629006,3040.78,-546.11,-2144.1099999999997
1916,1.916000,2015,3630006,-4378.22,154.89,-3274.1099999999997
1917,1.917000,2016,3631006,337.78,117.89,-3649.1099999999997
1918,1.918000,2017,3632006,9721.78,336.89,-4816.11
1919,1.919000,2018,3633006,18599.78,-9.11,-2941.1099999999997
1920,1.920000,2019,3634006,19806.78,-199.11,-382.1099999999997
1921,1.920999,2020,3635005,7199.78,612.89,-1532.1099999999997
1922,1.921999,2021,3636005,-5733.22,722.89,587.8900000000003
1923,1.923000,2022,3637006,-10466.22,252.89,4050.8900000000003
1924,1.924000,2023,3638006,-6136.22,-9.11,3141.8900000000003
1925,1.925000,2024,3639006,214.78,-613.11,2859.8900000000003
1926,1.926000,2025,3640006,4825.78,-1073.11,4115.89
1927,1.926999,2026,3641005,1997.78,-206.11,1584.8900000000003
1928,1.928000,2027,3642006,-3205.22,-101.11,347.8900000000003
1929,1.929000,2028,3643006,-14716.22,-552.11,2217.8900000000003
1930,1.930000,2029,3644006,-22702.22,-799.11,2336.8900000000003
1931,1.931000,2030,3645006,-19984.22,-116.11,1776.8900000000003
1932,1.932000,2031,3646006,-14315.22,171.89,2181.8900000000003
1933,1.932999,2032,3647005,-663.22,-305.11,3300.8900000000003
1934,1.934000,2033,3648006,6464.78,-154.11,1480.8900000000003
1935,1.935000,2034,3649006,6677.78,82.89,-329.1099999999997
1936,1.936000,2035,3650006,3982.78,823.89,-1586.1099999999997
1937,1.936999,2036,3651005,3433.78,1116.89,-3585.1099999999997
1938,1.938000,2037,3652006,7774.78,637.89,-3271.1099999999997
1939,1.939000,2038,3653006,7987.78,-378.11,-2486.1099999999997
1940,1.940000,2039,3654006,3598.78,-392.11,-2312.1099999999997
