row,seconds,esp32_index,micros,ax,ay,az
0,0.000000,1344,2958993,-18880.97,-347.63,2001.5600000000004
1,0.001000,1345,2959993,-10623.97,-57.629999999999995,2116.5600000000004
2,0.002000,1346,2960993,2815.03,182.37,2086.5600000000004
3,0.003000,1347,2961993,6353.03,-468.63,692.5600000000004
4,0.004000,1348,2962993,4631.03,92.37,-427.4399999999996
5,0.005000,1349,2963993,2393.03,1147.37,-2223.4399999999996
6,0.006000,1350,2964993,4862.03,865.37,-3233.4399999999996
7,0.007000,1351,2965993,8210.03,466.37,-2529.4399999999996
8,0.008000,1352,2966993,8925.03,-491.63,-1748.4399999999996
9,0.009000,1353,2967993,2121.03,-221.63,-2107.4399999999996
10,0.010000,1354,2968993,-6319.97,466.37,-3175.4399999999996
11,0.011000,1355,2969993,-2313.97,104.37,-3934.4399999999996
12,0.012000,1356,2970993,8348.03,520.37,-4837.44
13,0.013000,1357,2971993,19463.03,-338.63,-2202.4399999999996
14,0.014000,1358,2972993,19898.03,-200.63,-351.4399999999996
15,0.014999,1359,2973992,7844.03,895.37,-1084.4399999999996
16,0.016000,1360,2974993,-5662.97,667.37,1497.5600000000004
17,0.017000,1361,2975993,-11777.97,482.37,3968.5600000000004
18,0.018000,1362,2976993,-6755.97,-243.63,3000.5600000000004
19,0.019000,1363,2977993,80.03,-1053.63,2907.5600000000004
20,0.020000,1364,2978993,4593.03,-524.63,3605.5600000000004
21,0.021000,1365,2979993,2517.03,-270.63,1233.5600000000004
22,0.021999,1366,2980992,-2622.97,-388.63,257.5600000000004
23,0.023000,1367,2981993,-14041.97,-319.63,1928.5600000000004
24,0.024000,1368,2982993,-21734.97,-1031.63,2306.5600000000004
25,0.025000,1369,2983993,-18394.97,-341.63,2088.5600000000004
26,0.026000,1370,2984993,-14071.97,400.37,1944.5600000000004
27,0.026999,1371,2985992,-1117.97,-102.63,2305.5600000000004
28,0.028000,1372,2986993,6844.03,-548.63,1119.5600000000004
29,0.029000,1373,2987993,5845.03,-104.63,-147.4399999999996
30,0.030000,1374,2988993,2322.03,1138.37,-1804.4399999999996
31,0.031000,1375,2989993,3092.03,982.37,-3032.4399999999996
32,0.032000,1376,2990993,8166.03,569.37,-2700.4399999999996
33,0.033000,1377,2991993,9902.03,-170.63,-2142.4399999999996
34,0.034000,1378,2992993,4295.03,-434.63,-1693.4399999999996
35,0.035000,1379,2993993,-6088.97,179.37,-2814.4399999999996
36,0.036000,1380,2994993,-3522.97,317.37,-3723.4399999999996
37,0.037000,1381,2995993,5759.03,346.37,-4948.44
38,0.038000,1382,2996993,16360.03,-53.629999999999995,-3137.4399999999996
39,0.039000,1383,2997993,21448.03,-240.63,-237.4399999999996
40,0.040000,1384,2998993,11639.03,545.37,-994.4399999999996
41,0.040999,1385,2999992,-2787.97,943.37,-77.4399999999996
42,0.042000,1386,3000993,-10768.97,336.37,3754.5600000000004
43,0.043000,1387,3001993,-8852.97,215.37,3884.5600000000004
44,0.043999,1388,3002992,-1033.97,-772.63,2684.5600000000004
45,0.045000,1389,3003993,4857.03,-1131.63,4073.5600000000004
46,0.046000,1390,3004993,3632.03,-269.63,2267.5600000000004
47,0.047000,1391,3005993,-2194.97,-59.629999999999995,-434.4399999999996
48,0.048000,1392,3006993,-11667.97,-423.63,1141.5600000000004
49,0.049000,1393,3007993,-21028.97,-948.63,2542.5600000000004
50,0.050000,1394,3008993,-19343.97,-601.63,1768.5600000000004
51,0.051000,1395,3009993,-13837.97,-240.63,1368.5600000000004
52,0.052000,1396,3010993,-4705.97,-15.629999999999999,2672.5600000000004
53,0.053000,1397,3011993,4005.03,76.37,1788.5600000000004
54,0.054000,1398,3012993,5927.03,-200.63,83.5600000000004
55,0.055000,1399,3013993,3963.03,682.37,-1156.4399999999996
56,0.056000,1400,3014993,2694.03,1284.37,-2856.4399999999996
57,0.057000,1401,3015993,7636.03,537.37,-2590.4399999999996
58,0.058000,1402,3016993,9360.03,-70.63,-2145.4399999999996
59,0.058999,1403,3017992,6256.03,-253.63,-1915.4399999999996
60,0.060000,1404,3018993,-1900.97,-57.629999999999995,-2427.4399999999996
61,0.061000,1405,3019993,-6109.97,414.37,-3434.4399999999996
62,0.062000,1406,3020993,1329.03,351.37,-4638.44
63,0.063000,1407,3021993,13539.03,-86.63,-4119.44
64,0.064000,1408,3022993,21024.03,-279.63,-968.4399999999996
65,0.065000,1409,3023993,15864.03,-61.629999999999995,-615.4399999999996
66,0.066000,1410,3024993,1142.03,947.37,-725.4399999999996
67,0.067000,1411,3025993,-10098.97,894.37,2737.5600000000004
68,0.068000,1412,3026993,-10535.97,33.370000000000005,3900.5600000000004
69,0.069000,1413,3027993,-3821.97,-401.63,2860.5600000000004
70,0.070000,1414,3028993,3843.03,-1076.63,3724.5600000000004
71,0.071000,1415,3029993,4823.03,-467.63,2865.5600000000004
72,0.072000,1416,3030993,-1022.97,95.37,379.5600000000004
73,0.073000,1417,3031993,-7328.97,-362.63,756.5600000000004
74,0.074000,1418,3032993,-16850.97,-758.63,2146.5600000000004
75,0.075000,1419,3033993,-19473.97,-710.63,2404.5600000000004
76,0.076000,1420,3034993,-18312.97,153.37,1735.5600000000004
77,0.077000,1421,3035993,-8242.97,-273.63,2289.5600000000004
78,0.078000,1422,3036993,4089.03,-314.63,2009.5600000000004
79,0.079000,1423,3037993,5342.03,-91.63,-28.4399999999996
80,0.080000,1424,3038993,4302.03,241.37,-1006.4399999999996
81,0.081000,1425,3039993,2222.03,1041.37,-2463.4399999999996
82,0.082000,1426,3040993,5220.03,634.37,-2964.4399999999996
83,0.083000,1427,3041993,8556.03,322.37,-2517.4399999999996
84,0.084000,1428,3042993,8544.03,-96.63,-1780.4399999999996
85,0.085000,1429,3043993,1350.03,-290.63,-1736.4399999999996
86,0.086000,1430,3044993,-6460.97,370.37,-3062.4399999999996
87,0.087000,1431,3045993,-2161.97,630.37,-4048.4399999999996
88,0.088000,1432,3046993,9577.03,141.37,-4440.44
89,0.089000,1433,3047993,20214.03,-546.63,-1631.4399999999996
90,0.090000,1434,3048993,19582.03,9.370000000000001,-106.4399999999996
91,0.091000,1435,3049993,6200.03,876.37,-1146.4399999999996
92,0.092000,1436,3050993,-7535.97,858.37,1530.5600000000004
93,0.093000,1437,3051993,-11075.97,217.37,4191.56
94,0.094000,1438,3052993,-6110.97,-336.63,2861.5600000000004
95,0.095000,1439,3053993,1214.03,-927.63,3024.5600000000004
96,0.096000,1440,3054993,5165.03,-936.63,3441.5600000000004
97,0.097000,1441,3055993,993.03,43.370000000000005,486.5600000000004
98,0.098000,1442,3056993,-4396.97,-297.63,185.5600000000004
99,0.099000,1443,3057993,-14561.97,-955.63,1980.5600000000004
100,0.100000,1444,3058993,-20733.97,-671.63,2130.5600000000004
101,0.101000,1445,3059993,-19087.97,-68.63,1877.5600000000004
102,0.102000,1446,3060993,-12841.97,216.37,2193.5600000000004
103,0.103000,1447,3061993,1252.03,-54.629999999999995,2511.5600000000004
104,0.103999,1448,3062992,6908.03,-535.63,985.5600000000004
105,0.105000,1449,3063993,5172.03,64.37,-203.4399999999996
106,0.106000,1450,3064993,2317.03,1137.37,-1853.4399999999996
107,0.107000,1451,3065993,3373.03,833.37,-3110.4399999999996
108,0.108000,1452,3066993,7979.03,387.37,-2638.4399999999996
109,0.109000,1453,3067993,9344.03,-136.63,-1988.4399999999996
110,0.110000,1454,3068993,3302.03,-252.63,-1934.4399999999996
111,0.111000,1455,3069993,-6299.97,443.37,-3017.4399999999996
112,0.112000,1456,3070993,-2589.97,63.370000000000005,-3557.4399999999996
113,0.113000,1457,3071993,6967.03,349.37,-4808.44
114,0.114000,1458,3072993,17284.03,-4.629999999999999,-2759.4399999999996
115,0.115000,1459,3073993,21027.03,-282.63,-181.4399999999996
116,0.115999,1460,3074992,9902.03,975.37,-1230.4399999999996
117,0.117000,1461,3075993,-4187.97,693.37,732.5600000000004
118,0.118000,1462,3076993,-10660.97,86.37,3989.5600000000004
119,0.119000,1463,3077993,-8117.97,121.37,3214.5600000000004
120,0.120000,1464,3078993,-809.97,-820.63,2861.5600000000004
121,0.121000,1465,3079993,4621.03,-1087.63,3891.5600000000004
122,0.122000,1466,3080993,2913.03,-52.629999999999995,1522.5600000000004
123,0.123000,1467,3081993,-1135.97,-221.63,-77.4399999999996
124,0.124000,1468,3082993,-12722.97,-375.63,1480.5600000000004
125,0.125000,1469,3083993,-21178.97,-861.63,2492.5600000000004
126,0.126000,1470,3084993,-18544.97,-808.63,1997.5600000000004
127,0.127000,1471,3085993,-14245.97,-437.63,1815.5600000000004
128,0.128000,1472,3086993,-3596.97,21.37,2426.5600000000004
129,0.129000,1473,3087993,4343.03,447.37,1092.5600000000004
130,0.130000,1474,3088993,6347.03,-165.63,65.5600000000004
131,0.131000,1475,3089993,3708.03,693.37,-1225.4399999999996
132,0.132000,1476,3090993,2806.03,1284.37,-3025.4399999999996
133,0.133000,1477,3091993,7595.03,359.37,-2490.4399999999996
134,0.134000,1478,3092993,9082.03,30.37,-2112.4399999999996
135,0.135000,1479,3093993,5429.03,40.370000000000005,-1806.4399999999996
136,0.136000,1480,3094993,-3796.97,-250.63,-2242.4399999999996
137,0.137000,1481,3095993,-5221.97,296.37,-3558.4399999999996
138,0.138000,1482,3096993,3731.03,573.37,-4843.44
139,0.139000,1483,3097993,14945.03,-124.63,-3525.4399999999996
140,0.140000,1484,3098993,21542.03,-260.63,-501.4399999999996
141,0.141000,1485,3099993,14018.03,493.37,-1053.4399999999996
142,0.142000,1486,3100993,-1287.97,921.37,-680.4399999999996
143,0.143000,1487,3101993,-10058.97,366.37,3393.5600000000004
144,0.144000,1488,3102993,-9440.97,-106.63,3875.5600000000004
145,0.145000,1489,3103993,-3327.97,-416.63,2343.5600000000004
146,0.146000,1490,3104993,4449.03,-1091.63,3870.5600000000004
147,0.147000,1491,3105993,4551.03,-408.63,2469.5600000000004
148,0.148000,1492,3106993,-1780.97,131.37,-104.4399999999996
149,0.149000,1493,3107993,-8424.97,-632.63,1232.5600000000004
150,0.150000,1494,3108993,-18903.97,-742.63,2312.5600000000004
151,0.151000,1495,3109993,-19688.97,-394.63,2177.5600000000004
152,0.152000,1496,3110993,-16591.97,-71.63,1851.5600000000004
153,0.153000,1497,3111993,-6713.97,-266.63,2514.5600000000004
154,0.154000,1498,3112993,4684.03,-234.63,2028.5600000000004
155,0.155000,1499,3113993,5469.03,-167.63,157.5600000000004
156,0.156000,1500,3114993,3821.03,428.37,-962.4399999999996
157,0.157000,1501,3115993,2176.03,1169.37,-2648.4399999999996
158,0.157999,1502,3116992,6060.03,523.37,-3134.4399999999996
159,0.159000,1503,3117993,8857.03,218.37,-2331.4399999999996
160,0.160000,1504,3118993,7877.03,-168.63,-1629.4399999999996
161,0.161000,1505,3119993,-236.97,-233.63,-2184.4399999999996
162,0.162000,1506,3120993,-6656.97,393.37,-3215.4399999999996
163,0.163000,1507,3121993,-833.97,369.37,-4220.44
164,0.164000,1508,3122993,10995.03,166.37,-4463.44
165,0.164999,1509,3123992,21266.03,-340.63,-1347.4399999999996
166,0.166000,1510,3124993,18660.03,32.370000000000005,-236.4399999999996
167,0.167000,1511,3125993,4022.03,1032.37,-1018.4399999999996
168,0.168000,1512,3126993,-8479.97,651.37,2263.5600000000004
169,0.169000,1513,3127993,-11206.97,16.37,4289.56
170,0.170000,1514,3128993,-5500.97,-247.63,2656.5600000000004
171,0.171000,1515,3129993,2054.03,-970.63,3019.5600000000004
172,0.172000,1516,3130993,4938.03,-702.63,3283.5600000000004
173,0.173000,1517,3131993,760.03,-26.63,659.5600000000004
174,0.174000,1518,3132993,-5182.97,-409.63,322.5600000000004
175,0.175000,1519,3133993,-15151.97,-1032.63,2005.5600000000004
176,0.176000,1520,3134993,-19991.97,-695.63,2286.5600000000004
177,0.177000,1521,3135993,-19415.97,16.37,1803.5600000000004
178,0.178000,1522,3136993,-10441.97,-660.63,2339.5600000000004
179,0.178999,1523,3137992,1995.03,174.37,2228.5600000000004
180,0.180000,1524,3138993,5326.03,344.37,454.5600000000004
181,0.181000,1525,3139993,5382.03,-25.63,-372.4399999999996
182,0.182000,1526,3140993,2298.03,1065.37,-1997.4399999999996
183,0.183000,1527,3141993,3877.03,985.37,-3083.4399999999996
184,0.184000,1528,3142993,8265.03,296.37,-2501.4399999999996
185,0.185000,1529,3143993,8618.03,-107.63,-2007.4399999999996
186,0.186000,1530,3144993,2630.03,-147.63,-1822.4399999999996
187,0.187000,1531,3145993,-6377.97,4.370000000000001,-2828.4399999999996
188,0.188000,1532,3146993,-2890.97,371.37,-3834.4399999999996
189,0.189000,1533,3147993,7722.03,378.37,-4960.44
190,0.190000,1534,3148993,18655.03,-267.63,-2552.4399999999996
191,0.191000,1535,3149993,20388.03,8.370000000000001,-133.4399999999996
192,0.192000,1536,3150993,8871.03,759.37,-1330.4399999999996
193,0.193000,1537,3151993,-5433.97,833.37,915.5600000000004
194,0.194000,1538,3152993,-10831.97,64.37,4447.56
195,0.195000,1539,3153993,-6771.97,-229.63,3349.5600000000004
196,0.196000,1540,3154993,-223.97,-698.63,2805.5600000000004
197,0.197000,1541,3155993,5150.03,-1254.63,3844.5600000000004
198,0.198000,1542,3156993,1651.03,20.37,1102.5600000000004
199,0.199000,1543,3157993,-2304.97,-41.629999999999995,24.5600000000004
200,0.200000,1544,3158993,-12995.97,-636.63,1539.5600000000004
201,0.201000,1545,3159993,-21375.97,-834.63,2096.5600000000004
202,0.202000,1546,3160993,-18133.97,-550.63,2058.5600000000004
203,0.202999,1547,3161992,-13491.97,-245.63,2045.5600000000004
204,0.204000,1548,3162993,-2619.97,85.37,2629.5600000000004
205,0.205000,1549,3163993,4987.03,119.37,1051.5600000000004
206,0.206000,1550,3164993,5841.03,-161.63,-172.4399999999996
207,0.207000,1551,3165993,3444.03,950.37,-1413.4399999999996
208,0.208000,1552,3166993,2975.03,1136.37,-3161.4399999999996
209,0.209000,1553,3167993,7816.03,475.37,-2584.4399999999996
210,0.210000,1554,3168993,9732.03,-240.63,-1894.4399999999996
211,0.211000,1555,3169993,4969.03,-155.63,-1809.4399999999996
212,0.212000,1556,3170993,-5293.97,33.370000000000005,-2612.4399999999996
213,0.213000,1557,3171993,-5207.97,265.37,-3670.4399999999996
214,0.214000,1558,3172993,4523.03,543.37,-4784.44
215,0.214999,1559,3173992,15518.03,-230.63,-3426.4399999999996
216,0.216000,1560,3174993,21100.03,-30.63,-614.4399999999996
217,0.217000,1561,3175993,13560.03,337.37,-728.4399999999996
218,0.218000,1562,3176993,-1333.97,698.37,-253.4399999999996
219,0.219000,1563,3177993,-10832.97,698.37,3384.5600000000004
220,0.220000,1564,3178993,-9359.97,-95.63,3902.5600000000004
221,0.221000,1565,3179993,-2344.97,-688.63,2522.5600000000004
222,0.222000,1566,3180993,4513.03,-986.63,3725.5600000000004
223,0.223000,1567,3181993,4253.03,-401.63,2441.5600000000004
224,0.224000,1568,3182993,-1316.97,151.37,-135.4399999999996
225,0.225000,1569,3183993,-8689.97,-448.63,991.5600000000004
226,0.226000,1570,3184993,-19291.97,-1012.63,2394.5600000000004
227,0.226999,1571,3185992,-19723.97,-737.63,2325.5600000000004
228,0.228000,1572,3186993,-15578.97,-315.63,1895.5600000000004
229,0.229000,1573,3187993,-6602.97,-208.63,2511.5600000000004
230,0.230000,1574,3188993,3890.03,119.37,1575.5600000000004
231,0.231000,1575,3189993,5838.03,-158.63,-229.4399999999996
232,0.232000,1576,3190993,3732.03,609.37,-966.4399999999996
233,0.233000,1577,3191993,2314.03,1117.37,-2599.4399999999996
234,0.234000,1578,3192993,6431.03,798.37,-2896.4399999999996
235,0.235000,1579,3193993,8968.03,207.37,-2065.4399999999996
236,0.236000,1580,3194993,7449.03,-697.63,-1456.4399999999996
237,0.237000,1581,3195993,-1158.97,60.370000000000005,-2199.4399999999996
238,0.237999,1582,3196992,-6675.97,538.37,-3337.4399999999996
239,0.239000,1583,3197993,-363.97,414.37,-4561.44
240,0.240000,1584,3198993,12317.03,30.37,-4213.44
241,0.240999,1585,3199992,21521.03,-544.63,-982.4399999999996
242,0.242000,1586,3200993,17623.03,58.370000000000005,-623.4399999999996
243,0.243000,1587,3201993,3250.03,1234.37,-1174.4399999999996
244,0.244000,1588,3202993,-9036.97,733.37,2556.5600000000004
245,0.245000,1589,3203993,-10975.97,33.370000000000005,4183.56
246,0.246000,1590,3204993,-4678.97,-362.63,2567.5600000000004
247,0.247000,1591,3205993,2879.03,-1118.63,3415.5600000000004
248,0.248000,1592,3206993,4780.03,-714.63,3206.5600000000004
249,0.249000,1593,3207993,-38.97,34.370000000000005,187.5600000000004
250,0.250000,1594,3208993,-6354.97,-147.63,262.5600000000004
251,0.251000,1595,3209993,-15709.97,-1016.63,2202.5600000000004
252,0.251999,1596,3210992,-19425.97,-698.63,2446.5600000000004
253,0.253000,1597,3211993,-18509.97,20.37,1833.5600000000004
254,0.254000,1598,3212993,-9749.97,-775.63,2428.5600000000004
255,0.255000,1599,3213993,2556.03,150.37,2254.5600000000004
256,0.256000,1600,3214993,4969.03,367.37,520.5600000000004
257,0.257000,1601,3215993,4436.03,37.370000000000005,-452.4399999999996
258,0.258000,1602,3216993,2234.03,1112.37,-2344.4399999999996
259,0.259000,1603,3217993,4438.03,788.37,-3136.4399999999996
260,0.260000,1604,3218993,9116.03,305.37,-2408.4399999999996
261,0.261000,1605,3219993,8639.03,-151.63,-2048.4399999999996
262,0.262000,1606,3220993,1599.03,-124.63,-2073.4399999999996
263,0.263000,1607,3221993,-6517.97,296.37,-2784.4399999999996
264,0.264000,1608,3222993,-2578.97,185.37,-3670.4399999999996
265,0.265000,1609,3223993,8554.03,327.37,-4712.44
266,0.266000,1610,3224993,19140.03,-231.63,-2210.4399999999996
267,0.267000,1611,3225993,20268.03,51.370000000000005,-290.4399999999996
268,0.268000,1612,3226993,8167.03,729.37,-1159.4399999999996
269,0.269000,1613,3227993,-6411.97,767.37,1262.5600000000004
270,0.270000,1614,3228993,-11430.97,281.37,3956.5600000000004
271,0.270999,1615,3229992,-6753.97,-374.63,2904.5600000000004
272,0.272000,1616,3230993,79.03,-739.63,3009.5600000000004
273,0.273000,1617,3231993,5693.03,-951.63,3909.5600000000004
274,0.274000,1618,3232993,2098.03,-88.63,933.5600000000004
275,0.275000,1619,3233993,-2552.97,-238.63,107.5600000000004
276,0.276000,1620,3234993,-13351.97,-618.63,1744.5600000000004
277,0.277000,1621,3235993,-21446.97,-813.63,2122.5600000000004
278,0.278000,1622,3236993,-18189.97,-563.63,2269.5600000000004
279,0.279000,1623,3237993,-13549.97,-368.63,1970.5600000000004
280,0.280000,1624,3238993,-1491.97,142.37,2099.5600000000004
281,0.281000,1625,3239993,4973.03,123.37,1042.5600000000004
282,0.282000,1626,3240993,5680.03,-258.63,-39.4399999999996
283,0.283000,1627,3241993,3109.03,1086.37,-1622.4399999999996
284,0.284000,1628,3242993,2575.03,996.37,-3007.4399999999996
285,0.285000,1629,3243993,7603.03,541.37,-2555.4399999999996
286,0.286000,1630,3244993,9136.03,-0.629999999999999,-2228.4399999999996
287,0.287000,1631,3245993,5075.03,-394.63,-1492.4399999999996
288,0.288000,1632,3246993,-4815.97,55.370000000000005,-2195.4399999999996
289,0.289000,1633,3247993,-4070.97,358.37,-3668.4399999999996
290,0.290000,1634,3248993,5193.03,537.37,-4943.44
291,0.291000,1635,3249993,15909.03,-148.63,-3207.4399999999996
292,0.292000,1636,3250993,20958.03,-115.63,-438.4399999999996
293,0.293000,1637,3251993,12566.03,392.37,-1141.4399999999996
294,0.294000,1638,3252993,-1489.97,736.37,86.5600000000004
295,0.295000,1639,3253993,-10827.97,580.37,3552.5600000000004
296,0.296000,1640,3254993,-9228.97,-232.63,3462.5600000000004
297,0.297000,1641,3255993,-2280.97,-751.63,2715.5600000000004
298,0.298000,1642,3256993,4184.03,-890.63,3715.5600000000004
299,0.299000,1643,3257993,3829.03,-244.63,1805.5600000000004
300,0.300000,1644,3258993,-1434.97,-157.63,-118.4399999999996
301,0.301000,1645,3259993,-9746.97,-633.63,1284.5600000000004
302,0.302000,1646,3260993,-20173.97,-657.63,2345.5600000000004
303,0.303000,1647,3261993,-19703.97,-437.63,2122.5600000000004
304,0.304000,1648,3262993,-14418.97,-187.63,1517.5600000000004
305,0.305000,1649,3263993,-5511.97,66.37,2876.5600000000004
306,0.305999,1650,3264992,3801.03,-126.63,2167.5600000000004
307,0.307000,1651,3265993,6358.03,-367.63,38.5600000000004
308,0.308000,1652,3266993,3678.03,795.37,-1117.4399999999996
309,0.309000,1653,3267993,2193.03,1268.37,-3102.4399999999996
310,0.310000,1654,3268993,6586.03,565.37,-2964.4399999999996
311,0.311000,1655,3269993,8568.03,112.37,-2495.4399999999996
312,0.312000,1656,3270993,7564.03,-373.63,-1754.4399999999996
313,0.313000,1657,3271993,-1405.97,-371.63,-1912.4399999999996
314,0.313999,1658,3272992,-6943.97,505.37,-3431.4399999999996
315,0.315000,1659,3273993,826.03,501.37,-4671.44
316,0.316000,1660,3274993,12898.03,-50.629999999999995,-4070.4399999999996
317,0.317000,1661,3275993,21815.03,-246.63,-633.4399999999996
318,0.318000,1662,3276993,17001.03,291.37,-541.4399999999996
319,0.319000,1663,3277993,1934.03,1090.37,-951.4399999999996
320,0.320000,1664,3278993,-9616.97,436.37,2959.5600000000004
321,0.321000,1665,3279993,-10818.97,-93.63,4077.5600000000004
322,0.322000,1666,3280993,-4398.97,-203.63,2441.5600000000004
323,0.322999,1667,3281992,3650.03,-1134.63,3510.5600000000004
324,0.324000,1668,3282993,4970.03,-749.63,2944.5600000000004
325,0.325000,1669,3283993,-620.97,116.37,78.5600000000004
326,0.326000,1670,3284993,-6505.97,-411.63,582.5600000000004
327,0.327000,1671,3285993,-17003.97,-854.63,1982.5600000000004
328,0.328000,1672,3286993,-20092.97,-529.63,2221.5600000000004
329,0.329000,1673,3287993,-18424.97,-70.63,1912.5600000000004
330,0.330000,1674,3288993,-8595.97,-642.63,2477.5600000000004
331,0.331000,1675,3289993,3335.03,96.37,2245.5600000000004
332,0.331999,1676,3290992,5250.03,267.37,368.5600000000004
333,0.333000,1677,3291993,5000.03,172.37,-369.4399999999996
334,0.333999,1678,3292992,2128.03,1010.37,-2236.4399999999996
335,0.335000,1679,3293993,4927.03,896.37,-3196.4399999999996
336,0.336000,1680,3294993,8504.03,215.37,-2153.4399999999996
337,0.337000,1681,3295993,8092.03,-359.63,-1733.4399999999996
338,0.338000,1682,3296993,1337.03,-150.63,-2298.4399999999996
339,0.339000,1683,3297993,-6738.97,426.37,-3313.4399999999996
340,0.340000,1684,3298993,-2020.97,406.37,-4234.44
341,0.341000,1685,3299993,9822.03,89.37,-4650.44
342,0.342000,1686,3300993,20641.03,-382.63,-1665.4399999999996
343,0.343000,1687,3301993,19981.03,-107.63,-558.4399999999996
344,0.344000,1688,3302993,5809.03,1119.37,-1558.4399999999996
345,0.345000,1689,3303993,-7239.97,837.37,1996.5600000000004
346,0.345999,1690,3304992,-10910.97,-26.63,4256.56
347,0.347000,1691,3305993,-6287.97,-121.63,2629.5600000000004
348,0.348000,1692,3306993,1458.03,-1082.63,3279.5600000000004
349,0.349000,1693,3307993,5065.03,-754.63,3697.5600000000004
350,0.350000,1694,3308993,758.03,133.37,730.5600000000004
351,0.351000,1695,3309993,-3483.97,-516.63,337.5600000000004
352,0.352000,1696,3310993,-15042.97,-530.63,1733.5600000000004
353,0.353000,1697,3311993,-20922.97,-881.63,2366.5600000000004
354,0.354000,1698,3312993,-18256.97,-464.63,2189.5600000000004
355,0.355000,1699,3313993,-12656.97,-107.63,1978.5600000000004
356,0.356000,1700,3314993,168.03,-103.63,2651.5600000000004
357,0.357000,1701,3315993,5243.03,-55.629999999999995,794.5600000000004
358,0.358000,1702,3316993,5360.03,181.37,-577.4399999999996
359,0.359000,1703,3317993,2882.03,1018.37,-1726.4399999999996
360,0.359999,1704,3318992,3627.03,943.37,-3212.4399999999996
361,0.361000,1705,3319993,8545.03,436.37,-2684.4399999999996
362,0.362000,1706,3320993,9260.03,-253.63,-2114.4399999999996
363,0.363000,1707,3321993,3442.03,-230.63,-1800.4399999999996
364,0.363999,1708,3322992,-6267.97,261.37,-2592.4399999999996
365,0.365000,1709,3323993,-3187.97,176.37,-3698.4399999999996
366,0.366000,1710,3324993,7004.03,570.37,-4950.44
367,0.367000,1711,3325993,17573.03,-40.629999999999995,-2896.4399999999996
368,0.368000,1712,3326993,21546.03,-280.63,-175.4399999999996
369,0.369000,1713,3327993,10409.03,526.37,-1153.4399999999996
370,0.370000,1714,3328993,-4260.97,875.37,402.5600000000004
371,0.371000,1715,3329993,-11288.97,339.37,3927.5600000000004
372,0.372000,1716,3330993,-8406.97,-207.63,3263.5600000000004
373,0.373000,1717,3331993,-1080.97,-649.63,2633.5600000000004
374,0.374000,1718,3332993,5233.03,-1228.63,3873.5600000000004
375,0.375000,1719,3333993,3213.03,-171.63,1770.5600000000004
376,0.376000,1720,3334993,-1847.97,-60.629999999999995,12.5600000000004
377,0.377000,1721,3335993,-12558.97,-333.63,1267.5600000000004
378,0.378000,1722,3336993,-21696.97,-721.63,2223.5600000000004
379,0.379000,1723,3337993,-18747.97,-596.63,2232.5600000000004
380,0.380000,1724,3338993,-14205.97,-288.63,2189.5600000000004
381,0.381000,1725,3339993,-2666.97,-151.63,2923.5600000000004
382,0.382000,1726,3340993,5025.03,91.37,1426.5600000000004
383,0.383000,1727,3341993,5818.03,-97.63,-207.4399999999996
384,0.384000,1728,3342993,3613.03,912.37,-1287.4399999999996
385,0.385000,1729,3343993,2024.03,1093.37,-3222.4399999999996
386,0.386000,1730,3344993,7220.03,544.37,-2876.4399999999996
387,0.387000,1731,3345993,9275.03,-62.629999999999995,-2157.4399999999996
388,0.388000,1732,3346993,5718.03,-364.63,-1964.4399999999996
389,0.389000,1733,3347993,-3610.97,-189.63,-2206.4399999999996
390,0.390000,1734,3348993,-5100.97,283.37,-3377.4399999999996
391,0.391000,1735,3349993,3475.03,716.37,-5001.44
392,0.392000,1736,3350993,14897.03,-71.63,-3561.4399999999996
393,0.393000,1737,3351993,21002.03,-397.63,-515.4399999999996
394,0.394000,1738,3352993,14697.03,459.37,-1121.4399999999996
395,0.395000,1739,3353993,48.03,1058.37,-408.4399999999996
396,0.396000,1740,3354993,-10073.97,259.37,3666.5600000000004
397,0.397000,1741,3355993,-10033.97,40.370000000000005,3685.5600000000004
398,0.398000,1742,3356993,-3533.97,-258.63,2446.5600000000004
399,0.399000,1743,3357993,4722.03,-1390.63,4176.56
400,0.400000,1744,3358993,3749.03,-261.63,2584.5600000000004
401,0.400999,1745,3359992,-1295.97,142.37,-241.4399999999996
402,0.401999,1746,3360992,-8015.97,-678.63,855.5600000000004
403,0.402999,1747,3361992,-19432.97,-793.63,2517.5600000000004
404,0.404000,1748,3362993,-19394.97,-576.63,2464.5600000000004
405,0.405000,1749,3363993,-16543.97,-48.629999999999995,1388.5600000000004
406,0.406000,1750,3364993,-7498.97,-42.629999999999995,2356.5600000000004
407,0.407000,1751,3365993,3955.03,-100.63,2168.5600000000004
408,0.408000,1752,3366993,6010.03,-143.63,159.5600000000004
409,0.409000,1753,3367993,4281.03,403.37,-774.4399999999996
410,0.410000,1754,3368993,2377.03,1152.37,-2746.4399999999996
411,0.411000,1755,3369993,6402.03,811.37,-3090.4399999999996
412,0.412000,1756,3370993,8646.03,32.370000000000005,-2207.4399999999996
413,0.413000,1757,3371993,7517.03,-212.63,-1910.4399999999996
414,0.413999,1758,3372992,-690.97,-149.63,-2152.4399999999996
415,0.415000,1759,3373993,-6296.97,112.37,-2978.4399999999996
416,0.416000,1760,3374993,-451.97,629.37,-4531.44
417,0.417000,1761,3375993,11827.03,186.37,-4561.44
418,0.418000,1762,3376993,21793.03,-469.63,-970.4399999999996
419,0.419000,1763,3377993,18016.03,124.37,-386.4399999999996
420,0.420000,1764,3378993,3772.03,918.37,-1286.4399999999996
421,0.421000,1765,3379993,-9590.97,849.37,2187.5600000000004
422,0.422000,1766,3380993,-11190.97,2.370000000000001,4272.56
423,0.423000,1767,3381993,-4832.97,-376.63,2513.5600000000004
424,0.424000,1768,3382993,2840.03,-951.63,3283.5600000000004
425,0.425000,1769,3383993,5389.03,-888.63,3508.5600000000004
426,0.426000,1770,3384993,-85.97,-29.63,262.5600000000004
427,0.427000,1771,3385993,-6280.97,-141.63,440.5600000000004
428,0.427999,1772,3386992,-16205.97,-977.63,2264.5600000000004
429,0.429000,1773,3387993,-20005.97,-614.63,2280.5600000000004
430,0.430000,1774,3388993,-18441.97,-202.63,1959.5600000000004
431,0.431000,1775,3389993,-9988.97,-106.63,2495.5600000000004
432,0.432000,1776,3390993,2141.03,332.37,2303.5600000000004
433,0.433000,1777,3391993,5820.03,-343.63,552.5600000000004
434,0.433999,1778,3392992,4754.03,158.37,-390.4399999999996
435,0.435000,1779,3393993,2205.03,1204.37,-2267.4399999999996
436,0.436000,1780,3394993,4696.03,992.37,-3242.4399999999996
437,0.437000,1781,3395993,8349.03,270.37,-2404.4399999999996
438,0.438000,1782,3396993,8494.03,-107.63,-2020.4399999999996
439,0.438999,1783,3397992,1947.03,-524.63,-1998.4399999999996
440,0.440000,1784,3398993,-6742.97,141.37,-3021.4399999999996
441,0.441000,1785,3399993,-2248.97,574.37,-3977.4399999999996
442,0.442000,1786,3400993,9207.03,-93.63,-4644.44
443,0.443000,1787,3401993,19871.03,-304.63,-2176.4399999999996
444,0.444000,1788,3402993,20045.03,280.37,-431.4399999999996
445,0.445000,1789,3403993,7604.03,481.37,-1296.4399999999996
446,0.446000,1790,3404993,-6964.97,959.37,1169.5600000000004
447,0.447000,1791,3405993,-11016.97,589.37,4167.56
448,0.448000,1792,3406993,-6009.97,-622.63,3088.5600000000004
449,0.449000,1793,3407993,7.030000000000001,-634.63,2943.5600000000004
450,0.450000,1794,3408993,5494.03,-981.63,4210.56
451,0.451000,1795,3409993,1730.03,-146.63,1163.5600000000004
452,0.452000,1796,3410993,-3903.97,59.370000000000005,-15.4399999999996
453,0.453000,1797,3411993,-13689.97,-944.63,1768.5600000000004
454,0.454000,1798,3412993,-20940.97,-807.63,2076.5600000000004
455,0.455000,1799,3413993,-19313.97,-232.63,2079.5600000000004
456,0.456000,1800,3414993,-13327.97,-182.63,1581.5600000000004
457,0.457000,1801,3415993,-1313.97,283.37,2147.5600000000004
458,0.458000,1802,3416993,5727.03,-243.63,1632.5600000000004
459,0.459000,1803,3417993,6052.03,-573.63,24.5600000000004
460,0.460000,1804,3418993,3070.03,1324.37,-1786.4399999999996
461,0.461000,1805,3419993,3555.03,1081.37,-2962.4399999999996
462,0.462000,1806,3420993,8014.03,197.37,-2716.4399999999996
463,0.463000,1807,3421993,9071.03,95.37,-2379.4399999999996
464,0.464000,1808,3422993,4135.03,-327.63,-1674.4399999999996
465,0.465000,1809,3423993,-5841.97,142.37,-2376.4399999999996
466,0.466000,1810,3424993,-3418.97,247.37,-3522.4399999999996
467,0.467000,1811,3425993,6416.03,365.37,-5080.44
468,0.468000,1812,3426993,16394.03,49.370000000000005,-2977.4399999999996
469,0.469000,1813,3427993,21482.03,-583.63,-57.4399999999996
470,0.470000,1814,3428993,11613.03,502.37,-1395.4399999999996
471,0.471000,1815,3429993,-3575.97,1134.37,-13.4399999999996
472,0.472000,1816,3430993,-10988.97,211.37,3909.5600000000004
473,0.473000,1817,3431993,-8588.97,41.370000000000005,3260.5600000000004
474,0.474000,1818,3432993,-1426.97,-692.63,2481.5600000000004
475,0.475000,1819,3433993,4851.03,-1092.63,4212.56
476,0.476000,1820,3434993,3560.03,-179.63,1996.5600000000004
477,0.477000,1821,3435993,-1433.97,-20.63,-144.4399999999996
478,0.478000,1822,3436993,-11763.97,-271.63,1389.5600000000004
479,0.479000,1823,3437993,-21250.97,-756.63,2431.5600000000004
480,0.480000,1824,3438993,-18757.97,-609.63,2335.5600000000004
481,0.481000,1825,3439993,-14506.97,-430.63,2197.5600000000004
482,0.481999,1826,3440992,-4499.97,187.37,2767.5600000000004
483,0.483000,1827,3441993,4332.03,266.37,1207.5600000000004
484,0.484000,1828,3442993,6545.03,-418.63,-108.4399999999996
485,0.485000,1829,3443993,3505.03,593.37,-1241.4399999999996
486,0.486000,1830,3444993,2189.03,1320.37,-3142.4399999999996
487,0.487000,1831,3445993,7010.03,847.37,-2771.4399999999996
488,0.488000,1832,3446993,9067.03,-390.63,-2026.4399999999996
489,0.489000,1833,3447993,6378.03,-459.63,-1874.4399999999996
490,0.490000,1834,3448993,-3142.97,166.37,-2400.4399999999996
491,0.491000,1835,3449993,-5021.97,194.37,-3209.4399999999996
492,0.492000,1836,3450993,2348.03,496.37,-5032.44
493,0.493000,1837,3451993,14359.03,-23.63,-3996.4399999999996
494,0.494000,1838,3452993,21584.03,-474.63,-481.4399999999996
495,0.495000,1839,3453993,15345.03,307.37,-825.4399999999996
496,0.496000,1840,3454993,976.03,1293.37,-775.4399999999996
497,0.497000,1841,3455993,-10186.97,576.37,3129.5600000000004
498,0.498000,1842,3456993,-10263.97,-299.63,4014.5600000000004
499,0.499000,1843,3457993,-3860.97,-347.63,2462.5600000000004
500,0.500000,1844,3458993,3878.03,-1188.63,3788.5600000000004
501,0.501000,1845,3459993,4233.03,-455.63,2658.5600000000004
502,0.502000,1846,3460993,-1150.97,52.370000000000005,-203.4399999999996
503,0.503000,1847,3461993,-7369.97,-477.63,931.5600000000004
504,0.504000,1848,3462993,-18667.97,-656.63,2311.5600000000004
505,0.505000,1849,3463993,-19758.97,-584.63,2461.5600000000004
506,0.506000,1850,3464993,-17047.97,-213.63,1798.5600000000004
507,0.507000,1851,3465993,-8224.97,-359.63,2580.5600000000004
508,0.508000,1852,3466993,3720.03,155.37,2308.5600000000004
509,0.509000,1853,3467993,5957.03,46.370000000000005,80.5600000000004
510,0.510000,1854,3468993,4727.03,261.37,-648.4399999999996
511,0.511000,1855,3469993,2255.03,1069.37,-2502.4399999999996
512,0.512000,1856,3470993,5608.03,867.37,-3314.4399999999996
513,0.513000,1857,3471993,8884.03,80.37,-2481.4399999999996
514,0.514000,1858,3472993,7245.03,-422.63,-2170.4399999999996
515,0.515000,1859,3473993,111.03,-283.63,-2073.4399999999996
516,0.516000,1860,3474993,-6131.97,419.37,-2841.4399999999996
517,0.517000,1861,3475993,-1533.97,844.37,-4515.44
518,0.518000,1862,3476993,11464.03,-59.629999999999995,-4316.44
519,0.519000,1863,3477993,21283.03,-690.63,-1201.4399999999996
520,0.520000,1864,3478993,18697.03,231.37,-528.4399999999996
521,0.521000,1865,3479993,4737.03,884.37,-1283.4399999999996
522,0.522000,1866,3480993,-8676.97,909.37,2140.5600000000004
523,0.522999,1867,3481992,-10976.97,19.37,4401.56
524,0.524000,1868,3482993,-5583.97,-416.63,2438.5600000000004
525,0.525000,1869,3483993,2189.03,-680.63,3302.5600000000004
526,0.526000,1870,3484993,5922.03,-1116.63,3759.5600000000004
527,0.526999,1871,3485992,176.03,147.37,374.5600000000004
528,0.528000,1872,3486993,-5692.97,-141.63,457.5600000000004
529,0.529000,1873,3487993,-15212.97,-1219.63,1974.5600000000004
530,0.530000,1874,3488993,-20860.97,-437.63,2047.5600000000004
531,0.531000,1875,3489993,-19038.97,-180.63,2115.5600000000004
532,0.532000,1876,3490993,-10954.97,-518.63,2151.5600000000004
533,0.533000,1877,3491993,1750.03,299.37,2169.5600000000004
534,0.534000,1878,3492993,5853.03,-91.63,815.5600000000004
535,0.534999,1879,3493992,4789.03,169.37,-304.4399999999996
536,0.536000,1880,3494993,2363.03,1217.37,-1919.4399999999996
537,0.537000,1881,3495993,4327.03,747.37,-3296.4399999999996
538,0.538000,1882,3496993,8231.03,596.37,-2722.4399999999996
539,0.539000,1883,3497993,9078.03,267.37,-1864.4399999999996
540,0.540000,1884,3498993,3049.03,-564.63,-1876.4399999999996
541,0.541000,1885,3499993,-6458.97,-30.63,-2976.4399999999996
542,0.542000,1886,3500993,-2949.97,244.37,-3991.4399999999996
543,0.543000,1887,3501993,7763.03,361.37,-4954.44
544,0.544000,1888,3502993,19205.03,-98.63,-2376.4399999999996
545,0.545000,1889,3503993,21232.03,-606.63,-154.4399999999996
546,0.545999,1890,3504992,8425.03,763.37,-1245.4399999999996
547,0.547000,1891,3505993,-5171.97,988.37,946.5600000000004
548,0.548000,1892,3506993,-11461.97,443.37,3968.5600000000004
549,0.549000,1893,3507993,-7753.97,-148.63,3104.5600000000004
550,0.550000,1894,3508993,3.030000000000001,-1189.63,2862.5600000000004
551,0.551000,1895,3509993,4693.03,-767.63,3804.5600000000004
552,0.552000,1896,3510993,2318.03,52.370000000000005,1354.5600000000004
553,0.553000,1897,3511993,-2150.97,-316.63,-30.4399999999996
554,0.554000,1898,3512993,-13990.97,-366.63,1645.5600000000004
555,0.555000,1899,3513993,-21443.97,-986.63,2482.5600000000004
556,0.556000,1900,3514993,-18698.97,-409.63,2158.5600000000004
557,0.557000,1901,3515993,-13929.97,-108.63,2018.5600000000004
558,0.558000,1902,3516993,-1128.97,-164.63,2519.5600000000004
559,0.559000,1903,3517993,5043.03,266.37,1110.5600000000004
560,0.560000,1904,3518993,6281.03,-198.63,-63.4399999999996
561,0.561000,1905,3519993,3322.03,841.37,-1552.4399999999996
562,0.562000,1906,3520993,2150.03,1054.37,-3248.4399999999996
563,0.563000,1907,3521993,8173.03,159.37,-2702.4399999999996
564,0.564000,1908,3522993,9657.03,73.37,-2209.4399999999996
565,0.565000,1909,3523993,4491.03,-53.629999999999995,-2070.4399999999996
566,0.566000,1910,3524993,-5161.97,-113.63,-2519.4399999999996
567,0.567000,1911,3525993,-4207.97,273.37,-3491.4399999999996
568,0.568000,1912,3526993,5486.03,500.37,-5025.44
569,0.569000,1913,3527993,16309.03,-56.629999999999995,-3079.4399999999996
570,0.570000,1914,3528993,21519.03,-321.63,-40.4399999999996
571,0.571000,1915,3529993,12505.03,400.37,-976.4399999999996
572,0.572000,1916,3530993,-2726.97,956.37,-328.4399999999996
573,0.573000,1917,3531993,-10886.97,764.37,3568.5600000000004
574,0.574000,1918,3532993,-8768.97,-194.63,3814.5600000000004
575,0.575000,1919,3533993,-2100.97,-739.63,2412.5600000000004
576,0.576000,1920,3534993,4527.03,-807.63,3739.5600000000004
577,0.577000,1921,3535993,4123.03,-584.63,2265.5600000000004
578,0.578000,1922,3536993,-1987.97,86.37,-207.4399999999996
579,0.579000,1923,3537993,-10446.97,-406.63,1199.5600000000004
580,0.580000,1924,3538993,-20620.97,-1018.63,2376.5600000000004
581,0.581000,1925,3539993,-19910.97,-493.63,1995.5600000000004
582,0.582000,1926,3540993,-14400.97,-318.63,1808.5600000000004
583,0.583000,1927,3541993,-5189.97,152.37,2640.5600000000004
584,0.584000,1928,3542993,4159.03,203.37,1774.5600000000004
585,0.585000,1929,3543993,6261.03,-393.63,347.5600000000004
586,0.586000,1930,3544993,3803.03,705.37,-1009.4399999999996
587,0.587000,1931,3545993,2346.03,1226.37,-2893.4399999999996
588,0.587999,1932,3546992,6531.03,558.37,-2885.4399999999996
589,0.589000,1933,3547993,9003.03,-107.63,-2582.4399999999996
590,0.590000,1934,3548993,7046.03,-257.63,-1797.4399999999996
591,0.591000,1935,3549993,-1628.97,10.370000000000001,-2140.4399999999996
592,0.592000,1936,3550993,-6047.97,354.37,-3508.4399999999996
593,0.593000,1937,3551993,888.03,330.37,-4628.44
594,0.594000,1938,3552993,12868.03,-75.63,-4162.44
595,0.595000,1939,3553993,21336.03,-297.63,-1038.4399999999996
596,0.596000,1940,3554993,16743.03,193.37,-519.4399999999996
597,0.597000,1941,3555993,2123.03,1017.37,-753.4399999999996
598,0.598000,1942,3556993,-9405.97,699.37,2700.5600000000004
599,0.599000,1943,3557993,-10576.97,-16.63,4181.56
600,0.600000,1944,3558993,-4311.97,-449.63,2878.5600000000004
601,0.601000,1945,3559993,3075.03,-961.63,3527.5600000000004
602,0.602000,1946,3560993,4625.03,-584.63,2868.5600000000004
603,0.603000,1947,3561993,-827.97,-19.63,221.5600000000004
604,0.604000,1948,3562993,-7075.97,-377.63,641.5600000000004
605,0.605000,1949,3563993,-16636.97,-957.63,2227.5600000000004
606,0.606000,1950,3564993,-19909.97,-610.63,2246.5600000000004
607,0.606999,1951,3565992,-18539.97,40.370000000000005,1569.5600000000004
608,0.608000,1952,3566993,-8737.97,-210.63,2362.5600000000004
609,0.609000,1953,3567993,3487.03,5.370000000000001,2297.5600000000004
610,0.610000,1954,3568993,5786.03,-151.63,284.5600000000004
611,0.611000,1955,3569993,4836.03,293.37,-698.4399999999996
612,0.612000,1956,3570993,2298.03,1119.37,-2278.4399999999996
613,0.612999,1957,3571992,5285.03,965.37,-3037.4399999999996
614,0.614000,1958,3572993,8724.03,280.37,-2398.4399999999996
615,0.615000,1959,3573993,8308.03,-442.63,-1867.4399999999996
616,0.616000,1960,3574993,1018.03,-105.63,-2065.4399999999996
617,0.617000,1961,3575993,-6505.97,-85.63,-2899.4399999999996
618,0.618000,1962,3576993,-2494.97,412.37,-4223.44
619,0.619000,1963,3577993,9193.03,541.37,-4865.44
620,0.620000,1964,3578993,21126.03,-758.63,-1497.4399999999996
621,0.621000,1965,3579993,20080.03,53.370000000000005,-153.4399999999996
622,0.622000,1966,3580993,5735.03,1011.37,-1432.4399999999996
623,0.623000,1967,3581993,-7885.97,830.37,1461.5600000000004
624,0.624000,1968,3582993,-11221.97,246.37,4331.56
625,0.625000,1969,3583993,-5779.97,-285.63,2913.5600000000004
626,0.626000,1970,3584993,1916.03,-962.63,3186.5600000000004
627,0.627000,1971,3585993,5483.03,-861.63,3892.5600000000004
628,0.628000,1972,3586993,770.03,-44.629999999999995,708.5600000000004
629,0.629000,1973,3587993,-4667.97,-238.63,126.5600000000004
630,0.630000,1974,3588993,-14951.97,-680.63,1908.5600000000004
631,0.631000,1975,3589993,-20651.97,-873.63,2221.5600000000004
632,0.632000,1976,3590993,-18835.97,-280.63,1827.5600000000004
633,0.633000,1977,3591993,-11675.97,-661.63,2231.5600000000004
634,0.634000,1978,3592993,407.03,100.37,2042.5600000000004
635,0.635000,1979,3593993,4861.03,424.37,569.5600000000004
636,0.636000,1980,3594993,5146.03,-73.63,5.5600000000004
637,0.637000,1981,3595993,2572.03,1102.37,-1891.4399999999996
638,0.638000,1982,3596993,3853.03,1003.37,-2912.4399999999996
639,0.639000,1983,3597993,8627.03,311.37,-2169.4399999999996
640,0.640000,1984,3598993,9942.03,37.370000000000005,-1889.4399999999996
641,0.641000,1985,3599993,3598.03,-46.629999999999995,-1946.4399999999996
642,0.642000,1986,3600993,-6491.97,91.37,-2734.4399999999996
643,0.643000,1987,3601993,-3475.97,-20.63,-3705.4399999999996
644,0.644000,1988,3602993,6614.03,446.37,-5159.44
645,0.645000,1989,3603993,17261.03,-12.629999999999999,-2910.4399999999996
646,0.646000,1990,3604993,21702.03,-373.63,-241.4399999999996
647,0.647000,1991,3605993,10702.03,753.37,-1376.4399999999996
648,0.648000,1992,3606993,-4591.97,771.37,325.5600000000004
649,0.649000,1993,3607993,-11336.97,295.37,3761.5600000000004
650,0.650000,1994,3608993,-8184.97,-166.63,3354.5600000000004
651,0.651000,1995,3609993,-878.97,-857.63,2991.5600000000004
652,0.651999,1996,3610992,4933.03,-845.63,4052.5600000000004
653,0.653000,1997,3611993,3173.03,-126.63,1622.5600000000004
654,0.654000,1998,3612993,-2053.97,-102.63,-26.4399999999996
655,0.655000,1999,3613993,-12482.97,-444.63,1636.5600000000004
656,0.656000,2000,3614993,-21101.97,-817.63,2514.5600000000004
657,0.656999,2001,3615992,-18496.97,-495.63,2141.5600000000004
658,0.658000,2002,3616993,-13621.97,-675.63,2114.5600000000004
659,0.659000,2003,3617993,-3420.97,32.370000000000005,2508.5600000000004
660,0.660000,2004,3618993,3963.03,477.37,1018.5600000000004
661,0.661000,2005,3619993,5774.03,-442.63,-214.4399999999996
662,0.662000,2006,3620993,3479.03,765.37,-1454.4399999999996
663,0.662999,2007,3621992,2283.03,1161.37,-3061.4399999999996
664,0.664000,2008,3622993,7764.03,431.37,-2816.4399999999996
665,0.665000,2009,3623993,9362.03,-8.629999999999999,-2293.4399999999996
666,0.666000,2010,3624993,5899.03,-135.63,-1883.4399999999996
667,0.667000,2011,3625993,-3172.97,48.370000000000005,-2127.4399999999996
668,0.668000,2012,3626993,-5326.97,281.37,-3130.4399999999996
669,0.669000,2013,3627993,2997.03,526.37,-4817.44
670,0.670000,2014,3628993,14188.03,119.37,-3766.4399999999996
671,0.671000,2015,3629993,21490.03,-289.63,-315.4399999999996
672,0.671999,2016,3630992,14695.03,413.37,-731.4399999999996
673,0.673000,2017,3631993,434.03,770.37,-633.4399999999996
674,0.674000,2018,3632993,-10526.97,508.37,3074.5600000000004
675,0.675000,2019,3633993,-10359.97,-84.63,3899.5600000000004
676,0.676000,2020,3634993,-3113.97,-794.63,2420.5600000000004
677,0.677000,2021,3635993,3602.03,-876.63,3224.5600000000004
678,0.678000,2022,3636993,4745.03,-428.63,2655.5600000000004
679,0.679000,2023,3637993,-1016.97,-135.63,181.5600000000004
680,0.680000,2024,3638993,-8468.97,-364.63,917.5600000000004
681,0.680999,2025,3639992,-19160.97,-827.63,2312.5600000000004
682,0.682000,2026,3640993,-20065.97,-508.63,2214.5600000000004
683,0.683000,2027,3641993,-15826.97,-355.63,2182.5600000000004
684,0.684000,2028,3642993,-6057.97,-630.63,2953.5600000000004
685,0.685000,2029,3643993,3958.03,597.37,1709.5600000000004
686,0.686000,2030,3644993,5477.03,166.37,98.5600000000004
687,0.687000,2031,3645993,3954.03,275.37,-705.4399999999996
688,0.688000,2032,3646993,1694.03,1299.37,-2707.4399999999996
689,0.689000,2033,3647993,5800.03,723.37,-3137.4399999999996
690,0.690000,2034,3648993,8431.03,336.37,-2515.4399999999996
691,0.691000,2035,3649993,7719.03,-584.63,-1515.4399999999996
692,0.692000,2036,3650993,916.03,-451.63,-2123.4399999999996
693,0.693000,2037,3651993,-6246.97,584.37,-3523.4399999999996
694,0.694000,2038,3652993,-1453.97,499.37,-4247.44
695,0.695000,2039,3653993,10515.03,135.37,-4526.44
696,0.696000,2040,3654993,21111.03,-793.63,-1294.4399999999996
697,0.697000,2041,3655993,18673.03,175.37,-248.4399999999996
698,0.698000,2042,3656993,4732.03,1474.37,-1067.4399999999996
699,0.699000,2043,3657993,-7994.97,515.37,2120.5600000000004
700,0.700000,2044,3658993,-11375.97,67.37,4205.56
701,0.701000,2045,3659993,-5587.97,-293.63,2935.5600000000004
702,0.702000,2046,3660993,2020.03,-913.63,3075.5600000000004
703,0.703000,2047,3661993,4846.03,-698.63,3407.5600000000004
704,0.704000,2048,3662993,244.03,-225.63,801.5600000000004
705,0.705000,2049,3663993,-5063.97,-240.63,266.5600000000004
706,0.706000,2050,3664993,-15393.97,-907.63,1936.5600000000004
707,0.707000,2051,3665993,-19946.97,-861.63,2397.5600000000004
708,0.708000,2052,3666993,-19197.97,173.37,1622.5600000000004
709,0.708999,2053,3667992,-11283.97,-516.63,1920.5600000000004
710,0.710000,2054,3668993,2395.03,-121.63,2268.5600000000004
711,0.711000,2055,3669993,5506.03,373.37,593.5600000000004
712,0.712000,2056,3670993,5290.03,-29.63,-161.4399999999996
713,0.713000,2057,3671993,2213.03,1017.37,-1954.4399999999996
714,0.713999,2058,3672992,3966.03,974.37,-3233.4399999999996
715,0.715000,2059,3673993,8843.03,528.37,-2504.4399999999996
716,0.716000,2060,3674993,9293.03,-274.63,-1773.4399999999996
717,0.717000,2061,3675993,3260.03,-492.63,-1848.4399999999996
718,0.718000,2062,3676993,-6546.97,332.37,-2970.4399999999996
719,0.719000,2063,3677993,-3686.97,318.37,-3722.4399999999996
720,0.719999,2064,3678992,7140.03,369.37,-4912.44
721,0.721000,2065,3679993,18060.03,-164.63,-2430.4399999999996
722,0.722000,2066,3680993,20927.03,-487.63,-22.4399999999996
723,0.723000,2067,3681993,9617.03,647.37,-1270.4399999999996
724,0.724000,2068,3682993,-4960.97,1174.37,858.5600000000004
725,0.725000,2069,3683993,-11306.97,255.37,4158.56
726,0.725999,2070,3684992,-7714.97,-159.63,3161.5600000000004
727,0.727000,2071,3685993,-567.97,-885.63,2681.5600000000004
728,0.728000,2072,3686993,5248.03,-1020.63,3827.5600000000004
729,0.729000,2073,3687993,2591.03,-193.63,1480.5600000000004
730,0.730000,2074,3688993,-2585.97,-210.63,14.5600000000004
731,0.731000,2075,3689993,-13596.97,-186.63,1346.5600000000004
732,0.732000,2076,3690993,-21684.97,-857.63,2101.5600000000004
733,0.732999,2077,3691992,-17985.97,-639.63,2169.5600000000004
734,0.734000,2078,3692993,-13677.97,234.37,1771.5600000000004
735,0.735000,2079,3693993,-1594.97,-18.63,2551.5600000000004
736,0.736000,2080,3694993,5589.03,-364.63,1541.5600000000004
737,0.737000,2081,3695993,5491.03,-36.629999999999995,-70.4399999999996
738,0.738000,2082,3696993,3147.03,864.37,-1358.4399999999996
739,0.739000,2083,3697993,2172.03,1100.37,-3099.4399999999996
740,0.740000,2084,3698993,8294.03,239.37,-2719.4399999999996
741,0.741000,2085,3699993,9852.03,-180.63,-2028.4399999999996
742,0.742000,2086,3700993,5263.03,7.370000000000001,-1816.4399999999996
743,0.743000,2087,3701993,-4672.97,42.370000000000005,-2625.4399999999996
744,0.744000,2088,3702993,-5542.97,230.37,-3627.4399999999996
745,0.745000,2089,3703993,3739.03,441.37,-4924.44
746,0.746000,2090,3704993,15369.03,-10.629999999999999,-3463.4399999999996
747,0.747000,2091,3705993,21916.03,-471.63,-231.4399999999996
748,0.748000,2092,3706993,13628.03,430.37,-1076.4399999999996
749,0.749000,2093,3707993,-576.97,1141.37,-317.4399999999996
750,0.750000,2094,3708993,-10663.97,496.37,3743.5600000000004
751,0.751000,2095,3709993,-10199.97,19.37,3697.5600000000004
752,0.752000,2096,3710993,-2762.97,-640.63,2521.5600000000004
753,0.753000,2097,3711993,4721.03,-1200.63,4017.5600000000004
754,0.754000,2098,3712993,4316.03,-319.63,2347.5600000000004
755,0.755000,2099,3713993,-1955.97,38.370000000000005,-286.4399999999996
756,0.756000,2100,3714993,-8998.97,-442.63,1026.5600000000004
757,0.757000,2101,3715993,-19908.97,-649.63,2335.5600000000004
758,0.758000,2102,3716993,-19502.97,-692.63,2219.5600000000004
759,0.759000,2103,3717993,-15195.97,-554.63,1864.5600000000004
760,0.760000,2104,3718993,-6219.97,-250.63,2710.5600000000004
761,0.761000,2105,3719993,4005.03,253.37,1561.5600000000004
762,0.762000,2106,3720993,5750.03,106.37,-296.4399999999996
763,0.763000,2107,3721993,4113.03,500.37,-967.4399999999996
764,0.764000,2108,3722993,2239.03,1239.37,-2632.4399999999996
765,0.765000,2109,3723993,6649.03,504.37,-2673.4399999999996
766,0.766000,2110,3724993,8860.03,215.37,-2391.4399999999996
767,0.767000,2111,3725993,7299.03,101.37,-1915.4399999999996
768,0.768000,2112,3726993,-1063.97,-301.63,-2002.4399999999996
769,0.769000,2113,3727993,-6565.97,336.37,-3254.4399999999996
770,0.770000,2114,3728993,-42.97,452.37,-4559.44
771,0.771000,2115,3729993,12375.03,-72.63,-4145.44
772,0.772000,2116,3730993,21518.03,-514.63,-777.4399999999996
773,0.773000,2117,3731993,17440.03,161.37,-728.4399999999996
774,0.774000,2118,3732993,2969.03,1019.37,-1147.4399999999996
775,0.775000,2119,3733993,-9378.97,668.37,2663.5600000000004
776,0.776000,2120,3734993,-10648.97,83.37,4108.56
777,0.777000,2121,3735993,-4540.97,-360.63,2500.5600000000004
778,0.778000,2122,3736993,2888.03,-981.63,3362.5600000000004
779,0.778999,2123,3737992,4853.03,-776.63,3288.5600000000004
780,0.780000,2124,3738993,-582.97,59.370000000000005,207.5600000000004
781,0.781000,2125,3739993,-6658.97,-302.63,452.5600000000004
782,0.782000,2126,3740993,-16314.97,-1021.63,2116.5600000000004
783,0.783000,2127,3741993,-19629.97,-570.63,2318.5600000000004
784,0.784000,2128,3742993,-18085.97,-97.63,1942.5600000000004
785,0.785000,2129,3743993,-9945.97,-158.63,2142.5600000000004
786,0.786000,2130,3744993,2826.03,179.37,2164.5600000000004
787,0.787000,2131,3745993,5885.03,-293.63,745.5600000000004
788,0.788000,2132,3746993,4648.03,204.37,-441.4399999999996
789,0.789000,2133,3747993,2269.03,1193.37,-2273.4399999999996
790,0.790000,2134,3748993,5240.03,833.37,-2976.4399999999996
791,0.791000,2135,3749993,9045.03,280.37,-2299.4399999999996
792,0.792000,2136,3750993,7540.03,-33.629999999999995,-2237.4399999999996
793,0.793000,2137,3751993,1499.03,-516.63,-1963.4399999999996
794,0.794000,2138,3752993,-6363.97,39.370000000000005,-2950.4399999999996
795,0.795000,2139,3753993,-2401.97,694.37,-4104.44
796,0.796000,2140,3754993,9067.03,45.370000000000005,-4575.44
797,0.797000,2141,3755993,19493.03,-518.63,-2103.4399999999996
798,0.798000,2142,3756993,19958.03,53.370000000000005,-410.4399999999996
799,0.799000,2143,3757993,7666.03,742.37,-1372.4399999999996
800,0.800000,2144,3758993,-7123.97,1106.37,1241.5600000000004
801,0.801000,2145,3759993,-11237.97,254.37,4248.56
802,0.802000,2146,3760993,-6126.97,-337.63,3140.5600000000004
803,0.803000,2147,3761993,435.03,-752.63,3047.5600000000004
804,0.804000,2148,3762993,5378.03,-1033.63,4063.5600000000004
805,0.805000,2149,3763993,1675.03,145.37,1014.5600000000004
806,0.806000,2150,3764993,-3146.97,-292.63,198.5600000000004
807,0.807000,2151,3765993,-13914.97,-636.63,1822.5600000000004
808,0.808000,2152,3766993,-20806.97,-806.63,2056.5600000000004
809,0.809000,2153,3767993,-18485.97,-631.63,2066.5600000000004
810,0.810000,2154,3768993,-14090.97,-98.63,1848.5600000000004
811,0.811000,2155,3769993,-1295.97,231.37,1993.5600000000004
812,0.812000,2156,3770993,5906.03,-120.63,890.5600000000004
813,0.813000,2157,3771993,6092.03,-361.63,1.5600000000004002
814,0.814000,2158,3772993,3145.03,1191.37,-1660.4399999999996
815,0.815000,2159,3773993,3217.03,1167.37,-2960.4399999999996
816,0.816000,2160,3774993,8081.03,264.37,-2350.4399999999996
817,0.817000,2161,3775993,8886.03,-94.63,-2080.4399999999996
818,0.818000,2162,3776993,4008.03,-234.63,-1568.4399999999996
819,0.819000,2163,3777993,-5603.97,138.37,-2321.4399999999996
820,0.820000,2164,3778993,-3528.97,253.37,-3599.4399999999996
821,0.821000,2165,3779993,6142.03,450.37,-5069.44
822,0.822000,2166,3780993,16472.03,-97.63,-3062.4399999999996
823,0.823000,2167,3781993,21094.03,-588.63,-270.4399999999996
824,0.824000,2168,3782993,10975.03,761.37,-1600.4399999999996
825,0.825000,2169,3783993,-2816.97,987.37,128.5600000000004
826,0.826000,2170,3784993,-10800.97,268.37,3927.5600000000004
827,0.827000,2171,3785993,-8525.97,29.37,3377.5600000000004
828,0.828000,2172,3786993,-1162.97,-878.63,2598.5600000000004
829,0.829000,2173,3787993,4810.03,-864.63,3984.5600000000004
830,0.829999,2174,3788992,3687.03,-140.63,2109.5600000000004
831,0.830999,2175,3789992,-1730.97,-184.63,-101.4399999999996
832,0.832000,2176,3790993,-10936.97,-422.63,1242.5600000000004
833,0.833000,2177,3791993,-20877.97,-908.63,2514.5600000000004
834,0.834000,2178,3792993,-18842.97,-615.63,2300.5600000000004
835,0.835000,2179,3793993,-14418.97,-201.63,1817.5600000000004
836,0.836000,2180,3794993,-4834.97,32.370000000000005,2054.5600000000004
837,0.837000,2181,3795993,3844.03,203.37,1536.5600000000004
838,0.838000,2182,3796993,5640.03,-433.63,460.5600000000004
839,0.839000,2183,3797993,3699.03,555.37,-1233.4399999999996
840,0.839999,2184,3798992,2248.03,1331.37,-2922.4399999999996
841,0.841000,2185,3799993,7359.03,549.37,-2799.4399999999996
842,0.842000,2186,3800993,9177.03,-8.629999999999999,-2119.4399999999996
843,0.843000,2187,3801993,6269.03,-322.63,-1494.4399999999996
844,0.844000,2188,3802993,-2256.97,-26.63,-2356.4399999999996
845,0.845000,2189,3803993,-5828.97,596.37,-3615.4399999999996
846,0.846000,2190,3804993,1726.03,271.37,-4536.44
847,0.847000,2191,3805993,13956.03,-287.63,-3925.4399999999996
848,0.848000,2192,3806993,21158.03,-268.63,-987.4399999999996
849,0.849000,2193,3807993,16106.03,360.37,-831.4399999999996
850,0.849999,2194,3808992,1298.03,838.37,-702.4399999999996
851,0.851000,2195,3809993,-10099.97,543.37,2858.5600000000004
852,0.851999,2196,3810992,-10441.97,67.37,3910.5600000000004
853,0.853000,2197,3811993,-4462.97,-175.63,2386.5600000000004
854,0.854000,2198,3812993,3828.03,-945.63,3592.5600000000004
855,0.855000,2199,3813993,5120.03,-761.63,3044.5600000000004
856,0.856000,2200,3814993,-394.97,70.37,204.5600000000004
857,0.857000,2201,3815993,-7007.97,-374.63,978.5600000000004
858,0.858000,2202,3816993,-17497.97,-887.63,2357.5600000000004
859,0.859000,2203,3817993,-19958.97,-487.63,2303.5600000000004
860,0.860000,2204,3818993,-18069.97,-210.63,1816.5600000000004
861,0.861000,2205,3819993,-8362.97,-633.63,2371.5600000000004
862,0.862000,2206,3820993,3447.03,284.37,1779.5600000000004
863,0.863000,2207,3821993,5597.03,42.370000000000005,231.5600000000004
864,0.864000,2208,3822993,4438.03,168.37,-640.4399999999996
865,0.865000,2209,3823993,1881.03,1169.37,-2608.4399999999996
866,0.866000,2210,3824993,5422.03,728.37,-3091.4399999999996
867,0.867000,2211,3825993,8737.03,354.37,-2358.4399999999996
868,0.867999,2212,3826992,7858.03,31.37,-1864.4399999999996
869,0.869000,2213,3827993,1007.03,-370.63,-1906.4399999999996
870,0.870000,2214,3828993,-6070.97,51.370000000000005,-2839.4399999999996
871,0.871000,2215,3829993,-2000.97,576.37,-4065.4399999999996
872,0.872000,2216,3830993,10034.03,279.37,-4431.44
873,0.872999,2217,3831992,20498.03,-437.63,-1664.4399999999996
874,0.874000,2218,3832993,19467.03,-50.629999999999995,-477.4399999999996
875,0.875000,2219,3833993,5758.03,833.37,-1298.4399999999996
876,0.876000,2220,3834993,-7874.97,898.37,1642.5600000000004
877,0.877000,2221,3835993,-10762.97,77.37,4179.56
878,0.878000,2222,3836993,-6375.97,-331.63,2613.5600000000004
879,0.879000,2223,3837993,1348.03,-728.63,3063.5600000000004
880,0.880000,2224,3838993,5699.03,-1196.63,3743.5600000000004
881,0.881000,2225,3839993,882.03,138.37,614.5600000000004
882,0.882000,2226,3840993,-4306.97,-59.629999999999995,341.5600000000004
883,0.883000,2227,3841993,-14598.97,-955.63,1838.5600000000004
884,0.883999,2228,3842992,-20389.97,-713.63,2283.5600000000004
885,0.885000,2229,3843993,-18840.97,-425.63,2256.5600000000004
886,0.885999,2230,3844992,-12913.97,75.37,2131.5600000000004
887,0.887000,2231,3845993,889.03,324.37,2356.5600000000004
888,0.888000,2232,3846993,6218.03,-433.63,983.5600000000004
889,0.889000,2233,3847993,4962.03,61.370000000000005,-240.4399999999996
890,0.890000,2234,3848993,2497.03,1063.37,-1873.4399999999996
891,0.891000,2235,3849993,3476.03,863.37,-3333.4399999999996
892,0.892000,2236,3850993,8149.03,392.37,-2530.4399999999996
893,0.893000,2237,3851993,9177.03,-143.63,-1782.4399999999996
894,0.894000,2238,3852993,3817.03,5.370000000000001,-2081.4399999999996
895,0.895000,2239,3853993,-6111.97,121.37,-2845.4399999999996
896,0.896000,2240,3854993,-3492.97,-50.629999999999995,-3565.4399999999996
897,0.897000,2241,3855993,6727.03,598.37,-4908.44
898,0.898000,2242,3856993,17469.03,-19.63,-2864.4399999999996
899,0.899000,2243,3857993,21151.03,-382.63,-372.4399999999996
900,0.899999,2244,3858992,10462.03,621.37,-1120.4399999999996
901,0.901000,2245,3859993,-3848.97,973.37,559.5600000000004
902,0.902000,2246,3860993,-10879.97,428.37,3877.5600000000004
903,0.903000,2247,3861993,-8346.97,-317.63,3441.5600000000004
904,0.904000,2248,3862993,-1514.97,-800.63,2620.5600000000004
905,0.905000,2249,3863993,5122.03,-960.63,3884.5600000000004
906,0.906000,2250,3864993,3235.03,-258.63,1708.5600000000004
907,0.907000,2251,3865993,-1251.97,-87.63,-217.4399999999996
908,0.907999,2252,3866992,-11728.97,-383.63,1331.5600000000004
909,0.909000,2253,3867993,-21708.97,-955.63,2237.5600000000004
910,0.910000,2254,3868993,-19169.97,-536.63,2138.5600000000004
911,0.911000,2255,3869993,-14668.97,-223.63,2066.5600000000004
912,0.911999,2256,3870992,-3182.97,-131.63,2826.5600000000004
913,0.913000,2257,3871993,4905.03,219.37,1381.5600000000004
914,0.914000,2258,3872993,6337.03,-149.63,-185.4399999999996
915,0.915000,2259,3873993,3908.03,784.37,-1063.4399999999996
916,0.916000,2260,3874993,1760.03,1230.37,-3010.4399999999996
917,0.917000,2261,3875993,7082.03,510.37,-2918.4399999999996
918,0.918000,2262,3876993,9431.03,1.370000000000001,-2197.4399999999996
919,0.919000,2263,3877993,6075.03,87.37,-1692.4399999999996
920,0.920000,2264,3878993,-3531.97,-113.63,-2309.4399999999996
921,0.921000,2265,3879993,-5455.97,-131.63,-3672.4399999999996
922,0.922000,2266,3880993,2820.03,593.37,-4960.44
923,0.923000,2267,3881993,14421.03,-177.63,-3509.4399999999996
924,0.924000,2268,3882993,21306.03,-383.63,-424.4399999999996
925,0.925000,2269,3883993,14897.03,476.37,-1105.4399999999996
926,0.926000,2270,3884993,224.03,1084.37,-693.4399999999996
927,0.927000,2271,3885993,-9985.97,645.37,3467.5600000000004
928,0.928000,2272,3886993,-9695.97,-354.63,3884.5600000000004
929,0.929000,2273,3887993,-3776.97,-433.63,2253.5600000000004
930,0.930000,2274,3888993,3982.03,-1113.63,3952.5600000000004
931,0.931000,2275,3889993,4383.03,-492.63,2617.5600000000004
932,0.932000,2276,3890993,-1749.97,359.37,-369.4399999999996
933,0.933000,2277,3891993,-7558.97,-732.63,1068.5600000000004
934,0.934000,2278,3892993,-17737.97,-1045.63,2432.5600000000004
935,0.935000,2279,3893993,-20008.97,-183.63,2140.5600000000004
936,0.936000,2280,3894993,-16722.97,-397.63,1850.5600000000004
937,0.937000,2281,3895993,-7993.97,-70.63,2473.5600000000004
938,0.938000,2282,3896993,3745.03,439.37,1934.5600000000004
939,0.939000,2283,3897993,6170.03,-605.63,342.5600000000004
940,0.940000,2284,3898993,4283.03,341.37,-664.4399999999996
941,0.941000,2285,3899993,2475.03,1221.37,-2507.4399999999996
942,0.941999,2286,3900992,5395.03,844.37,-3222.4399999999996
943,0.943000,2287,3901993,8557.03,275.37,-2394.4399999999996
944,0.944000,2288,3902993,8135.03,-537.63,-1601.4399999999996
945,0.945000,2289,3903993,156.03,39.370000000000005,-2169.4399999999996
946,0.946000,2290,3904993,-6610.97,394.37,-3237.4399999999996
947,0.947000,2291,3905993,-1345.97,134.37,-4288.44
948,0.948000,2292,3906993,10667.03,127.37,-4582.44
949,0.949000,2293,3907993,21257.03,-521.63,-1480.4399999999996
950,0.950000,2294,3908993,18604.03,105.37,-367.4399999999996
951,0.951000,2295,3909993,4541.03,1232.37,-1164.4399999999996
952,0.952000,2296,3910993,-8133.97,684.37,2006.5600000000004
953,0.953000,2297,3911993,-10915.97,-108.63,4139.56
954,0.954000,2298,3912993,-5434.97,-231.63,2781.5600000000004
955,0.955000,2299,3913993,1872.03,-928.63,3394.5600000000004
956,0.956000,2300,3914993,5161.03,-673.63,3398.5600000000004
957,0.957000,2301,3915993,556.03,98.37,434.5600000000004
958,0.958000,2302,3916993,-4795.97,-509.63,519.5600000000004
959,0.959000,2303,3917993,-15017.97,-889.63,2239.5600000000004
960,0.960000,2304,3918993,-20233.97,-680.63,2160.5600000000004
961,0.961000,2305,3919993,-19638.97,-234.63,1688.5600000000004
962,0.962000,2306,3920993,-12266.97,-109.63,2191.5600000000004
963,0.963000,2307,3921993,2246.03,-94.63,2300.5600000000004
964,0.964000,2308,3922993,5988.03,-200.63,535.5600000000004
965,0.965000,2309,3923993,5130.03,210.37,-383.4399999999996
966,0.966000,2310,3924993,2435.03,1094.37,-1885.4399999999996
967,0.967000,2311,3925993,4090.03,967.37,-3001.4399999999996
968,0.967999,2312,3926992,8152.03,349.37,-2581.4399999999996
969,0.969000,2313,3927993,9026.03,-211.63,-2040.4399999999996
970,0.970000,2314,3928993,3685.03,-255.63,-1685.4399999999996
971,0.971000,2315,3929993,-6371.97,267.37,-2702.4399999999996
972,0.972000,2316,3930993,-3303.97,258.37,-3972.4399999999996
973,0.973000,2317,3931993,7353.03,492.37,-5160.44
974,0.974000,2318,3932993,18500.03,-328.63,-2308.4399999999996
975,0.975000,2319,3933993,20958.03,-369.63,-56.4399999999996
976,0.976000,2320,3934993,9577.03,868.37,-1549.4399999999996
977,0.977000,2321,3935993,-5090.97,883.37,701.5600000000004
978,0.978000,2322,3936993,-11899.97,365.37,4052.5600000000004
979,0.979000,2323,3937993,-7425.97,-272.63,3327.5600000000004
980,0.980000,2324,3938993,-195.97,-802.63,2893.5600000000004
981,0.981000,2325,3939993,4860.03,-1033.63,3851.5600000000004
982,0.982000,2326,3940993,2569.03,-234.63,1504.5600000000004
983,0.982999,2327,3941992,-2160.97,-59.629999999999995,-179.4399999999996
984,0.984000,2328,3942993,-13539.97,-572.63,1522.5600000000004
985,0.985000,2329,3943993,-21362.97,-891.63,2394.5600000000004
986,0.986000,2330,3944993,-18415.97,-317.63,1992.5600000000004
987,0.987000,2331,3945993,-13498.97,-458.63,2181.5600000000004
988,0.988000,2332,3946993,-2379.97,-63.629999999999995,2611.5600000000004
989,0.989000,2333,3947993,4734.03,406.37,1186.5600000000004
990,0.990000,2334,3948993,6288.03,-333.63,71.5600000000004
991,0.991000,2335,3949993,2922.03,1006.37,-1537.4399999999996
992,0.992000,2336,3950993,2741.03,1167.37,-3139.4399999999996
993,0.993000,2337,3951993,7432.03,359.37,-2821.4399999999996
994,0.994000,2338,3952993,9983.03,-20.63,-2237.4399999999996
995,0.995000,2339,3953993,5518.03,-303.63,-1863.4399999999996
996,0.996000,2340,3954993,-5013.97,119.37,-2535.4399999999996
997,0.997000,2341,3955993,-4455.97,-93.63,-3270.4399999999996
998,0.998000,2342,3956993,3535.03,582.37,-5096.44
999,0.998999,2343,3957992,15043.03,137.37,-3665.4399999999996
1000,1.000000,2344,3958993,21922.03,-606.63,-272.4399999999996
1001,1.001000,2345,3959993,13853.03,637.37,-1029.4399999999996
1002,1.002000,2346,3960993,-840.97,828.37,-178.4399999999996
1003,1.003000,2347,3961993,-11034.97,433.37,3399.5600000000004
1004,1.004000,2348,3962993,-10054.97,226.37,3672.5600000000004
1005,1.004999,2349,3963992,-2183.97,-700.63,2592.5600000000004
1006,1.006000,2350,3964993,4225.03,-1024.63,3715.5600000000004
1007,1.007000,2351,3965993,4575.03,-290.63,2787.5600000000004
1008,1.008000,2352,3966993,-259.97,-286.63,23.5600000000004
1009,1.009000,2353,3967993,-9989.97,-175.63,801.5600000000004
1010,1.010000,2354,3968993,-20701.97,-727.63,2485.5600000000004
1011,1.011000,2355,3969993,-19721.97,-816.63,2050.5600000000004
1012,1.012000,2356,3970993,-15775.97,-468.63,1635.5600000000004
1013,1.013000,2357,3971993,-6180.97,-240.63,2673.5600000000004
1014,1.014000,2358,3972993,4441.03,295.37,1674.5600000000004
1015,1.015000,2359,3973993,6055.03,-160.63,-95.4399999999996
1016,1.016000,2360,3974993,4004.03,477.37,-1022.4399999999996
1017,1.017000,2361,3975993,2045.03,1319.37,-2769.4399999999996
1018,1.018000,2362,3976993,6390.03,780.37,-2640.4399999999996
1019,1.019000,2363,3977993,9563.03,8.370000000000001,-2244.4399999999996
1020,1.020000,2364,3978993,7559.03,-34.629999999999995,-1765.4399999999996
1021,1.021000,2365,3979993,-1144.97,-244.63,-1999.4399999999996
1022,1.022000,2366,3980993,-6761.97,180.37,-3254.4399999999996
1023,1.023000,2367,3981993,-163.97,748.37,-4595.44
1024,1.024000,2368,3982993,12378.03,-190.63,-4476.44
1025,1.025000,2369,3983993,21078.03,-451.63,-1164.4399999999996
1026,1.026000,2370,3984993,17895.03,301.37,-460.4399999999996
1027,1.027000,2371,3985993,3325.03,1072.37,-884.4399999999996
1028,1.028000,2372,3986993,-9610.97,711.37,2392.5600000000004
1029,1.029000,2373,3987993,-10602.97,-242.63,4058.5600000000004
1030,1.030000,2374,3988993,-4640.97,-582.63,2536.5600000000004
1031,1.031000,2375,3989993,2539.03,-807.63,3344.5600000000004
1032,1.032000,2376,3990993,5137.03,-780.63,3265.5600000000004
1033,1.033000,2377,3991993,-498.97,-81.63,160.5600000000004
1034,1.034000,2378,3992993,-6828.97,29.37,503.5600000000004
1035,1.035000,2379,3993993,-16493.97,-983.63,2306.5600000000004
1036,1.036000,2380,3994993,-19643.97,-574.63,2601.5600000000004
1037,1.037000,2381,3995993,-18186.97,-168.63,2275.5600000000004
1038,1.038000,2382,3996993,-9091.97,-647.63,2546.5600000000004
1039,1.039000,2383,3997993,2800.03,336.37,2132.5600000000004
1040,1.040000,2384,3998993,5042.03,242.37,147.5600000000004
1041,1.041000,2385,3999993,4687.03,135.37,-504.4399999999996
1042,1.042000,2386,4000993,1726.03,1177.37,-2245.4399999999996
1043,1.042999,2387,4001992,5301.03,596.37,-3342.4399999999996
1044,1.044000,2388,4002993,8811.03,101.37,-2637.4399999999996
1045,1.045000,2389,4003993,8790.03,-152.63,-1736.4399999999996
1046,1.046000,2390,4004993,2118.03,-204.63,-1944.4399999999996
1047,1.046999,2391,4005992,-6619.97,367.37,-3236.4399999999996
1048,1.048000,2392,4006993,-3020.97,325.37,-3921.4399999999996
1049,1.049000,2393,4007993,8408.03,189.37,-4712.44
1050,1.050000,2394,4008993,19868.03,-251.63,-2069.4399999999996
1051,1.051000,2395,4009993,20069.03,11.370000000000001,-331.4399999999996
1052,1.052000,2396,4010993,8067.03,540.37,-1143.4399999999996
1053,1.053000,2397,4011993,-6468.97,847.37,1607.5600000000004
1054,1.054000,2398,4012993,-11300.97,468.37,4356.56
1055,1.055000,2399,4013993,-6813.97,-289.63,3032.5600000000004
1056,1.056000,2400,4014993,87.03,-919.63,2943.5600000000004
1057,1.057000,2401,4015993,5291.03,-859.63,3706.5600000000004
1058,1.058000,2402,4016993,1534.03,-93.63,714.5600000000004
1059,1.059000,2403,4017993,-2871.97,-267.63,67.5600000000004
1060,1.060000,2404,4018993,-14411.97,-511.63,1916.5600000000004
1061,1.061000,2405,4019993,-21349.97,-809.63,2252.5600000000004
1062,1.062000,2406,4020993,-18991.97,-455.63,1979.5600000000004
1063,1.063000,2407,4021993,-12825.97,-562.63,2269.5600000000004
1064,1.064000,2408,4022993,174.03,132.37,2635.5600000000004
1065,1.065000,2409,4023993,5447.03,455.37,841.5600000000004
1066,1.066000,2410,4024993,5961.03,-53.629999999999995,-209.4399999999996
1067,1.067000,2411,4025993,2759.03,907.37,-1518.4399999999996
1068,1.068000,2412,4026993,2589.03,1302.37,-3224.4399999999996
1069,1.069000,2413,4027993,8296.03,451.37,-2671.4399999999996
1070,1.070000,2414,4028993,9849.03,-498.63,-1922.4399999999996
1071,1.071000,2415,4029993,4044.03,-249.63,-1742.4399999999996
1072,1.072000,2416,4030993,-5490.97,-130.63,-2631.4399999999996
1073,1.073000,2417,4031993,-4408.97,299.37,-4115.44
1074,1.074000,2418,4032993,5684.03,636.37,-5057.44
1075,1.075000,2419,4033993,16694.03,-303.63,-2713.4399999999996
1076,1.076000,2420,4034993,21449.03,-228.63,-385.4399999999996
1077,1.077000,2421,4035993,12034.03,488.37,-1214.4399999999996
1078,1.078000,2422,4036993,-3202.97,749.37,442.5600000000004
1079,1.079000,2423,4037993,-11092.97,604.37,3835.5600000000004
1080,1.080000,2424,4038993,-8608.97,228.37,3410.5600000000004
1081,1.081000,2425,4039993,-1946.97,-905.63,2655.5600000000004
1082,1.082000,2426,4040993,4914.03,-1204.63,4119.56
1083,1.083000,2427,4041993,3632.03,-90.63,1952.5600000000004
1084,1.084000,2428,4042993,-2052.97,-140.63,-467.4399999999996
1085,1.085000,2429,4043993,-11064.97,-398.63,1258.5600000000004
1086,1.086000,2430,4044993,-21370.97,-630.63,2258.5600000000004
1087,1.087000,2431,4045993,-18872.97,-654.63,2113.5600000000004
1088,1.088000,2432,4046993,-14478.97,-723.63,2018.5600000000004
1089,1.088999,2433,4047992,-4692.97,162.37,2371.5600000000004
1090,1.090000,2434,4048993,4630.03,438.37,1707.5600000000004
1091,1.090999,2435,4049992,6310.03,-395.63,258.5600000000004
1092,1.092000,2436,4050993,3911.03,796.37,-1327.4399999999996
1093,1.093000,2437,4051993,2279.03,1151.37,-2753.4399999999996
1094,1.094000,2438,4052993,7209.03,508.37,-2816.4399999999996
1095,1.095000,2439,4053993,9496.03,172.37,-2411.4399999999996
1096,1.096000,2440,4054993,6217.03,-317.63,-1855.4399999999996
1097,1.097000,2441,4055993,-3108.97,-102.63,-2267.4399999999996
1098,1.098000,2442,4056993,-5677.97,309.37,-3244.4399999999996
1099,1.099000,2443,4057993,1800.03,544.37,-4906.44
1100,1.100000,2444,4058993,14014.03,-27.63,-3929.4399999999996
1101,1.101000,2445,4059993,21882.03,-702.63,-451.4399999999996
1102,1.102000,2446,4060993,16049.03,145.37,-737.4399999999996
1103,1.103000,2447,4061993,473.03,1384.37,-906.4399999999996
1104,1.104000,2448,4062993,-10279.97,775.37,3048.5600000000004
1105,1.105000,2449,4063993,-10389.97,-153.63,3947.5600000000004
1106,1.106000,2450,4064993,-3868.97,-416.63,2330.5600000000004
1107,1.107000,2451,4065993,4411.03,-1182.63,4050.5600000000004
1108,1.108000,2452,4066993,4944.03,-476.63,3079.5600000000004
1109,1.109000,2453,4067993,-1336.97,154.37,-80.4399999999996
1110,1.110000,2454,4068993,-8229.97,-440.63,857.5600000000004
1111,1.111000,2455,4069993,-18184.97,-739.63,2212.5600000000004
1112,1.112000,2456,4070993,-20008.97,-550.63,2252.5600000000004
1113,1.113000,2457,4071993,-17203.97,-312.63,1961.5600000000004
1114,1.114000,2458,4072993,-7623.97,-290.63,2582.5600000000004
1115,1.114999,2459,4073992,3722.03,99.37,1840.5600000000004
1116,1.116000,2460,4074993,5575.03,-156.63,84.5600000000004
1117,1.117000,2461,4075993,4094.03,340.37,-631.4399999999996
1118,1.118000,2462,4076993,2285.03,1148.37,-2491.4399999999996
1119,1.119000,2463,4077993,6549.03,812.37,-3038.4399999999996
1120,1.120000,2464,4078993,8762.03,316.37,-2395.4399999999996
1121,1.121000,2465,4079993,7759.03,-483.63,-1783.4399999999996
1122,1.121999,2466,4080992,316.03,-103.63,-2212.4399999999996
1123,1.123000,2467,4081993,-6588.97,554.37,-3178.4399999999996
1124,1.124000,2468,4082993,-1659.97,298.37,-4357.44
1125,1.125000,2469,4083993,10535.03,-60.629999999999995,-4547.44
1126,1.126000,2470,4084993,21790.03,-519.63,-1137.4399999999996
1127,1.127000,2471,4085993,19031.03,182.37,-609.4399999999996
1128,1.128000,2472,4086993,4972.03,976.37,-1355.4399999999996
1129,1.129000,2473,4087993,-8848.97,657.37,2029.5600000000004
1130,1.130000,2474,4088993,-11344.97,193.37,4191.56
1131,1.131000,2475,4089993,-5248.97,-290.63,2748.5600000000004
1132,1.132000,2476,4090993,2012.03,-1052.63,3437.5600000000004
1133,1.133000,2477,4091993,5179.03,-810.63,3723.5600000000004
1134,1.134000,2478,4092993,64.03,28.37,325.5600000000004
1135,1.134999,2479,4093992,-5785.97,-4.629999999999999,239.5600000000004
1136,1.136000,2480,4094993,-15063.97,-919.63,2236.5600000000004
1137,1.137000,2481,4095993,-19674.97,-795.63,2310.5600000000004
1138,1.138000,2482,4096993,-19155.97,24.37,1827.5600000000004
1139,1.139000,2483,4097993,-11786.97,-170.63,1697.5600000000004
1140,1.140000,2484,4098993,1933.03,124.37,2609.5600000000004
1141,1.141000,2485,4099993,5848.03,-180.63,1409.5600000000004
1142,1.142000,2486,4100993,4837.03,-5.629999999999999,-579.4399999999996
1143,1.142999,2487,4101992,3039.03,1140.37,-1903.4399999999996
1144,1.144000,2488,4102993,4332.03,860.37,-3032.4399999999996
1145,1.145000,2489,4103993,8808.03,373.37,-2773.4399999999996
1146,1.146000,2490,4104993,8471.03,-63.629999999999995,-2051.4399999999996
1147,1.147000,2491,4105993,2382.03,-463.63,-1745.4399999999996
1148,1.148000,2492,4106993,-6301.97,58.370000000000005,-2874.4399999999996
1149,1.149000,2493,4107993,-3136.97,475.37,-3892.4399999999996
1150,1.150000,2494,4108993,8152.03,308.37,-4924.44
1151,1.151000,2495,4109993,18925.03,-252.63,-2663.4399999999996
1152,1.152000,2496,4110993,20167.03,-203.63,-423.4399999999996
1153,1.153000,2497,4111993,9122.03,458.37,-1175.4399999999996
1154,1.154000,2498,4112993,-5623.97,1279.37,605.5600000000004
1155,1.155000,2499,4113993,-11201.97,221.37,4020.5600000000004
1156,1.156000,2500,4114993,-6922.97,-290.63,3399.5600000000004
1157,1.157000,2501,4115993,-345.97,-575.63,2899.5600000000004
1158,1.158000,2502,4116993,5702.03,-1230.63,4188.56
1159,1.159000,2503,4117993,2021.03,55.370000000000005,1423.5600000000004
1160,1.159999,2504,4118992,-2537.97,-85.63,233.5600000000004
1161,1.161000,2505,4119993,-13084.97,-646.63,1698.5600000000004
1162,1.162000,2506,4120993,-21391.97,-819.63,2172.5600000000004
1163,1.162999,2507,4121992,-18639.97,-517.63,1981.5600000000004
1164,1.164000,2508,4122993,-13579.97,-472.63,2168.5600000000004
1165,1.165000,2509,4123993,-2558.97,78.37,2479.5600000000004
1166,1.165999,2510,4124992,4522.03,216.37,777.5600000000004
1167,1.167000,2511,4125993,6164.03,-253.63,21.5600000000004
1168,1.168000,2512,4126993,3478.03,907.37,-1349.4399999999996
1169,1.169000,2513,4127993,2483.03,929.37,-3144.4399999999996
1170,1.170000,2514,4128993,7842.03,373.37,-2818.4399999999996
1171,1.171000,2515,4129993,9683.03,136.37,-2106.4399999999996
1172,1.171999,2516,4130992,5415.03,-64.63,-1631.4399999999996
1173,1.173000,2517,4131993,-4772.97,75.37,-2465.4399999999996
1174,1.173999,2518,4132992,-4681.97,62.370000000000005,-3494.4399999999996
1175,1.175000,2519,4133993,4638.03,397.37,-4927.44
1176,1.176000,2520,4134993,15462.03,196.37,-3431.4399999999996
1177,1.177000,2521,4135993,21591.03,-706.63,-399.4399999999996
1178,1.178000,2522,4136993,13144.03,324.37,-1216.4399999999996
1179,1.179000,2523,4137993,-1404.97,1364.37,-449.4399999999996
1180,1.180000,2524,4138993,-10493.97,321.37,3499.5600000000004
1181,1.181000,2525,4139993,-9909.97,-111.63,3611.5600000000004
1182,1.182000,2526,4140993,-2728.97,-528.63,2617.5600000000004
1183,1.183000,2527,4141993,4585.03,-1147.63,3943.5600000000004
1184,1.183999,2528,4142992,3812.03,-282.63,2179.5600000000004
1185,1.185000,2529,4143993,-1449.97,43.370000000000005,-41.4399999999996
1186,1.186000,2530,4144993,-8863.97,-403.63,1100.5600000000004
1187,1.187000,2531,4145993,-19845.97,-570.63,2416.5600000000004
1188,1.187999,2532,4146992,-19428.97,-617.63,2520.5600000000004
1189,1.189000,2533,4147993,-15248.97,-474.63,1867.5600000000004
1190,1.190000,2534,4148993,-6629.97,292.37,2509.5600000000004
1191,1.191000,2535,4149993,3884.03,247.37,1893.5600000000004
1192,1.192000,2536,4150993,6258.03,-514.63,57.5600000000004
1193,1.193000,2537,4151993,4044.03,436.37,-1017.4399999999996
1194,1.194000,2538,4152993,2219.03,1161.37,-2898.4399999999996
1195,1.195000,2539,4153993,6638.03,699.37,-3138.4399999999996
1196,1.196000,2540,4154993,8793.03,94.37,-2292.4399999999996
1197,1.197000,2541,4155993,7150.03,-358.63,-1619.4399999999996
1198,1.198000,2542,4156993,-1244.97,-219.63,-2023.4399999999996
1199,1.199000,2543,4157993,-6526.97,431.37,-3367.4399999999996
1200,1.200000,2544,4158993,-106.97,479.37,-4686.44
1201,1.201000,2545,4159993,12912.03,-14.629999999999999,-4201.44
1202,1.202000,2546,4160993,21356.03,-325.63,-1218.4399999999996
1203,1.203000,2547,4161993,17409.03,206.37,-597.4399999999996
1204,1.204000,2548,4162993,3270.03,882.37,-888.4399999999996
1205,1.205000,2549,4163993,-9896.97,782.37,2383.5600000000004
1206,1.206000,2550,4164993,-10507.97,29.37,4290.56
1207,1.207000,2551,4165993,-4800.97,-499.63,2534.5600000000004
1208,1.208000,2552,4166993,3055.03,-745.63,3391.5600000000004
1209,1.209000,2553,4167993,5432.03,-718.63,3390.5600000000004
1210,1.210000,2554,4168993,-294.97,-120.63,144.5600000000004
1211,1.211000,2555,4169993,-6146.97,-76.63,506.5600000000004
1212,1.212000,2556,4170993,-16322.97,-1074.63,2301.5600000000004
1213,1.213000,2557,4171993,-20197.97,-689.63,2226.5600000000004
1214,1.214000,2558,4172993,-18872.97,89.37,1643.5600000000004
1215,1.215000,2559,4173993,-9637.97,-679.63,2557.5600000000004
1216,1.216000,2560,4174993,2666.03,224.37,2232.5600000000004
1217,1.217000,2561,4175993,5507.03,153.37,500.5600000000004
1218,1.218000,2562,4176993,4744.03,33.370000000000005,-273.4399999999996
1219,1.219000,2563,4177993,2004.03,1173.37,-2228.4399999999996
1220,1.220000,2564,4178993,4777.03,821.37,-3123.4399999999996
1221,1.221000,2565,4179993,8352.03,412.37,-2740.4399999999996
1222,1.222000,2566,4180993,8499.03,-293.63,-1766.4399999999996
1223,1.222999,2567,4181992,2333.03,-323.63,-1803.4399999999996
1224,1.224000,2568,4182993,-6125.97,396.37,-3163.4399999999996
1225,1.225000,2569,4183993,-2641.97,416.37,-3941.4399999999996
1226,1.226000,2570,4184993,8646.03,362.37,-4750.44
1227,1.227000,2571,4185993,19903.03,-447.63,-2252.4399999999996
1228,1.228000,2572,4186993,20499.03,-73.63,-427.4399999999996
1229,1.229000,2573,4187993,7842.03,771.37,-1155.4399999999996
1230,1.230000,2574,4188993,-6800.97,696.37,1276.5600000000004
1231,1.231000,2575,4189993,-11439.97,311.37,4029.5600000000004
1232,1.232000,2576,4190993,-6783.97,-222.63,3067.5600000000004
1233,1.233000,2577,4191993,160.03,-945.63,2836.5600000000004
1234,1.234000,2578,4192993,5046.03,-1001.63,3691.5600000000004
1235,1.235000,2579,4193993,1652.03,-105.63,1278.5600000000004
1236,1.236000,2580,4194993,-2645.97,-245.63,108.5600000000004
1237,1.237000,2581,4195993,-13994.97,-376.63,1535.5600000000004
1238,1.238000,2582,4196993,-20955.97,-924.63,2431.5600000000004
1239,1.239000,2583,4197993,-18712.97,-258.63,2100.5600000000004
1240,1.240000,2584,4198993,-13327.97,-27.63,2184.5600000000004
1241,1.241000,2585,4199993,-881.97,143.37,2712.5600000000004
1242,1.242000,2586,4200993,5319.03,131.37,1011.5600000000004
1243,1.243000,2587,4201993,6459.03,-419.63,53.5600000000004
1244,1.244000,2588,4202993,2915.03,1054.37,-1594.4399999999996
1245,1.245000,2589,4203993,2959.03,1186.37,-3396.4399999999996
1246,1.246000,2590,4204993,8135.03,330.37,-2765.4399999999996
1247,1.247000,2591,4205993,8866.03,-145.63,-2228.4399999999996
1248,1.248000,2592,4206993,4192.03,-497.63,-1925.4399999999996
1249,1.248999,2593,4207992,-5768.97,-66.63,-2517.4399999999996
1250,1.250000,2594,4208993,-3808.97,349.37,-3490.4399999999996
1251,1.251000,2595,4209993,5909.03,488.37,-5179.44
1252,1.252000,2596,4210993,15997.03,21.37,-3204.4399999999996
1253,1.253000,2597,4211993,21569.03,-422.63,-90.4399999999996
1254,1.254000,2598,4212993,11915.03,510.37,-1472.4399999999996
1255,1.255000,2599,4213993,-2872.97,1273.37,-112.4399999999996
1256,1.256000,2600,4214993,-10348.97,351.37,4015.5600000000004
1257,1.257000,2601,4215993,-8830.97,-251.63,3516.5600000000004
1258,1.258000,2602,4216993,-1785.97,-445.63,2530.5600000000004
1259,1.259000,2603,4217993,5083.03,-1143.63,4266.56
1260,1.260000,2604,4218993,3529.03,-257.63,2068.5600000000004
1261,1.261000,2605,4219993,-1746.97,101.37,-347.4399999999996
1262,1.262000,2606,4220993,-10403.97,-621.63,1298.5600000000004
1263,1.263000,2607,4221993,-20953.97,-670.63,2313.5600000000004
1264,1.264000,2608,4222993,-19233.97,-608.63,2225.5600000000004
1265,1.264999,2609,4223992,-14846.97,-378.63,1659.5600000000004
1266,1.266000,2610,4224993,-5936.97,101.37,2388.5600000000004
1267,1.267000,2611,4225993,4282.03,-30.63,1839.5600000000004
1268,1.268000,2612,4226993,6250.03,-244.63,188.5600000000004
1269,1.269000,2613,4227993,4011.03,749.37,-941.4399999999996
1270,1.270000,2614,4228993,2372.03,1234.37,-2846.4399999999996
1271,1.271000,2615,4229993,7292.03,555.37,-2839.4399999999996
1272,1.272000,2616,4230993,9261.03,17.37,-2254.4399999999996
1273,1.273000,2617,4231993,6876.03,22.37,-1826.4399999999996
1274,1.274000,2618,4232993,-1979.97,-202.63,-2055.4399999999996
1275,1.275000,2619,4233993,-6618.97,52.370000000000005,-3382.4399999999996
1276,1.276000,2620,4234993,1130.03,373.37,-4888.44
1277,1.277000,2621,4235993,13259.03,-132.63,-4249.44
1278,1.278000,2622,4236993,22222.03,-342.63,-858.4399999999996
1279,1.279000,2623,4237993,16570.03,465.37,-854.4399999999996
1280,1.280000,2624,4238993,1495.03,943.37,-1129.4399999999996
1281,1.281000,2625,4239993,-9727.97,329.37,2834.5600000000004
1282,1.282000,2626,4240993,-11166.97,-25.63,3999.5600000000004
1283,1.283000,2627,4241993,-4300.97,-351.63,2650.5600000000004
1284,1.284000,2628,4242993,3526.03,-984.63,3761.5600000000004
1285,1.285000,2629,4243993,5251.03,-632.63,3052.5600000000004
1286,1.286000,2630,4244993,-1019.97,147.37,55.5600000000004
1287,1.287000,2631,4245993,-7191.97,-246.63,930.5600000000004
1288,1.288000,2632,4246993,-17269.97,-1011.63,2483.5600000000004
1289,1.289000,2633,4247993,-19816.97,-539.63,2352.5600000000004
1290,1.289999,2634,4248992,-17983.97,-151.63,1912.5600000000004
1291,1.291000,2635,4249993,-8700.97,-650.63,2334.5600000000004
1292,1.292000,2636,4250993,3675.03,267.37,2163.5600000000004
1293,1.292999,2637,4251992,5048.03,209.37,256.5600000000004
1294,1.294000,2638,4252993,4716.03,201.37,-636.4399999999996
1295,1.295000,2639,4253993,2266.03,1184.37,-2460.4399999999996
1296,1.296000,2640,4254993,6003.03,449.37,-3033.4399999999996
1297,1.297000,2641,4255993,8445.03,228.37,-2350.4399999999996
1298,1.298000,2642,4256993,8240.03,-133.63,-1936.4399999999996
1299,1.299000,2643,4257993,1115.03,-127.63,-2316.4399999999996
1300,1.300000,2644,4258993,-7042.97,467.37,-3124.4399999999996
1301,1.301000,2645,4259993,-1909.97,258.37,-4057.4399999999996
1302,1.302000,2646,4260993,9757.03,253.37,-4873.44
1303,1.303000,2647,4261993,20860.03,-392.63,-1639.4399999999996
1304,1.304000,2648,4262993,19827.03,-90.63,-447.4399999999996
1305,1.305000,2649,4263993,6093.03,765.37,-1480.4399999999996
1306,1.306000,2650,4264993,-7817.97,641.37,1961.5600000000004
1307,1.307000,2651,4265993,-11362.97,231.37,4423.56
1308,1.308000,2652,4266993,-6486.97,-58.629999999999995,2641.5600000000004
1309,1.309000,2653,4267993,1710.03,-975.63,3279.5600000000004
1310,1.310000,2654,4268993,5615.03,-1099.63,3735.5600000000004
1311,1.311000,2655,4269993,496.03,277.37,565.5600000000004
1312,1.312000,2656,4270993,-4011.97,-282.63,588.5600000000004
1313,1.312999,2657,4271992,-14818.97,-857.63,1820.5600000000004
1314,1.314000,2658,4272993,-20882.97,-495.63,1915.5600000000004
1315,1.315000,2659,4273993,-19026.97,-456.63,2361.5600000000004
1316,1.316000,2660,4274993,-12066.97,-74.63,2000.5600000000004
1317,1.317000,2661,4275993,1213.03,287.37,2474.5600000000004
1318,1.318000,2662,4276993,5528.03,-283.63,1192.5600000000004
1319,1.319000,2663,4277993,5381.03,-136.63,-382.4399999999996
1320,1.319999,2664,4278992,2656.03,1154.37,-1832.4399999999996
1321,1.321000,2665,4279993,3387.03,1045.37,-3251.4399999999996
1322,1.322000,2666,4280993,7610.03,384.37,-2493.4399999999996
1323,1.323000,2667,4281993,9919.03,-268.63,-1947.4399999999996
1324,1.324000,2668,4282993,4066.03,-160.63,-2241.4399999999996
1325,1.325000,2669,4283993,-6291.97,194.37,-2713.4399999999996
1326,1.326000,2670,4284993,-3425.97,67.37,-3617.4399999999996
1327,1.327000,2671,4285993,6620.03,595.37,-5477.44
1328,1.328000,2672,4286993,17504.03,-179.63,-2701.4399999999996
1329,1.329000,2673,4287993,21110.03,-334.63,98.5600000000004
1330,1.330000,2674,4288993,11143.03,653.37,-1331.4399999999996
1331,1.331000,2675,4289993,-4656.97,1004.37,312.5600000000004
1332,1.331999,2676,4290992,-11120.97,346.37,4201.56
1333,1.333000,2677,4291993,-8086.97,-405.63,3610.5600000000004
1334,1.334000,2678,4292993,-1771.97,-650.63,2402.5600000000004
1335,1.335000,2679,4293993,4776.03,-1055.63,3918.5600000000004
1336,1.336000,2680,4294993,3167.03,-244.63,1957.5600000000004
1337,1.337000,2681,4295993,-1357.97,17.37,-100.4399999999996
1338,1.338000,2682,4296993,-12228.97,-440.63,1074.5600000000004
1339,1.339000,2683,4297993,-21463.97,-838.63,2272.5600000000004
1340,1.339999,2684,4298992,-18673.97,-497.63,2395.5600000000004
1341,1.341000,2685,4299993,-14097.97,-303.63,2183.5600000000004
1342,1.342000,2686,4300993,-3309.97,-166.63,2787.5600000000004
1343,1.343000,2687,4301993,4863.03,216.37,1117.5600000000004
1344,1.344000,2688,4302993,5971.03,-145.63,-118.4399999999996
1345,1.345000,2689,4303993,4021.03,692.37,-933.4399999999996
1346,1.346000,2690,4304993,2040.03,1319.37,-3242.4399999999996
1347,1.347000,2691,4305993,6770.03,590.37,-3037.4399999999996
1348,1.348000,2692,4306993,9401.03,-197.63,-2119.4399999999996
1349,1.349000,2693,4307993,6051.03,0.370000000000001,-1943.4399999999996
1350,1.350000,2694,4308993,-3270.97,32.370000000000005,-2200.4399999999996
1351,1.351000,2695,4309993,-5191.97,-89.63,-3191.4399999999996
1352,1.352000,2696,4310993,2383.03,450.37,-5123.44
1353,1.353000,2697,4311993,14287.03,-166.63,-3555.4399999999996
1354,1.354000,2698,4312993,21746.03,-386.63,-339.4399999999996
1355,1.355000,2699,4313993,14378.03,551.37,-1226.4399999999996
1356,1.356000,2700,4314993,536.03,719.37,-443.4399999999996
1357,1.357000,2701,4315993,-10232.97,420.37,3182.5600000000004
1358,1.357999,2702,4316992,-10110.97,507.37,3737.5600000000004
1359,1.359000,2703,4317993,-2770.97,-623.63,2739.5600000000004
1360,1.360000,2704,4318993,3931.03,-1316.63,3905.5600000000004
1361,1.361000,2705,4319993,4474.03,-163.63,2765.5600000000004
1362,1.362000,2706,4320993,-1431.97,-127.63,-224.4399999999996
1363,1.363000,2707,4321993,-8386.97,-490.63,742.5600000000004
1364,1.364000,2708,4322993,-18348.97,-697.63,2418.5600000000004
1365,1.365000,2709,4323993,-19366.97,-611.63,2274.5600000000004
1366,1.366000,2710,4324993,-16712.97,-413.63,1946.5600000000004
1367,1.367000,2711,4325993,-7426.97,-139.63,2653.5600000000004
1368,1.368000,2712,4326993,3484.03,313.37,1745.5600000000004
1369,1.369000,2713,4327993,5081.03,-46.629999999999995,180.5600000000004
1370,1.370000,2714,4328993,4576.03,295.37,-706.4399999999996
1371,1.371000,2715,4329993,2379.03,1168.37,-2721.4399999999996
1372,1.372000,2716,4330993,6235.03,578.37,-2663.4399999999996
1373,1.373000,2717,4331993,8657.03,34.370000000000005,-2266.4399999999996
1374,1.374000,2718,4332993,7329.03,10.370000000000001,-2175.4399999999996
1375,1.375000,2719,4333993,614.03,-359.63,-1989.4399999999996
1376,1.376000,2720,4334993,-6544.97,381.37,-3159.4399999999996
1377,1.377000,2721,4335993,-1119.97,617.37,-4306.44
1378,1.378000,2722,4336993,11058.03,-61.629999999999995,-4521.44
1379,1.379000,2723,4337993,20896.03,-398.63,-1544.4399999999996
1380,1.380000,2724,4338993,18373.03,344.37,-506.4399999999996
1381,1.381000,2725,4339993,4902.03,982.37,-1273.4399999999996
1382,1.382000,2726,4340993,-8255.97,523.37,2166.5600000000004
1383,1.382999,2727,4341992,-11544.97,-114.63,4156.56
1384,1.384000,2728,4342993,-5549.97,-271.63,2680.5600000000004
1385,1.385000,2729,4343993,1941.03,-844.63,3330.5600000000004
1386,1.386000,2730,4344993,5346.03,-998.63,3600.5600000000004
1387,1.387000,2731,4345993,252.03,255.37,440.5600000000004
1388,1.387999,2732,4346992,-5011.97,-152.63,388.5600000000004
1389,1.389000,2733,4347993,-14801.97,-1109.63,2157.5600000000004
1390,1.390000,2734,4348993,-20272.97,-420.63,2003.5600000000004
1391,1.391000,2735,4349993,-19683.97,155.37,1666.5600000000004
1392,1.392000,2736,4350993,-11107.97,-465.63,2517.5600000000004
1393,1.393000,2737,4351993,2074.03,-113.63,2744.5600000000004
1394,1.394000,2738,4352993,5843.03,-80.63,680.5600000000004
1395,1.395000,2739,4353993,5388.03,30.37,-305.4399999999996
1396,1.396000,2740,4354993,2448.03,1113.37,-1990.4399999999996
1397,1.397000,2741,4355993,4058.03,988.37,-3347.4399999999996
1398,1.397999,2742,4356992,7715.03,308.37,-2743.4399999999996
1399,1.399000,2743,4357993,8782.03,-142.63,-1950.4399999999996
1400,1.400000,2744,4358993,2883.03,-197.63,-1818.4399999999996
1401,1.400999,2745,4359992,-5967.97,22.37,-2794.4399999999996
1402,1.402000,2746,4360993,-2731.97,337.37,-3802.4399999999996
1403,1.403000,2747,4361993,7670.03,463.37,-4883.44
1404,1.404000,2748,4362993,18193.03,-283.63,-2480.4399999999996
1405,1.405000,2749,4363993,20470.03,-228.63,-345.4399999999996
1406,1.406000,2750,4364993,9458.03,722.37,-1317.4399999999996
1407,1.407000,2751,4365993,-4963.97,899.37,877.5600000000004
1408,1.408000,2752,4366993,-10900.97,319.37,4093.5600000000004
1409,1.409000,2753,4367993,-7363.97,-230.63,3247.5600000000004
1410,1.410000,2754,4368993,-515.97,-796.63,2882.5600000000004
1411,1.411000,2755,4369993,4552.03,-906.63,3802.5600000000004
1412,1.411999,2756,4370992,2504.03,-321.63,1547.5600000000004
1413,1.413000,2757,4371993,-2234.97,-202.63,-59.4399999999996
1414,1.414000,2758,4372993,-13286.97,-320.63,1232.5600000000004
1415,1.415000,2759,4373993,-21479.97,-913.63,2278.5600000000004
1416,1.416000,2760,4374993,-18758.97,-491.63,2130.5600000000004
1417,1.417000,2761,4375993,-13871.97,-272.63,2165.5600000000004
1418,1.418000,2762,4376993,-2537.97,-11.629999999999999,2890.5600000000004
1419,1.419000,2763,4377993,5377.03,242.37,1349.5600000000004
1420,1.420000,2764,4378993,6575.03,-128.63,-88.4399999999996
1421,1.421000,2765,4379993,3520.03,902.37,-1336.4399999999996
1422,1.422000,2766,4380993,2582.03,1202.37,-3162.4399999999996
1423,1.423000,2767,4381993,7598.03,491.37,-2813.4399999999996
1424,1.424000,2768,4382993,8943.03,25.37,-2314.4399999999996
1425,1.425000,2769,4383993,4820.03,-402.63,-1964.4399999999996
1426,1.426000,2770,4384993,-4783.97,-163.63,-2447.4399999999996
1427,1.427000,2771,4385993,-4186.97,193.37,-3525.4399999999996
1428,1.428000,2772,4386993,4682.03,633.37,-5078.44
1429,1.429000,2773,4387993,15723.03,-167.63,-3519.4399999999996
1430,1.430000,2774,4388993,21058.03,-314.63,-460.4399999999996
1431,1.431000,2775,4389993,13121.03,570.37,-1068.4399999999996
1432,1.432000,2776,4390993,-755.97,659.37,-161.4399999999996
1433,1.433000,2777,4391993,-11421.97,669.37,3481.5600000000004
1434,1.434000,2778,4392993,-9013.97,-168.63,3796.5600000000004
1435,1.435000,2779,4393993,-2357.97,-498.63,2485.5600000000004
1436,1.436000,2780,4394993,3984.03,-851.63,3830.5600000000004
1437,1.437000,2781,4395993,4551.03,-686.63,2702.5600000000004
1438,1.438000,2782,4396993,-1222.97,200.37,-100.4399999999996
1439,1.439000,2783,4397993,-9432.97,-348.63,1201.5600000000004
1440,1.440000,2784,4398993,-19803.97,-1029.63,2592.5600000000004
1441,1.441000,2785,4399993,-20117.97,-264.63,1943.5600000000004
1442,1.442000,2786,4400993,-16052.97,-373.63,1811.5600000000004
1443,1.443000,2787,4401993,-6542.97,-227.63,2359.5600000000004
1444,1.444000,2788,4402993,3956.03,282.37,1510.5600000000004
1445,1.445000,2789,4403993,6723.03,-535.63,447.5600000000004
1446,1.446000,2790,4404993,3993.03,564.37,-833.4399999999996
1447,1.447000,2791,4405993,2794.03,1435.37,-2784.4399999999996
1448,1.448000,2792,4406993,6659.03,544.37,-2840.4399999999996
1449,1.449000,2793,4407993,8498.03,219.37,-2217.4399999999996
1450,1.450000,2794,4408993,7023.03,-329.63,-1753.4399999999996
1451,1.451000,2795,4409993,-793.97,-298.63,-2112.4399999999996
1452,1.452000,2796,4410993,-6210.97,517.37,-3285.4399999999996
1453,1.453000,2797,4411993,322.03,312.37,-4659.44
1454,1.454000,2798,4412993,12330.03,-5.629999999999999,-4350.44
1455,1.455000,2799,4413993,20818.03,-394.63,-1142.4399999999996
1456,1.456000,2800,4414993,17727.03,98.37,-605.4399999999996
1457,1.456999,2801,4415992,2738.03,1143.37,-1120.4399999999996
1458,1.458000,2802,4416993,-9444.97,639.37,2445.5600000000004
1459,1.459000,2803,4417993,-10103.97,-188.63,4271.56
1460,1.460000,2804,4418993,-4773.97,-153.63,2581.5600000000004
1461,1.461000,2805,4419993,3270.03,-1139.63,3690.5600000000004
1462,1.462000,2806,4420993,4684.03,-781.63,3302.5600000000004
1463,1.463000,2807,4421993,-1121.97,440.37,97.5600000000004
1464,1.464000,2808,4422993,-6572.97,-451.63,793.5600000000004
1465,1.465000,2809,4423993,-16282.97,-957.63,2195.5600000000004
1466,1.466000,2810,4424993,-19491.97,-464.63,2192.5600000000004
1467,1.467000,2811,4425993,-18978.97,90.37,1511.5600000000004
1468,1.468000,2812,4426993,-9654.97,-413.63,2559.5600000000004
1469,1.469000,2813,4427993,3155.03,-56.629999999999995,2593.5600000000004
1470,1.470000,2814,4428993,5203.03,-33.629999999999995,264.5600000000004
1471,1.471000,2815,4429993,4858.03,165.37,-473.4399999999996
1472,1.472000,2816,4430993,2631.03,1205.37,-2196.4399999999996
1473,1.473000,2817,4431993,5106.03,841.37,-3312.4399999999996
1474,1.474000,2818,4432993,8558.03,437.37,-2604.4399999999996
1475,1.475000,2819,4433993,8177.03,-82.63,-1866.4399999999996
1476,1.476000,2820,4434993,2178.03,-402.63,-1988.4399999999996
1477,1.477000,2821,4435993,-6414.97,123.37,-2928.4399999999996
1478,1.478000,2822,4436993,-2568.97,267.37,-4033.4399999999996
1479,1.479000,2823,4437993,9228.03,226.37,-4924.44
1480,1.480000,2824,4438993,19540.03,-312.63,-2097.4399999999996
1481,1.481000,2825,4439993,19638.03,43.370000000000005,-279.4399999999996
1482,1.482000,2826,4440993,7034.03,930.37,-1436.4399999999996
1483,1.483000,2827,4441993,-6414.97,555.37,1401.5600000000004
1484,1.484000,2828,4442993,-10893.97,63.370000000000005,4265.56
1485,1.485000,2829,4443993,-6521.97,-15.629999999999999,3136.5600000000004
1486,1.486000,2830,4444993,405.03,-832.63,3147.5600000000004
1487,1.487000,2831,4445993,4916.03,-835.63,3626.5600000000004
1488,1.488000,2832,4446993,1272.03,99.37,1165.5600000000004
1489,1.489000,2833,4447993,-2566.97,-522.63,447.5600000000004
1490,1.489999,2834,4448992,-13852.97,-488.63,1552.5600000000004
1491,1.491000,2835,4449993,-21550.97,-631.63,2024.5600000000004
1492,1.492000,2836,4450993,-18420.97,-372.63,2000.5600000000004
1493,1.492999,2837,4451992,-13131.97,-558.63,2136.5600000000004
1494,1.494000,2838,4452993,-669.97,-204.63,2475.5600000000004
1495,1.495000,2839,4453993,5002.03,376.37,618.5600000000004
1496,1.496000,2840,4454993,6011.03,-162.63,-160.4399999999996
1497,1.497000,2841,4455993,3071.03,914.37,-1628.4399999999996
1498,1.498000,2842,4456993,3026.03,1200.37,-3349.4399999999996
1499,1.499000,2843,4457993,8200.03,635.37,-2589.4399999999996
1500,1.500000,2844,4458993,9433.03,-230.63,-1770.4399999999996
1501,1.501000,2845,4459993,4295.03,-475.63,-1519.4399999999996
1502,1.502000,2846,4460993,-5674.97,272.37,-2722.4399999999996
1503,1.503000,2847,4461993,-3795.97,238.37,-3737.4399999999996
1504,1.504000,2848,4462993,6018.03,278.37,-4837.44
1505,1.505000,2849,4463993,16036.03,58.370000000000005,-3198.4399999999996
1506,1.506000,2850,4464993,21094.03,-140.63,-349.4399999999996
1507,1.507000,2851,4465993,11860.03,-10.629999999999999,-1242.4399999999996
1508,1.508000,2852,4466993,-3147.97,662.37,-260.4399999999996
1509,1.509000,2853,4467993,-10668.97,732.37,3542.5600000000004
1510,1.510000,2854,4468993,-8324.97,-506.63,3516.5600000000004
1511,1.510999,2855,4469992,-2039.97,-649.63,2309.5600000000004
1512,1.512000,2856,4470993,4678.03,-897.63,3947.5600000000004
1513,1.513000,2857,4471993,3771.03,-308.63,2219.5600000000004
1514,1.514000,2858,4472993,-1912.97,322.37,-118.4399999999996
1515,1.515000,2859,4473993,-10376.97,-557.63,1902.5600000000004
1516,1.516000,2860,4474993,-20888.97,-691.63,2790.5600000000004
1517,1.517000,2861,4475993,-19260.97,-237.63,2602.5600000000004
1518,1.518000,2862,4476993,-14427.97,-399.63,2333.5600000000004
1519,1.519000,2863,4477993,-4608.97,-141.63,2983.5600000000004
1520,1.520000,2864,4478993,3881.03,275.37,1847.5600000000004
1521,1.521000,2865,4479993,5454.03,-83.63,-285.4399999999996
1522,1.522000,2866,4480993,3457.03,753.37,-1411.4399999999996
1523,1.523000,2867,4481993,2066.03,1020.37,-3226.4399999999996
1524,1.524000,2868,4482993,7020.03,309.37,-3248.4399999999996
1525,1.525000,2869,4483993,9496.03,-104.63,-2814.4399999999996
1526,1.526000,2870,4484993,7407.03,-315.63,-2238.4399999999996
1527,1.527000,2871,4485993,-1352.97,-5.629999999999999,-2620.4399999999996
1528,1.528000,2872,4486993,-5868.97,261.37,-3684.4399999999996
1529,1.528999,2873,4487992,1066.03,414.37,-4785.44
1530,1.530000,2874,4488993,12992.03,110.37,-4131.44
1531,1.531000,2875,4489993,21745.03,-400.63,-594.4399999999996
1532,1.532000,2876,4490993,17376.03,261.37,-164.4399999999996
1533,1.533000,2877,4491993,1719.03,1372.37,-508.4399999999996
1534,1.534000,2878,4492993,-9698.97,534.37,3102.5600000000004
1535,1.535000,2879,4493993,-11384.97,-148.63,4217.56
1536,1.536000,2880,4494993,-4722.97,-317.63,2736.5600000000004
1537,1.537000,2881,4495993,3188.03,-1055.63,3627.5600000000004
1538,1.538000,2882,4496993,4797.03,-642.63,3029.5600000000004
1539,1.539000,2883,4497993,-476.97,-4.629999999999999,315.5600000000004
1540,1.540000,2884,4498993,-7476.97,-515.63,666.5600000000004
1541,1.541000,2885,4499993,-18384.97,-942.63,2149.5600000000004
1542,1.542000,2886,4500993,-20923.97,-369.63,2078.5600000000004
1543,1.543000,2887,4501993,-17815.97,-348.63,1785.5600000000004
1544,1.544000,2888,4502993,-7946.97,-524.63,2717.5600000000004
1545,1.545000,2889,4503993,4245.03,442.37,2062.5600000000004
1546,1.546000,2890,4504993,6574.03,63.370000000000005,342.5600000000004
1547,1.547000,2891,4505993,5106.03,132.37,-482.4399999999996
1548,1.548000,2892,4506993,1982.03,1205.37,-2824.4399999999996
1549,1.549000,2893,4507993,5683.03,878.37,-3512.4399999999996
1550,1.549999,2894,4508992,8336.03,200.37,-2564.4399999999996
1551,1.551000,2895,4509993,8408.03,34.370000000000005,-1891.4399999999996
1552,1.552000,2896,4510993,1050.03,-228.63,-2194.4399999999996
1553,1.553000,2897,4511993,-6377.97,-326.63,-3002.4399999999996
1554,1.554000,2898,4512993,-2118.97,490.37,-4223.44
1555,1.555000,2899,4513993,9533.03,344.37,-4521.44
1556,1.556000,2900,4514993,20935.03,-858.63,-1291.4399999999996
1557,1.557000,2901,4515993,18484.03,64.37,-669.4399999999996
1558,1.558000,2902,4516993,5024.03,1271.37,-1597.4399999999996
1559,1.559000,2903,4517993,-7298.97,630.37,2060.5600000000004
1560,1.560000,2904,4518993,-10659.97,136.37,4439.56
1561,1.561000,2905,4519993,-5685.97,-178.63,2733.5600000000004
1562,1.562000,2906,4520993,1520.03,-957.63,3306.5600000000004
1563,1.563000,2907,4521993,4926.03,-892.63,3871.5600000000004
1564,1.564000,2908,4522993,442.03,82.37,851.5600000000004
1565,1.565000,2909,4523993,-4794.97,-140.63,229.5600000000004
1566,1.566000,2910,4524993,-14308.97,-718.63,1938.5600000000004
1567,1.567000,2911,4525993,-19609.97,-700.63,2416.5600000000004
1568,1.568000,2912,4526993,-18547.97,-135.63,1919.5600000000004
1569,1.569000,2913,4527993,-13010.97,165.37,2154.5600000000004
1570,1.570000,2914,4528993,890.03,-24.63,2330.5600000000004
1571,1.571000,2915,4529993,6069.03,-421.63,786.5600000000004
1572,1.572000,2916,4530993,4942.03,-88.63,-230.4399999999996
1573,1.573000,2917,4531993,2858.03,1136.37,-2125.4399999999996
1574,1.574000,2918,4532993,4197.03,955.37,-3191.4399999999996
1575,1.575000,2919,4533993,8526.03,493.37,-2305.4399999999996
1576,1.576000,2920,4534993,8873.03,-210.63,-1892.4399999999996
1577,1.577000,2921,4535993,2477.03,-402.63,-2163.4399999999996
1578,1.578000,2922,4536993,-6475.97,393.37,-2910.4399999999996
1579,1.579000,2923,4537993,-2754.97,67.37,-3464.4399999999996
1580,1.580000,2924,4538993,7334.03,470.37,-5125.44
1581,1.581000,2925,4539993,17528.03,25.37,-3082.4399999999996
1582,1.582000,2926,4540993,21059.03,-488.63,-34.4399999999996
1583,1.583000,2927,4541993,9920.03,735.37,-1144.4399999999996
1584,1.584000,2928,4542993,-4356.97,702.37,443.5600000000004
1585,1.585000,2929,4543993,-11240.97,252.37,3801.5600000000004
1586,1.586000,2930,4544993,-7834.97,154.37,3589.5600000000004
1587,1.587000,2931,4545993,-449.97,-869.63,2893.5600000000004
1588,1.588000,2932,4546993,4656.03,-1041.63,3894.5600000000004
1589,1.589000,2933,4547993,2964.03,-105.63,1828.5600000000004
1590,1.590000,2934,4548993,-1671.97,-165.63,-200.4399999999996
1591,1.591000,2935,4549993,-12710.97,-436.63,1506.5600000000004
1592,1.592000,2936,4550993,-21512.97,-913.63,2559.5600000000004
1593,1.593000,2937,4551993,-18774.97,-545.63,2055.5600000000004
1594,1.594000,2938,4552993,-14548.97,-473.63,2173.5600000000004
1595,1.595000,2939,4553993,-3203.97,-23.63,2770.5600000000004
1596,1.595999,2940,4554992,4825.03,346.37,948.5600000000004
1597,1.596999,2941,4555992,6399.03,-385.63,-147.4399999999996
1598,1.597999,2942,4556992,3713.03,798.37,-1441.4399999999996
1599,1.599000,2943,4557993,2401.03,1401.37,-3184.4399999999996
1600,1.600000,2944,4558993,7883.03,430.37,-2490.4399999999996
1601,1.601000,2945,4559993,9282.03,-77.63,-2173.4399999999996
1602,1.602000,2946,4560993,5326.03,-220.63,-2075.4399999999996
1603,1.603000,2947,4561993,-3453.97,-233.63,-2545.4399999999996
1604,1.604000,2948,4562993,-4689.97,298.37,-3422.4399999999996
1605,1.605000,2949,4563993,3721.03,568.37,-5025.44
1606,1.606000,2950,4564993,14841.03,-48.629999999999995,-3901.4399999999996
1607,1.607000,2951,4565993,21175.03,-243.63,-402.4399999999996
1608,1.608000,2952,4566993,14213.03,233.37,-722.4399999999996
1609,1.609000,2953,4567993,-1053.97,1084.37,-492.4399999999996
1610,1.610000,2954,4568993,-10050.97,691.37,3379.5600000000004
1611,1.611000,2955,4569993,-9505.97,-452.63,3875.5600000000004
1612,1.612000,2956,4570993,-3868.97,-294.63,2489.5600000000004
1613,1.613000,2957,4571993,4173.03,-1071.63,4049.5600000000004
1614,1.614000,2958,4572993,4522.03,-572.63,2397.5600000000004
1615,1.615000,2959,4573993,-2257.97,333.37,-193.4399999999996
1616,1.616000,2960,4574993,-8238.97,-708.63,1312.5600000000004
1617,1.617000,2961,4575993,-18363.97,-673.63,2240.5600000000004
1618,1.618000,2962,4576993,-20061.97,-298.63,2243.5600000000004
1619,1.619000,2963,4577993,-15564.97,-559.63,1976.5600000000004
1620,1.620000,2964,4578993,-7633.97,342.37,2249.5600000000004
1621,1.621000,2965,4579993,3728.03,257.37,1833.5600000000004
1622,1.622000,2966,4580993,6309.03,-839.63,138.5600000000004
1623,1.623000,2967,4581993,3987.03,693.37,-1192.4399999999996
1624,1.624000,2968,4582993,2822.03,1122.37,-2690.4399999999996
1625,1.625000,2969,4583993,6262.03,533.37,-3105.4399999999996
1626,1.626000,2970,4584993,8317.03,399.37,-2678.4399999999996
1627,1.627000,2971,4585993,7545.03,-589.63,-1556.4399999999996
1628,1.628000,2972,4586993,-51.97,-126.63,-1766.4399999999996
1629,1.629000,2973,4587993,-6273.97,594.37,-3263.4399999999996
1630,1.630000,2974,4588993,-647.97,333.37,-4501.44
1631,1.631000,2975,4589993,11101.03,212.37,-4391.44
1632,1.632000,2976,4590993,21068.03,-456.63,-1114.4399999999996
1633,1.633000,2977,4591993,18158.03,103.37,-217.4399999999996
1634,1.634000,2978,4592993,3438.03,1108.37,-1020.4399999999996
1635,1.634999,2979,4593992,-8385.97,359.37,2079.5600000000004
1636,1.636000,2980,4594993,-11219.97,45.370000000000005,4057.5600000000004
1637,1.637000,2981,4595993,-5145.97,-168.63,2876.5600000000004
1638,1.638000,2982,4596993,2586.03,-1196.63,3185.5600000000004
1639,1.639000,2983,4597993,4776.03,-698.63,3168.5600000000004
1640,1.640000,2984,4598993,668.03,-81.63,636.5600000000004
1641,1.641000,2985,4599993,-5488.97,-432.63,250.5600000000004
1642,1.641999,2986,4600992,-15525.97,-748.63,1983.5600000000004
1643,1.643000,2987,4601993,-19586.97,-702.63,2425.5600000000004
1644,1.644000,2988,4602993,-19139.97,-16.63,1667.5600000000004
1645,1.645000,2989,4603993,-10267.97,-680.63,2633.5600000000004
1646,1.646000,2990,4604993,2790.03,-15.629999999999999,2543.5600000000004
1647,1.647000,2991,4605993,5080.03,439.37,376.5600000000004
1648,1.648000,2992,4606993,4973.03,166.37,-238.4399999999996
1649,1.649000,2993,4607993,2623.03,959.37,-2170.4399999999996
1650,1.650000,2994,4608993,3849.03,1016.37,-3295.4399999999996
1651,1.651000,2995,4609993,7628.03,165.37,-2513.4399999999996
1652,1.652000,2996,4610993,8448.03,-389.63,-1937.4399999999996
1653,1.653000,2997,4611993,2411.03,117.37,-2006.4399999999996
1654,1.654000,2998,4612993,-5359.97,-3.629999999999999,-2888.4399999999996
1655,1.655000,2999,4613993,-2791.97,223.37,-3843.4399999999996
1656,1.656000,3000,4614993,7912.03,572.37,-4838.44
1657,1.657000,3001,4615993,18760.03,-347.63,-2349.4399999999996
1658,1.658000,3002,4616993,19882.03,111.37,-283.4399999999996
1659,1.659000,3003,4617993,9150.03,729.37,-1425.4399999999996
1660,1.660000,3004,4618993,-5482.97,807.37,824.5600000000004
1661,1.661000,3005,4619993,-10759.97,238.37,4442.56
1662,1.662000,3006,4620993,-7336.97,-222.63,3180.5600000000004
1663,1.663000,3007,4621993,-563.97,-448.63,2684.5600000000004
1664,1.664000,3008,4622993,5046.03,-1177.63,4121.56
1665,1.665000,3009,4623993,1878.03,-157.63,1294.5600000000004
1666,1.666000,3010,4624993,-1875.97,-171.63,225.5600000000004
1667,1.667000,3011,4625993,-12806.97,-683.63,1649.5600000000004
1668,1.668000,3012,4626993,-21236.97,-886.63,2071.5600000000004
1669,1.669000,3013,4627993,-18695.97,-520.63,2087.5600000000004
1670,1.670000,3014,4628993,-14651.97,11.370000000000001,1780.5600000000004
1671,1.671000,3015,4629993,-2177.97,-221.63,2750.5600000000004
1672,1.672000,3016,4630993,4991.03,13.370000000000001,1022.5600000000004
1673,1.673000,3017,4631993,6139.03,183.37,-304.4399999999996
1674,1.674000,3018,4632993,4026.03,645.37,-1017.4399999999996
1675,1.675000,3019,4633993,2634.03,1218.37,-3094.4399999999996
1676,1.676000,3020,4634993,7766.03,654.37,-2717.4399999999996
1677,1.677000,3021,4635993,9162.03,-125.63,-2105.4399999999996
1678,1.677999,3022,4636992,4914.03,-216.63,-2130.4399999999996
1679,1.679000,3023,4637993,-4845.97,-64.63,-2505.4399999999996
1680,1.680000,3024,4638993,-3779.97,128.37,-3178.4399999999996
1681,1.681000,3025,4639993,4991.03,506.37,-4973.44
1682,1.682000,3026,4640993,15282.03,116.37,-3648.4399999999996
1683,1.683000,3027,4641993,20889.03,-354.63,-520.4399999999996
1684,1.684000,3028,4642993,12872.03,174.37,-964.4399999999996
1685,1.685000,3029,4643993,-1284.97,927.37,-113.4399999999996
1686,1.686000,3030,4644993,-10666.97,635.37,3544.5600000000004
1687,1.687000,3031,4645993,-9180.97,-204.63,3676.5600000000004
1688,1.688000,3032,4646993,-2639.97,-457.63,2462.5600000000004
1689,1.688999,3033,4647992,4729.03,-1209.63,4178.56
1690,1.690000,3034,4648993,4093.03,-582.63,2413.5600000000004
1691,1.691000,3035,4649993,-1946.97,150.37,-166.4399999999996
1692,1.692000,3036,4650993,-9634.97,-411.63,1225.5600000000004
1693,1.693000,3037,4651993,-20427.97,-736.63,2314.5600000000004
1694,1.694000,3038,4652993,-19411.97,-632.63,2221.5600000000004
1695,1.695000,3039,4653993,-15136.97,-540.63,1837.5600000000004
1696,1.696000,3040,4654993,-5918.97,-22.63,2565.5600000000004
1697,1.697000,3041,4655993,4259.03,404.37,1805.5600000000004
1698,1.698000,3042,4656993,5881.03,-256.63,80.5600000000004
1699,1.699000,3043,4657993,4002.03,453.37,-1022.4399999999996
1700,1.700000,3044,4658993,2553.03,1189.37,-2830.4399999999996
1701,1.701000,3045,4659993,6899.03,834.37,-3006.4399999999996
1702,1.702000,3046,4660993,8931.03,173.37,-2234.4399999999996
1703,1.703000,3047,4661993,6765.03,-576.63,-1666.4399999999996
1704,1.703999,3048,4662992,-1263.97,-169.63,-2384.4399999999996
1705,1.705000,3049,4663993,-5898.97,402.37,-3392.4399999999996
1706,1.706000,3050,4664993,60.03,526.37,-4588.44
1707,1.707000,3051,4665993,12522.03,104.37,-4172.44
1708,1.708000,3052,4666993,21124.03,-533.63,-1066.4399999999996
1709,1.709000,3053,4667993,16861.03,335.37,-791.4399999999996
1710,1.710000,3054,4668993,2696.03,1142.37,-927.4399999999996
1711,1.711000,3055,4669993,-9104.97,545.37,2691.5600000000004
1712,1.712000,3056,4670993,-10361.97,-65.63,4376.56
1713,1.713000,3057,4671993,-4604.97,-453.63,2831.5600000000004
1714,1.714000,3058,4672993,2489.03,-892.63,3536.5600000000004
1715,1.714999,3059,4673992,4791.03,-731.63,3223.5600000000004
1716,1.716000,3060,4674993,-491.97,-79.63,85.5600000000004
1717,1.717000,3061,4675993,-6565.97,48.370000000000005,258.5600000000004
1718,1.718000,3062,4676993,-16107.97,-1021.63,2298.5600000000004
1719,1.719000,3063,4677993,-19408.97,-743.63,2461.5600000000004
1720,1.720000,3064,4678993,-18685.97,183.37,1688.5600000000004
1721,1.721000,3065,4679993,-10849.97,-8.629999999999999,2219.5600000000004
1722,1.722000,3066,4680993,3206.03,27.37,2342.5600000000004
1723,1.723000,3067,4681993,6687.03,-476.63,462.5600000000004
1724,1.724000,3068,4682993,5208.03,-35.629999999999995,-448.4399999999996
1725,1.725000,3069,4683993,2330.03,1219.37,-2257.4399999999996
1726,1.726000,3070,4684993,4844.03,1014.37,-3303.4399999999996
1727,1.727000,3071,4685993,7882.03,565.37,-2564.4399999999996
1728,1.728000,3072,4686993,8532.03,-454.63,-1766.4399999999996
1729,1.729000,3073,4687993,2142.03,-508.63,-2115.4399999999996
1730,1.730000,3074,4688993,-6068.97,334.37,-3132.4399999999996
1731,1.731000,3075,4689993,-2363.97,383.37,-3854.4399999999996
1732,1.732000,3076,4690993,8397.03,284.37,-4813.44
1733,1.733000,3077,4691993,20393.03,-524.63,-1988.4399999999996
1734,1.734000,3078,4692993,19647.03,169.37,-322.4399999999996
1735,1.735000,3079,4693993,6970.03,705.37,-1189.4399999999996
1736,1.736000,3080,4694993,-7143.97,788.37,1094.5600000000004
1737,1.737000,3081,4695993,-10950.97,499.37,4357.56
1738,1.738000,3082,4696993,-5857.97,-425.63,3384.5600000000004
1739,1.739000,3083,4697993,559.03,-864.63,2925.5600000000004
1740,1.739999,3084,4698992,5224.03,-899.63,4005.5600000000004
1741,1.741000,3085,4699993,1156.03,-192.63,1021.5600000000004
1742,1.742000,3086,4700993,-3868.97,-183.63,157.5600000000004
1743,1.743000,3087,4701993,-14289.97,-756.63,1810.5600000000004
1744,1.744000,3088,4702993,-20784.97,-910.63,2080.5600000000004
1745,1.745000,3089,4703993,-19442.97,-240.63,1835.5600000000004
1746,1.746000,3090,4704993,-13061.97,-124.63,2013.5600000000004
1747,1.747000,3091,4705993,220.03,-176.63,2727.5600000000004
1748,1.748000,3092,4706993,5738.03,-65.63,979.5600000000004
1749,1.749000,3093,4707993,5473.03,80.37,-509.4399999999996
1750,1.750000,3094,4708993,2987.03,1109.37,-1670.4399999999996
1751,1.751000,3095,4709993,3491.03,1086.37,-3026.4399999999996
1752,1.752000,3096,4710993,8281.03,208.37,-2435.4399999999996
1753,1.752999,3097,4711992,9511.03,283.37,-1990.4399999999996
1754,1.754000,3098,4712993,4169.03,-108.63,-2132.4399999999996
1755,1.754999,3099,4713992,-5544.97,-151.63,-2750.4399999999996
1756,1.756000,3100,4714993,-3278.97,97.37,-3529.4399999999996
1757,1.757000,3101,4715993,6143.03,478.37,-5169.44
1758,1.758000,3102,4716993,16414.03,67.37,-3210.4399999999996
1759,1.759000,3103,4717993,20764.03,-500.63,-220.4399999999996
1760,1.760000,3104,4718993,11139.03,563.37,-1100.4399999999996
1761,1.761000,3105,4719993,-3102.97,1038.37,226.5600000000004
1762,1.762000,3106,4720993,-10810.97,384.37,3772.5600000000004
1763,1.763000,3107,4721993,-8386.97,-138.63,3601.5600000000004
1764,1.764000,3108,4722993,-1812.97,-666.63,2672.5600000000004
1765,1.765000,3109,4723993,4494.03,-988.63,4037.5600000000004
1766,1.766000,3110,4724993,3031.03,-227.63,2055.5600000000004
1767,1.767000,3111,4725993,-1570.97,-20.63,-2.4399999999996
1768,1.768000,3112,4726993,-11632.97,-296.63,1316.5600000000004
1769,1.769000,3113,4727993,-21192.97,-862.63,2322.5600000000004
1770,1.770000,3114,4728993,-18839.97,-581.63,2405.5600000000004
1771,1.771000,3115,4729993,-14129.97,-395.63,1608.5600000000004
1772,1.772000,3116,4730993,-4284.97,53.370000000000005,2470.5600000000004
1773,1.773000,3117,4731993,4313.03,101.37,1806.5600000000004
1774,1.774000,3118,4732993,6264.03,-453.63,-163.4399999999996
1775,1.775000,3119,4733993,4128.03,770.37,-1256.4399999999996
1776,1.776000,3120,4734993,2646.03,1238.37,-3103.4399999999996
1777,1.776999,3121,4735992,7301.03,612.37,-3063.4399999999996
1778,1.778000,3122,4736993,9423.03,-221.63,-2057.4399999999996
1779,1.779000,3123,4737993,5556.03,-361.63,-1688.4399999999996
1780,1.780000,3124,4738993,-2728.97,-90.63,-2336.4399999999996
1781,1.781000,3125,4739993,-5370.97,397.37,-3456.4399999999996
1782,1.782000,3126,4740993,2688.03,639.37,-4692.44
1783,1.783000,3127,4741993,14298.03,-148.63,-3876.4399999999996
1784,1.784000,3128,4742993,20455.03,-466.63,-631.4399999999996
1785,1.785000,3129,4743993,14793.03,462.37,-598.4399999999996
1786,1.786000,3130,4744993,790.03,1101.37,-678.4399999999996
1787,1.787000,3131,4745993,-9684.97,425.37,3425.5600000000004
1788,1.788000,3132,4746993,-10040.97,-108.63,3949.5600000000004
1789,1.789000,3133,4747993,-3617.97,-438.63,2222.5600000000004
1790,1.790000,3134,4748993,3629.03,-1102.63,3748.5600000000004
1791,1.791000,3135,4749993,4453.03,-466.63,2687.5600000000004
1792,1.792000,3136,4750993,-1351.97,11.370000000000001,-170.4399999999996
1793,1.793000,3137,4751993,-8192.97,-508.63,977.5600000000004
1794,1.794000,3138,4752993,-18606.97,-689.63,2459.5600000000004
1795,1.795000,3139,4753993,-19922.97,-433.63,2290.5600000000004
1796,1.796000,3140,4754993,-16036.97,-525.63,2214.5600000000004
1797,1.797000,3141,4755993,-7226.97,-253.63,2845.5600000000004
1798,1.798000,3142,4756993,3426.03,471.37,1739.5600000000004
1799,1.799000,3143,4757993,5852.03,-197.63,-200.4399999999996
1800,1.800000,3144,4758993,4512.03,253.37,-760.4399999999996
1801,1.801000,3145,4759993,2108.03,1205.37,-2704.4399999999996
1802,1.802000,3146,4760993,5676.03,890.37,-3356.4399999999996
1803,1.803000,3147,4761993,8734.03,-135.63,-2438.4399999999996
1804,1.804000,3148,4762993,7779.03,-465.63,-1694.4399999999996
1805,1.805000,3149,4763993,877.03,48.370000000000005,-1997.4399999999996
1806,1.806000,3150,4764993,-6029.97,462.37,-3335.4399999999996
1807,1.807000,3151,4765993,-1437.97,577.37,-4350.44
1808,1.808000,3152,4766993,11357.03,-184.63,-4427.44
1809,1.809000,3153,4767993,20342.03,-118.63,-1690.4399999999996
1810,1.810000,3154,4768993,18525.03,137.37,-224.4399999999996
1811,1.811000,3155,4769993,4280.03,603.37,-1059.4399999999996
1812,1.812000,3156,4770993,-8251.97,974.37,1890.5600000000004
1813,1.813000,3157,4771993,-10367.97,-69.63,4482.56
1814,1.813999,3158,4772992,-5859.97,-307.63,2819.5600000000004
1815,1.815000,3159,4773993,1862.03,-934.63,3413.5600000000004
1816,1.816000,3160,4774993,4750.03,-802.63,3529.5600000000004
1817,1.817000,3161,4775993,-124.97,217.37,299.5600000000004
1818,1.818000,3162,4776993,-5434.97,-370.63,394.5600000000004
1819,1.819000,3163,4777993,-14936.97,-1069.63,2244.5600000000004
1820,1.820000,3164,4778993,-20434.97,-461.63,2149.5600000000004
1821,1.820999,3165,4779992,-19385.97,-84.63,1840.5600000000004
1822,1.822000,3166,4780993,-11011.97,-170.63,2259.5600000000004
1823,1.823000,3167,4781993,2477.03,79.37,2479.5600000000004
1824,1.824000,3168,4782993,5875.03,-255.63,782.5600000000004
1825,1.825000,3169,4783993,5116.03,220.37,-699.4399999999996
1826,1.826000,3170,4784993,2746.03,1071.37,-2167.4399999999996
1827,1.827000,3171,4785993,4265.03,883.37,-3245.4399999999996
1828,1.828000,3172,4786993,8303.03,346.37,-2814.4399999999996
1829,1.829000,3173,4787993,8643.03,-258.63,-1953.4399999999996
1830,1.830000,3174,4788993,2755.03,-393.63,-1940.4399999999996
1831,1.831000,3175,4789993,-5993.97,481.37,-3125.4399999999996
1832,1.832000,3176,4790993,-2591.97,359.37,-3975.4399999999996
1833,1.833000,3177,4791993,8329.03,142.37,-4775.44
1834,1.834000,3178,4792993,19054.03,-270.63,-2001.4399999999996
1835,1.835000,3179,4793993,20296.03,-195.63,52.5600000000004
1836,1.836000,3180,4794993,8145.03,875.37,-1415.4399999999996
1837,1.837000,3181,4795993,-5875.97,724.37,998.5600000000004
1838,1.838000,3182,4796993,-11076.97,242.37,4328.56
1839,1.839000,3183,4797993,-6864.97,-161.63,3032.5600000000004
1840,1.840000,3184,4798993,-27.97,-890.63,2823.5600000000004
1841,1.841000,3185,4799993,4953.03,-1065.63,4024.5600000000004
1842,1.842000,3186,4800993,1363.03,-52.629999999999995,1065.5600000000004
1843,1.843000,3187,4801993,-3020.97,-167.63,54.5600000000004
1844,1.844000,3188,4802993,-13899.97,-773.63,1991.5600000000004
1845,1.845000,3189,4803993,-21498.97,-720.63,2092.5600000000004
1846,1.846000,3190,4804993,-18682.97,-282.63,1845.5600000000004
1847,1.847000,3191,4805993,-13405.97,-53.629999999999995,1899.5600000000004
1848,1.848000,3192,4806993,-557.97,177.37,2873.5600000000004
1849,1.849000,3193,4807993,5558.03,-123.63,1408.5600000000004
1850,1.850000,3194,4808993,6173.03,-291.63,-292.4399999999996
1851,1.850999,3195,4809992,3149.03,1054.37,-1627.4399999999996
1852,1.852000,3196,4810993,3048.03,1155.37,-3217.4399999999996
1853,1.852999,3197,4811992,7998.03,412.37,-2665.4399999999996
1854,1.854000,3198,4812993,9535.03,-119.63,-2165.4399999999996
1855,1.855000,3199,4813993,4562.03,8.370000000000001,-2040.4399999999996
1856,1.856000,3200,4814993,-5502.97,-98.63,-2587.4399999999996
1857,1.857000,3201,4815993,-3819.97,-269.63,-3612.4399999999996
1858,1.857999,3202,4816992,5222.03,638.37,-5322.44
1859,1.859000,3203,4817993,16170.03,-14.629999999999999,-3155.4399999999996
1860,1.860000,3204,4818993,21016.03,-367.63,-79.4399999999996
1861,1.861000,3205,4819993,11784.03,812.37,-1183.4399999999996
1862,1.862000,3206,4820993,-2176.97,741.37,93.5600000000004
1863,1.863000,3207,4821993,-10749.97,192.37,3864.5600000000004
1864,1.864000,3208,4822993,-8949.97,383.37,3679.5600000000004
1865,1.865000,3209,4823993,-1749.97,-852.63,2796.5600000000004
1866,1.866000,3210,4824993,4205.03,-1186.63,4096.56
1867,1.867000,3211,4825993,3657.03,-96.63,2215.5600000000004
1868,1.868000,3212,4826993,-1630.97,-146.63,-167.4399999999996
1869,1.869000,3213,4827993,-10607.97,-343.63,1381.5600000000004
1870,1.870000,3214,4828993,-20685.97,-818.63,2285.5600000000004
1871,1.871000,3215,4829993,-19456.97,-700.63,1929.5600000000004
1872,1.872000,3216,4830993,-14945.97,-685.63,2017.5600000000004
1873,1.873000,3217,4831993,-5155.97,47.370000000000005,2309.5600000000004
1874,1.874000,3218,4832993,4193.03,587.37,1362.5600000000004
1875,1.875000,3219,4833993,6362.03,-293.63,153.5600000000004
1876,1.875999,3220,4834992,4303.03,432.37,-1243.4399999999996
1877,1.877000,3221,4835993,2689.03,1344.37,-2869.4399999999996
1878,1.878000,3222,4836993,7350.03,525.37,-2594.4399999999996
1879,1.879000,3223,4837993,8855.03,197.37,-2521.4399999999996
1880,1.880000,3224,4838993,6398.03,-198.63,-1871.4399999999996
1881,1.881000,3225,4839993,-2099.97,-628.63,-1870.4399999999996
1882,1.882000,3226,4840993,-5701.97,516.37,-3249.4399999999996
1883,1.883000,3227,4841993,1811.03,736.37,-4812.44
1884,1.884000,3228,4842993,13547.03,-248.63,-4169.44
1885,1.885000,3229,4843993,20602.03,-245.63,-698.4399999999996
1886,1.886000,3230,4844993,16309.03,120.37,-640.4399999999996
1887,1.887000,3231,4845993,1416.03,799.37,-1017.4399999999996
1888,1.888000,3232,4846993,-10045.97,867.37,2931.5600000000004
1889,1.889000,3233,4847993,-10067.97,-50.629999999999995,4090.5600000000004
1890,1.890000,3234,4848993,-4109.97,-479.63,2333.5600000000004
1891,1.891000,3235,4849993,3723.03,-1031.63,3930.5600000000004
1892,1.892000,3236,4850993,4614.03,-614.63,3252.5600000000004
1893,1.893000,3237,4851993,-1204.97,169.37,-62.4399999999996
1894,1.894000,3238,4852993,-7982.97,-252.63,765.5600000000004
1895,1.895000,3239,4853993,-17815.97,-947.63,2416.5600000000004
1896,1.896000,3240,4854993,-19858.97,-420.63,2320.5600000000004
1897,1.897000,3241,4855993,-16972.97,-476.63,2170.5600000000004
1898,1.898000,3242,4856993,-7869.97,-292.63,2760.5600000000004
1899,1.899000,3243,4857993,2989.03,473.37,1680.5600000000004
1900,1.900000,3244,4858993,6019.03,-429.63,-12.4399999999996
1901,1.901000,3245,4859993,4291.03,202.37,-716.4399999999996
1902,1.902000,3246,4860993,1889.03,1394.37,-2694.4399999999996
1903,1.903000,3247,4861993,6336.03,903.37,-3200.4399999999996
1904,1.904000,3248,4862993,8773.03,120.37,-2316.4399999999996
