row,seconds,esp32_index,micros,ax,ay,az
0,0.000000,1481,3095993,-6422.07,448.89,-2882.79
1,0.001001,1482,3096994,-300.07,445.89,-4132.79
2,0.002001,1483,3097994,11251.93,-16.11,-4415.79
3,0.003001,1484,3098994,20548.93,-242.11,-2510.79
4,0.004000,1485,3099993,18720.93,171.89,-1078.79
5,0.005001,1486,3100994,6165.93,677.89,-1563.79
6,0.006001,1487,3101994,-6378.07,795.89,989.21
7,0.007001,1488,3102994,-10324.07,270.89,3851.21
8,0.008001,1489,3103994,-5657.07,-540.11,3047.21
9,0.009001,1490,3104994,1227.93,-640.11,2430.21
10,0.010001,1491,3105994,5705.93,-660.11,2862.21
11,0.011001,1492,3106994,3472.93,-187.11,793.21
12,0.012001,1493,3107994,-630.0699999999999,-151.11,-460.78999999999996
13,0.013001,1494,3108994,-9950.07,-604.11,1262.21
14,0.014001,1495,3109994,-18710.07,-913.11,2610.21
15,0.015001,1496,3110994,-18534.07,-573.11,2481.21
16,0.016000,1497,3111993,-14472.07,21.89,1963.21
17,0.017001,1498,3112994,-4196.07,203.89,2048.21
18,0.018001,1499,3113994,4246.93,-169.11,1292.21
19,0.019001,1500,3114994,6042.93,-322.11,143.21000000000004
20,0.020001,1501,3115994,3177.93,827.89,-1489.79
21,0.021001,1502,3116994,2087.93,1157.89,-2944.79
22,0.022001,1503,3117994,6831.93,416.89,-2480.79
23,0.023001,1504,3118994,7868.93,4.890000000000001,-1899.79
24,0.024001,1505,3119994,3747.93,-43.11,-1426.79
25,0.025001,1506,3120994,-4194.07,-172.11,-2045.79
26,0.026001,1507,3121994,-5731.07,442.89,-3557.79
27,0.027001,1508,3122994,4342.93,567.89,-4537.79
28,0.028001,1509,3123994,16475.93,-348.11,-3913.79
29,0.029001,1510,3124994,21970.93,-101.11,-1468.79
30,0.030001,1511,3125994,14152.93,586.89,-1153.79
31,0.031001,1512,3126994,259.93,827.89,-748.79
32,0.032001,1513,3127994,-9235.07,527.89,2522.21
33,0.033001,1514,3128994,-9507.07,-46.11,3784.21
34,0.034001,1515,3129994,-2707.07,-651.11,2796.21
35,0.035000,1516,3130993,3007.93,-596.11,2531.21
36,0.036001,1517,3131994,5281.93,-325.11,1911.21
37,0.037000,1518,3132993,2219.93,-341.11,101.21000000000004
38,0.038001,1519,3133994,-3571.07,-307.11,233.21000000000004
39,0.039000,1520,3134993,-12836.07,-1075.11,2069.21
40,0.040001,1521,3135994,-18852.07,-905.11,2591.21
41,0.041001,1522,3136994,-19344.07,90.89,2049.21
42,0.042000,1523,3137993,-11047.07,53.89,2015.21
43,0.043000,1524,3138993,826.9300000000001,130.89,1891.21
44,0.044001,1525,3139994,5054.93,-322.11,693.21
45,0.045001,1526,3140994,5499.93,48.89,-327.78999999999996
46,0.046001,1527,3141994,2384.93,1100.89,-2140.79
47,0.047000,1528,3142993,3990.93,846.89,-3000.79
48,0.048001,1529,3143994,7183.93,397.89,-2142.79
49,0.049001,1530,3144994,6625.93,-214.11,-1571.79
50,0.050001,1531,3145994,827.9300000000001,-99.11,-1483.79
51,0.051001,1532,3146994,-6543.07,295.89,-2832.79
52,0.052001,1533,3147994,-1530.07,389.89,-4055.79
53,0.053001,1534,3148994,9545.93,246.89,-4544.79
54,0.054000,1535,3149993,19448.93,-372.11,-2839.79
55,0.055000,1536,3150993,20033.93,21.89,-1192.79
56,0.056000,1537,3151993,8444.93,638.89,-1575.79
57,0.057001,1538,3152994,-4675.07,889.89,561.21
58,0.058001,1539,3153994,-10239.07,340.89,3699.21
59,0.059000,1540,3154993,-6631.07,-418.11,3189.21
60,0.060001,1541,3155994,132.93,-543.11,2445.21
61,0.061001,1542,3156994,5157.93,-755.11,3199.21
62,0.062000,1543,3157993,3983.93,-384.11,1146.21
63,0.063001,1544,3158994,-478.07,-28.11,-620.79
64,0.064001,1545,3159994,-7478.07,-540.11,918.21
65,0.065001,1546,3160994,-17269.07,-889.11,2771.21
66,0.066001,1547,3161994,-18900.07,-631.11,2628.21
67,0.067001,1548,3162994,-15516.07,-198.11,1709.21
68,0.068001,1549,3163994,-6974.07,174.89,2083.21
69,0.069001,1550,3164994,3628.93,-11.11,1393.21
70,0.070000,1551,3165993,5973.93,-202.11,103.21000000000004
71,0.071001,1552,3166994,3543.93,651.89,-1144.79
72,0.072000,1553,3167993,2616.93,951.89,-2674.79
73,0.073001,1554,3168994,6626.93,503.89,-2482.79
74,0.074001,1555,3169994,7778.93,359.89,-1910.79
75,0.075000,1556,3170993,4378.93,-164.11,-1518.79
76,0.076001,1557,3171994,-3535.07,-140.11,-2031.79
77,0.077001,1558,3172994,-6178.07,532.89,-3329.79
78,0.078000,1559,3173993,3033.93,387.89,-4204.79
79,0.079000,1560,3174993,14902.93,-125.11,-4157.79
80,0.080001,1561,3175994,21630.93,-216.11,-1935.79
81,0.081000,1562,3176993,15791.93,278.89,-1210.79
82,0.082001,1563,3177994,2030.93,807.89,-1191.79
83,0.083001,1564,3178994,-8719.07,769.89,1938.21
84,0.084000,1565,3179993,-9723.07,-119.11,3877.21
85,0.085001,1566,3180994,-3955.07,-521.11,2603.21
86,0.086000,1567,3181993,3035.93,-601.11,2713.21
87,0.087000,1568,3182993,5898.93,-633.11,2566.21
88,0.088000,1569,3183993,2422.93,78.89,94.21000000000004
89,0.089000,1570,3184993,-2211.07,-224.11,117.21000000000004
90,0.090001,1571,3185994,-12601.07,-832.11,1728.21
91,0.091001,1572,3186994,-18611.07,-984.11,2815.21
92,0.092001,1573,3187994,-18681.07,-300.11,2433.21
93,0.093001,1574,3188994,-12788.07,-174.11,2015.21
94,0.094001,1575,3189994,-967.0699999999999,171.89,2149.21
95,0.095000,1576,3190993,4680.93,-83.11,664.21
96,0.096001,1577,3191994,5564.93,-127.11,-488.78999999999996
97,0.097000,1578,3192993,2550.93,979.89,-2002.79
98,0.098001,1579,3193994,3513.93,839.89,-2980.79
99,0.099001,1580,3194994,7302.93,502.89,-2269.79
100,0.100001,1581,3195994,6823.93,167.89,-1735.79
101,0.101001,1582,3196994,2434.93,-357.11,-1344.79
102,0.102001,1583,3197994,-6000.07,55.89,-2478.79
103,0.103001,1584,3198994,-3079.07,518.89,-3663.79
104,0.104001,1585,3199994,7941.93,264.89,-4374.79
105,0.105001,1586,3200994,18169.93,-268.11,-3339.79
106,0.106001,1587,3201994,21112.93,-139.11,-1245.79
107,0.107001,1588,3202994,10215.93,650.89,-1379.79
108,0.108001,1589,3203994,-3076.07,949.89,-90.78999999999996
109,0.109000,1590,3204993,-10082.07,598.89,3156.21
110,0.110000,1591,3205993,-7629.07,-518.11,3587.21
111,0.111001,1592,3206994,-904.0699999999999,-649.11,2465.21
112,0.112001,1593,3207994,4403.93,-615.11,2880.21
113,0.113001,1594,3208994,4427.93,-532.11,1466.21
114,0.114001,1595,3209994,452.93,-39.11,-517.79
115,0.115001,1596,3210994,-5643.07,-459.11,625.21
116,0.116001,1597,3211994,-15356.07,-982.11,2606.21
117,0.117001,1598,3212994,-19067.07,-569.11,2740.21
118,0.118000,1599,3213993,-16892.07,-124.11,1740.21
119,0.119001,1600,3214994,-8463.07,106.89,2254.21
120,0.120001,1601,3215994,2572.93,73.89,1771.21
121,0.121001,1602,3216994,5933.93,-359.11,214.21000000000004
122,0.122001,1603,3217994,3905.93,449.89,-854.79
123,0.123001,1604,3218994,2316.93,929.89,-2595.79
124,0.124001,1605,3219994,5831.93,628.89,-2761.79
125,0.125000,1606,3220993,7649.93,302.89,-2034.79
126,0.126001,1607,3221994,5673.93,-26.11,-1499.79
127,0.127001,1608,3222994,-1754.07,4.890000000000001,-1688.79
128,0.128001,1609,3223994,-6919.07,26.89,-3159.79
129,0.129001,1610,3224994,551.9300000000001,370.89,-4256.79
130,0.130001,1611,3225994,12491.93,118.89,-4283.79
131,0.131001,1612,3226994,21367.93,-355.11,-2233.79
132,0.132000,1613,3227993,17975.93,332.89,-1103.79
133,0.133001,1614,3228994,4667.93,716.89,-1319.79
134,0.134001,1615,3229994,-7164.07,727.89,1329.21
135,0.135001,1616,3230994,-10343.07,270.89,3878.21
136,0.136001,1617,3231994,-4968.07,-539.11,3107.21
137,0.137001,1618,3232994,1476.93,-539.11,2474.21
138,0.138001,1619,3233994,5818.93,-519.11,2505.21
139,0.139001,1620,3234994,3698.93,-216.11,656.21
140,0.140000,1621,3235993,-764.0699999999999,-258.11,-109.78999999999996
141,0.141001,1622,3236994,-11426.07,-638.11,1270.21
142,0.142001,1623,3237994,-19257.07,-1024.11,2467.21
143,0.143000,1624,3238993,-18484.07,-472.11,2371.21
144,0.144001,1625,3239994,-14222.07,-65.11,1968.21
145,0.145001,1626,3240994,-2698.07,94.89,2339.21
146,0.146001,1627,3241994,4662.93,-94.11,1106.21
147,0.147001,1628,3242994,6323.93,-332.11,-150.78999999999996
148,0.148001,1629,3243994,2924.93,1052.89,-1667.79
149,0.149000,1630,3244993,2320.93,1087.89,-2905.79
150,0.150001,1631,3245994,6679.93,251.89,-2305.79
151,0.151001,1632,3246994,7502.93,185.89,-1897.79
152,0.152000,1633,3247993,3646.93,-192.11,-1374.79
153,0.153001,1634,3248994,-4942.07,-130.11,-2211.79
154,0.154000,1635,3249993,-4823.07,626.89,-3616.79
155,0.155001,1636,3250994,5530.93,329.89,-4590.79
156,0.156000,1637,3251993,16989.93,-138.11,-3795.79
157,0.157001,1638,3252994,21582.93,-66.11,-1357.79
158,0.158001,1639,3253994,12894.93,321.89,-1357.79
159,0.159000,1640,3254993,-1083.07,1015.89,-621.79
160,0.160001,1641,3255994,-9549.07,571.89,2930.21
161,0.161001,1642,3256994,-8402.07,-349.11,3779.21
162,0.162000,1643,3257993,-2253.07,-526.11,2521.21
163,0.163001,1644,3258994,3807.93,-781.11,2979.21
164,0.164001,1645,3259994,5096.93,-445.11,1918.21
165,0.165001,1646,3260994,899.9300000000001,0.8900000000000006,-315.78999999999996
166,0.166000,1647,3261993,-4465.07,-384.11,303.21000000000004
167,0.167001,1648,3262994,-13356.07,-1108.11,2169.21
168,0.168000,1649,3263993,-18805.07,-826.11,2843.21
169,0.169001,1650,3264994,-18761.07,26.89,1959.21
170,0.170001,1651,3265994,-10645.07,297.89,1829.21
171,0.171001,1652,3266994,1386.93,60.89,1798.21
172,0.172001,1653,3267994,5588.93,-608.11,598.21
173,0.173001,1654,3268994,4863.93,385.89,-525.79
174,0.174001,1655,3269994,2477.93,1036.89,-2209.79
175,0.175001,1656,3270994,4901.93,670.89,-2854.79
176,0.176001,1657,3271994,7623.93,486.89,-2152.79
177,0.177000,1658,3272993,6111.93,-337.11,-1518.79
178,0.178001,1659,3273994,-121.07,-313.11,-1476.79
179,0.179001,1660,3274994,-6816.07,479.89,-3041.79
180,0.180001,1661,3275994,-598.0699999999999,480.89,-4166.79
181,0.181001,1662,3276994,10537.93,222.89,-4553.79
182,0.182001,1663,3277994,20211.93,-473.11,-2612.79
183,0.183001,1664,3278994,19559.93,268.89,-1229.79
184,0.184001,1665,3279994,6920.93,810.89,-1506.79
185,0.185001,1666,3280994,-5542.07,473.89,1135.21
186,0.186000,1667,3281993,-10720.07,451.89,3558.21
187,0.187001,1668,3282994,-6000.07,-339.11,2933.21
188,0.188001,1669,3283994,872.9300000000001,-587.11,2639.21
189,0.189001,1670,3284994,5503.93,-732.11,2936.21
190,0.190001,1671,3285994,4110.93,-381.11,842.21
191,0.191001,1672,3286994,-255.07,-133.11,-434.78999999999996
192,0.192001,1673,3287994,-9683.07,-466.11,1094.21
193,0.193001,1674,3288994,-18670.07,-942.11,2441.21
194,0.194001,1675,3289994,-18598.07,-642.11,2257.21
195,0.195001,1676,3290994,-15848.07,-80.11,1996.21
196,0.196001,1677,3291994,-4523.07,157.89,2315.21
197,0.197001,1678,3292994,4911.93,-61.11,1305.21
198,0.198001,1679,3293994,6067.93,-318.11,166.21000000000004
199,0.199000,1680,3294993,3386.93,747.89,-1217.79
200,0.200001,1681,3295994,2030.93,1113.89,-2857.79
201,0.201000,1682,3296993,6467.93,401.89,-2313.79
202,0.202001,1683,3297994,7542.93,-58.11,-1898.79
203,0.203001,1684,3298994,4220.93,173.89,-1782.79
204,0.204001,1685,3299994,-3506.07,-39.11,-1896.79
205,0.205000,1686,3300993,-5557.07,89.89,-3337.79
206,0.206001,1687,3301994,3444.93,567.89,-4673.79
207,0.207001,1688,3302994,15663.93,-137.11,-4031.79
208,0.208000,1689,3303993,21894.93,-42.11,-1683.79
209,0.209001,1690,3304994,14443.93,380.89,-1208.79
210,0.210000,1691,3305993,790.9300000000001,479.89,-979.79
211,0.211001,1692,3306994,-8670.07,905.89,2154.21
212,0.212000,1693,3307993,-9094.07,-38.11,3967.21
213,0.213001,1694,3308994,-3242.07,-693.11,2750.21
214,0.214001,1695,3309994,2912.93,-391.11,2738.21
215,0.215000,1696,3310993,5524.93,-632.11,2438.21
216,0.216001,1697,3311994,2104.93,-112.11,82.21000000000004
217,0.217001,1698,3312994,-3334.07,-99.11,161.21000000000004
218,0.218001,1699,3313994,-12057.07,-1173.11,1854.21
219,0.219001,1700,3314994,-18571.07,-858.11,2711.21
220,0.220001,1701,3315994,-19427.07,-35.11,2158.21
221,0.221001,1702,3316994,-11921.07,-223.11,1723.21
222,0.222000,1703,3317993,-720.0699999999999,143.89,1715.21
223,0.223001,1704,3318994,4852.93,-306.11,665.21
224,0.224001,1705,3319994,5761.93,62.89,-364.78999999999996
225,0.225001,1706,3320994,2814.93,1152.89,-2005.79
226,0.226001,1707,3321994,3945.93,791.89,-2933.79
227,0.227001,1708,3322994,7409.93,452.89,-2218.79
228,0.228001,1709,3323994,6761.93,-92.11,-1508.79
229,0.229001,1710,3324994,1652.93,-184.11,-1382.79
230,0.230001,1711,3325994,-6322.07,326.89,-2642.79
231,0.231000,1712,3326993,-2174.07,286.89,-3706.79
232,0.232001,1713,3327994,8756.93,314.89,-4634.79
233,0.233001,1714,3328994,18740.93,79.89,-3151.79
234,0.234001,1715,3329994,21047.93,-271.11,-880.79
235,0.235001,1716,3330994,8808.93,454.89,-1614.79
236,0.236001,1717,3331994,-4482.07,1004.89,94.21000000000004
237,0.237000,1718,3332993,-9929.07,183.89,3562.21
238,0.238001,1719,3333994,-7548.07,-269.11,3290.21
239,0.239001,1720,3334994,-355.07,-510.11,2384.21
240,0.240000,1721,3335993,5528.93,-869.11,2881.21
241,0.241000,1722,3336993,4145.93,-105.11,1186.21
242,0.242001,1723,3337994,1.9300000000000068,-271.11,-189.78999999999996
243,0.243000,1724,3338993,-6904.07,-637.11,878.21
244,0.244000,1725,3339993,-17081.07,-629.11,2450.21
245,0.245001,1726,3340994,-19145.07,-783.11,2710.21
246,0.246001,1727,3341994,-15816.07,-152.11,1874.21
247,0.247001,1728,3342994,-6614.07,156.89,2239.21
248,0.248001,1729,3343994,3650.93,-166.11,1562.21
249,0.249000,1730,3344993,5576.93,-167.11,118.21000000000004
250,0.250001,1731,3345994,3350.93,542.89,-1003.79
251,0.251001,1732,3346994,1829.93,983.89,-2762.79
252,0.252000,1733,3347993,5906.93,706.89,-2755.79
253,0.253000,1734,3348993,8131.93,49.89,-1987.79
254,0.254001,1735,3349994,5311.93,-125.11,-1540.79
255,0.255001,1736,3350994,-2143.07,-135.11,-1715.79
256,0.256001,1737,3351994,-6481.07,201.89,-3385.79
257,0.257000,1738,3352993,706.9300000000001,718.89,-4530.79
258,0.258000,1739,3353993,13729.93,-68.11,-4104.79
259,0.259000,1740,3354993,21829.93,-427.11,-1918.79
260,0.260001,1741,3355994,16962.93,508.89,-1100.79
261,0.261000,1742,3356993,3903.93,928.89,-1135.79
262,0.262001,1743,3357994,-7456.07,480.89,1906.21
263,0.263001,1744,3358994,-10634.07,154.89,3821.21
264,0.264001,1745,3359994,-4845.07,-361.11,2944.21
265,0.265001,1746,3360994,2311.93,-836.11,2760.21
266,0.266001,1747,3361994,5469.93,-571.11,2464.21
267,0.267000,1748,3362993,3033.93,-112.11,360.21000000000004
268,0.268001,1749,3363994,-1073.07,-308.11,-157.78999999999996
269,0.269001,1750,3364994,-11828.07,-701.11,1563.21
270,0.270001,1751,3365994,-18877.07,-1090.11,2585.21
271,0.271000,1752,3366993,-18629.07,-390.11,2165.21
272,0.272001,1753,3367994,-14174.07,55.89,1848.21
273,0.273001,1754,3368994,-2056.07,150.89,1837.21
274,0.274001,1755,3369994,4822.93,-84.11,894.21
275,0.275001,1756,3370994,6604.93,-227.11,114.21000000000004
276,0.276001,1757,3371994,3146.93,933.89,-1697.79
277,0.277000,1758,3372993,2781.93,1056.89,-3010.79
278,0.278001,1759,3373994,7010.93,421.89,-2240.79
279,0.279001,1760,3374994,7025.93,-113.11,-1630.79
280,0.280001,1761,3375994,2822.93,-87.11,-1394.79
281,0.281001,1762,3376994,-5611.07,113.89,-2336.79
282,0.282000,1763,3377993,-3771.07,245.89,-3680.79
283,0.283001,1764,3378994,6930.93,487.89,-4684.79
284,0.284001,1765,3379994,17654.93,-227.11,-3317.79
285,0.285001,1766,3380994,21612.93,-170.11,-1118.79
286,0.286001,1767,3381994,11260.93,481.89,-1689.79
287,0.287001,1768,3382994,-2702.07,744.89,-474.78999999999996
288,0.288000,1769,3383993,-9710.07,629.89,3214.21
289,0.289001,1770,3384994,-8074.07,-344.11,3600.21
290,0.290001,1771,3385994,-1371.07,-504.11,2284.21
291,0.291001,1772,3386994,4454.93,-549.11,2959.21
292,0.292000,1773,3387993,4854.93,-544.11,1793.21
293,0.293000,1774,3388993,561.9300000000001,-37.11,-251.78999999999996
294,0.294001,1775,3389994,-5611.07,-400.11,533.21
295,0.295001,1776,3390994,-14437.07,-1048.11,2313.21
296,0.296001,1777,3391994,-19045.07,-651.11,2837.21
297,0.297001,1778,3392994,-17263.07,-205.11,1971.21
298,0.298001,1779,3393994,-8430.07,-246.11,2152.21
299,0.299001,1780,3394994,1993.93,7.890000000000001,1774.21
300,0.300001,1781,3395994,4962.93,-64.11,95.21000000000004
301,0.301000,1782,3396993,3695.93,561.89,-967.79
302,0.302001,1783,3397994,2228.93,1027.89,-2390.79
303,0.303001,1784,3398994,5611.93,554.89,-2775.79
304,0.304000,1785,3399993,7754.93,471.89,-2174.79
305,0.305001,1786,3400994,6433.93,-157.11,-1491.79
306,0.306001,1787,3401994,-657.0699999999999,-369.11,-1567.79
307,0.307000,1788,3402993,-7039.07,290.89,-3113.79
308,0.308000,1789,3403993,-421.07,504.89,-4031.79
309,0.309001,1790,3404994,11075.93,245.89,-4508.79
310,0.310000,1791,3405993,21029.93,-201.11,-2549.79
311,0.311001,1792,3406994,19356.93,135.89,-761.79
312,0.312000,1793,3407993,5897.93,741.89,-1342.79
313,0.313001,1794,3408994,-6343.07,617.89,1081.21
314,0.314001,1795,3409994,-11007.07,238.89,3696.21
315,0.315001,1796,3410994,-6057.07,-324.11,3132.21
316,0.316001,1797,3411994,1108.93,-779.11,2500.21
317,0.317001,1798,3412994,5548.93,-534.11,2516.21
318,0.318001,1799,3413994,4194.93,-255.11,872.21
319,0.319001,1800,3414994,56.93000000000001,-366.11,-327.78999999999996
320,0.320001,1801,3415994,-10673.07,-226.11,981.21
321,0.321001,1802,3416994,-19447.07,-1132.11,2570.21
322,0.322001,1803,3417994,-18061.07,-793.11,2665.21
323,0.323001,1804,3418994,-14798.07,128.89,2036.21
324,0.324001,1805,3419994,-3450.07,-119.11,2310.21
325,0.325001,1806,3420994,4686.93,-12.11,1141.21
326,0.326001,1807,3421994,6141.93,-47.11,-16.789999999999964
327,0.327000,1808,3422993,3328.93,809.89,-1372.79
328,0.328001,1809,3423994,1689.93,1134.89,-2946.79
329,0.329001,1810,3424994,6721.93,276.89,-2411.79
330,0.330000,1811,3425993,7739.93,89.89,-1870.79
331,0.331001,1812,3426994,3844.93,-150.11,-1344.79
332,0.332001,1813,3427994,-4372.07,-196.11,-2220.79
333,0.333001,1814,3428994,-5549.07,586.89,-3713.79
334,0.334000,1815,3429993,4653.93,374.89,-4566.79
335,0.335000,1816,3430993,16245.93,-289.11,-3820.79
336,0.336001,1817,3431994,21655.93,75.89,-1344.79
337,0.337001,1818,3432994,14132.93,377.89,-1451.79
338,0.338001,1819,3433994,-310.07,739.89,-851.79
339,0.339001,1820,3434994,-9083.07,729.89,2891.21
340,0.340001,1821,3435994,-8604.07,-311.11,3833.21
341,0.341001,1822,3436994,-2971.07,-379.11,2419.21
342,0.342000,1823,3437993,3620.93,-672.11,3026.21
343,0.343001,1824,3438994,5335.93,-659.11,2241.21
344,0.344000,1825,3439993,1333.93,110.89,-168.78999999999996
345,0.345001,1826,3440994,-4161.07,-443.11,249.21000000000004
346,0.346000,1827,3441993,-12876.07,-1166.11,1837.21
347,0.347001,1828,3442994,-18427.07,-771.11,2782.21
348,0.348001,1829,3443994,-18854.07,-138.11,2122.21
349,0.349001,1830,3444994,-11100.07,-132.11,1824.21
350,0.350000,1831,3445993,766.9300000000001,-23.11,2069.21
351,0.351001,1832,3446994,5028.93,-113.11,549.21
352,0.352001,1833,3447994,4958.93,547.89,-679.79
353,0.353001,1834,3448994,2764.93,962.89,-2030.79
354,0.354001,1835,3449994,4312.93,626.89,-2884.79
355,0.355001,1836,3450994,7390.93,535.89,-2213.79
356,0.356001,1837,3451994,6754.93,-119.11,-1501.79
357,0.357001,1838,3452994,822.9300000000001,-280.11,-1513.79
358,0.358001,1839,3453994,-7143.07,432.89,-2950.79
359,0.359001,1840,3454994,-1830.07,374.89,-3938.79
360,0.360001,1841,3455994,9503.93,145.89,-4626.79
361,0.361000,1842,3456993,19513.93,-251.11,-2932.79
362,0.362000,1843,3457993,20505.93,-153.11,-990.79
363,0.363001,1844,3458994,7918.93,906.89,-1572.79
364,0.364001,1845,3459994,-4624.07,762.89,741.21
365,0.365001,1846,3460994,-10420.07,297.89,3617.21
366,0.366001,1847,3461994,-6831.07,-171.11,3266.21
367,0.367001,1848,3462994,309.93,-828.11,2438.21
368,0.368001,1849,3463994,5360.93,-545.11,2717.21
369,0.369001,1850,3464994,4256.93,-153.11,1276.21
370,0.370001,1851,3465994,-18.069999999999993,-373.11,-457.78999999999996
371,0.371001,1852,3466994,-7835.07,-423.11,867.21
372,0.372001,1853,3467994,-17988.07,-988.11,2624.21
373,0.373001,1854,3468994,-18703.07,-682.11,2522.21
374,0.374001,1855,3469994,-15568.07,-34.11,1728.21
375,0.375001,1856,3470994,-6157.07,67.89,2073.21
376,0.376001,1857,3471994,4101.93,-242.11,1726.21
377,0.377001,1858,3472994,5939.93,-276.11,136.21000000000004
378,0.378001,1859,3473994,3189.93,968.89,-1459.79
379,0.379001,1860,3474994,1948.93,980.89,-2588.79
380,0.380001,1861,3475994,6350.93,474.89,-2534.79
381,0.381000,1862,3476993,8124.93,292.89,-1887.79
382,0.382001,1863,3477994,4505.93,-428.11,-1258.79
383,0.383001,1864,3478994,-3078.07,-97.11,-1981.79
384,0.384000,1865,3479993,-6185.07,701.89,-3491.79
385,0.385001,1866,3480994,2187.93,317.89,-4551.79
386,0.386000,1867,3481993,14403.93,-57.11,-4218.79
387,0.387001,1868,3482994,21448.93,-61.11,-1741.79
388,0.388001,1869,3483994,16173.93,249.89,-1183.79
389,0.389000,1870,3484993,2328.93,900.89,-1165.79
390,0.390001,1871,3485994,-7903.07,618.89,2222.21
391,0.391001,1872,3486994,-9747.07,-103.11,3893.21
392,0.392001,1873,3487994,-4200.07,-327.11,2631.21
393,0.393001,1874,3488994,2712.93,-915.11,2686.21
394,0.394001,1875,3489994,5412.93,-412.11,2385.21
395,0.395001,1876,3490994,2186.93,-37.11,291.21000000000004
396,0.396000,1877,3491993,-1812.07,-623.11,-20.789999999999964
397,0.397001,1878,3492994,-12443.07,-468.11,1289.21
398,0.398001,1879,3493994,-18463.07,-1067.11,2878.21
399,0.399000,1880,3494993,-18188.07,-415.11,2519.21
400,0.400001,1881,3495994,-13562.07,291.89,1586.21
401,0.401001,1882,3496994,-1283.07,60.89,2068.21
402,0.402000,1883,3497993,4744.93,-335.11,947.21
403,0.403000,1884,3498993,6136.93,-54.11,-263.78999999999996
404,0.404001,1885,3499994,3109.93,955.89,-1794.79
405,0.405001,1886,3500994,3344.93,851.89,-2883.79
406,0.406001,1887,3501994,7208.93,480.89,-2230.79
407,0.407001,1888,3502994,6882.93,-49.11,-1738.79
408,0.408001,1889,3503994,2102.93,-165.11,-1500.79
409,0.409001,1890,3504994,-5945.07,98.89,-2440.79
410,0.410001,1891,3505994,-3263.07,360.89,-3737.79
411,0.411001,1892,3506994,7638.93,326.89,-4697.79
412,0.412001,1893,3507994,17931.93,-221.11,-3396.79
413,0.413001,1894,3508994,21201.93,-50.11,-1104.79
414,0.414001,1895,3509994,10504.93,695.89,-1487.79
415,0.415001,1896,3510994,-2950.07,732.89,-33.789999999999964
416,0.416001,1897,3511994,-9900.07,467.89,3289.21
417,0.417000,1898,3512993,-7547.07,-125.11,3474.21
418,0.418000,1899,3513993,-999.0699999999999,-679.11,2519.21
419,0.419001,1900,3514994,4460.93,-617.11,2841.21
420,0.420000,1901,3515993,4825.93,-366.11,1478.21
421,0.421001,1902,3516994,471.93,-266.11,-362.78999999999996
422,0.422001,1903,3517994,-5883.07,-412.11,613.21
423,0.423001,1904,3518994,-15572.07,-1001.11,2439.21
424,0.424000,1905,3519993,-19293.07,-702.11,2510.21
425,0.425001,1906,3520994,-17305.07,-268.11,1742.21
426,0.426001,1907,3521994,-7589.07,-229.11,2273.21
427,0.427001,1908,3522994,2595.93,378.89,1526.21
428,0.428001,1909,3523994,5296.93,-41.11,257.21000000000004
429,0.429001,1910,3524994,4180.93,292.89,-656.79
430,0.430000,1911,3525993,2266.93,1124.89,-2472.79
431,0.431000,1912,3526993,5617.93,675.89,-2621.79
432,0.432001,1913,3527994,7574.93,211.89,-1979.79
433,0.433001,1914,3528994,5626.93,-13.11,-1578.79
434,0.434000,1915,3529993,-1646.07,-132.11,-1674.79
435,0.435000,1916,3530993,-6469.07,153.89,-3029.79
436,0.436001,1917,3531994,542.9300000000001,525.89,-4342.79
437,0.437001,1918,3532994,12113.93,133.89,-4524.79
438,0.438001,1919,3533994,21494.93,-274.11,-2167.79
439,0.439000,1920,3534993,18051.93,273.89,-1073.79
440,0.440001,1921,3535994,4444.93,841.89,-1504.79
441,0.441001,1922,3536994,-6680.07,589.89,1484.21
442,0.442001,1923,3537994,-10169.07,79.89,3918.21
443,0.443000,1924,3538993,-5162.07,-518.11,3051.21
444,0.444001,1925,3539994,1490.93,-767.11,2584.21
445,0.445001,1926,3540994,5394.93,-462.11,2614.21
446,0.446000,1927,3541993,3479.93,-248.11,710.21
447,0.447001,1928,3542994,-799.0699999999999,-192.11,-275.78999999999996
448,0.448001,1929,3543994,-10781.07,-441.11,1207.21
449,0.449001,1930,3544994,-18762.07,-1222.11,2675.21
450,0.450001,1931,3545994,-18432.07,-557.11,2564.21
451,0.451001,1932,3546994,-14791.07,210.89,1767.21
452,0.452001,1933,3547994,-3799.07,348.89,1863.21
453,0.453001,1934,3548994,4599.93,-279.11,1143.21
454,0.454001,1935,3549994,6533.93,-517.11,35.210000000000036
455,0.455001,1936,3550994,3449.93,1034.89,-1574.79
456,0.456001,1937,3551994,2702.93,1001.89,-2811.79
457,0.457001,1938,3552994,6864.93,438.89,-2464.79
458,0.458001,1939,3553994,7592.93,72.89,-1835.79
459,0.459001,1940,3554994,3110.93,-355.11,-1375.79
460,0.460001,1941,3555994,-5349.07,-110.11,-2325.79
461,0.461001,1942,3556994,-4392.07,401.89,-3520.79
462,0.462001,1943,3557994,6010.93,589.89,-4729.79
463,0.463001,1944,3558994,16940.93,-23.11,-3722.79
464,0.464000,1945,3559993,21541.93,-154.11,-1222.79
465,0.465001,1946,3560994,12550.93,563.89,-1469.79
466,0.466001,1947,3561994,-1384.07,780.89,-465.78999999999996
467,0.467001,1948,3562994,-9330.07,342.89,2925.21
468,0.468000,1949,3563993,-8522.07,61.89,3647.21
469,0.469001,1950,3564994,-1806.07,-650.11,2665.21
470,0.470001,1951,3565994,3962.93,-709.11,2871.21
471,0.471001,1952,3566994,4643.93,-195.11,1792.21
472,0.472001,1953,3567994,1479.93,-572.11,9.210000000000036
473,0.473001,1954,3568994,-4847.07,-326.11,344.21000000000004
474,0.474001,1955,3569994,-14113.07,-831.11,2017.21
475,0.475000,1956,3570993,-18470.07,-923.11,2774.21
476,0.476001,1957,3571994,-18781.07,215.89,1870.21
477,0.477001,1958,3572994,-9876.07,-99.11,2139.21
478,0.478000,1959,3573993,1797.93,-28.11,1732.21
479,0.479000,1960,3574993,5125.93,-158.11,303.21000000000004
480,0.480000,1961,3575993,4772.93,44.89,-409.78999999999996
481,0.481001,1962,3576994,2301.93,1165.89,-2352.79
482,0.482000,1963,3577993,4879.93,926.89,-2839.79
483,0.483001,1964,3578994,7903.93,151.89,-1996.79
484,0.484001,1965,3579994,6064.93,-228.11,-1516.79
485,0.485001,1966,3580994,84.93,-8.11,-1457.79
486,0.486001,1967,3581994,-6453.07,377.89,-2949.79
487,0.487001,1968,3582994,-1353.07,426.89,-4219.79
488,0.488001,1969,3583994,10434.93,108.89,-4522.79
489,0.489001,1970,3584994,19923.93,-319.11,-2710.79
490,0.490001,1971,3585994,19618.93,153.89,-1228.79
491,0.491001,1972,3586994,7236.93,631.89,-1492.79
492,0.492001,1973,3587994,-5659.07,753.89,845.21
493,0.493001,1974,3588994,-10467.07,365.89,3730.21
494,0.494001,1975,3589994,-6393.07,-398.11,3224.21
495,0.495001,1976,3590994,645.9300000000001,-639.11,2617.21
496,0.496001,1977,3591994,4988.93,-425.11,2661.21
497,0.497001,1978,3592994,4094.93,-230.11,978.21
498,0.498001,1979,3593994,321.93,-305.11,-163.78999999999996
499,0.499001,1980,3594994,-8688.07,-472.11,1031.21
500,0.500001,1981,3595994,-18361.07,-940.11,2610.21
501,0.501000,1982,3596993,-18733.07,-678.11,2513.21
502,0.502001,1983,3597994,-15469.07,-165.11,1761.21
503,0.503000,1984,3598993,-5331.07,-217.11,2175.21
504,0.504001,1985,3599994,4120.93,-31.11,1372.21
505,0.505001,1986,3600994,5961.93,149.89,-209.78999999999996
506,0.506001,1987,3601994,3692.93,713.89,-1396.79
507,0.507001,1988,3602994,2322.93,921.89,-2710.79
508,0.508001,1989,3603994,6749.93,525.89,-2464.79
509,0.509000,1990,3604993,7606.93,231.89,-1860.79
510,0.510001,1991,3605994,4080.93,-185.11,-1340.79
511,0.511001,1992,3606994,-3940.07,-112.11,-1946.79
512,0.512000,1993,3607993,-5438.07,307.89,-3374.79
513,0.513000,1994,3608993,4010.93,434.89,-4480.79
514,0.514000,1995,3609993,15488.93,35.89,-4101.79
515,0.515001,1996,3610994,21523.93,-251.11,-1540.79
516,0.516001,1997,3611994,14331.93,488.89,-1390.79
517,0.517001,1998,3612994,610.9300000000001,841.89,-1023.79
518,0.518001,1999,3613994,-8337.07,305.89,2534.21
519,0.519001,2000,3614994,-9418.07,85.89,3752.21
520,0.520001,2001,3615994,-3114.07,-531.11,2590.21
521,0.521000,2002,3616993,3698.93,-915.11,2690.21
522,0.522001,2003,3617994,5044.93,-334.11,2241.21
523,0.523001,2004,3618994,2252.93,-265.11,340.21000000000004
524,0.524000,2005,3619993,-3578.07,-293.11,25.210000000000036
525,0.525000,2006,3620993,-13022.07,-689.11,1587.21
526,0.526001,2007,3621994,-18243.07,-1036.11,2933.21
527,0.527000,2008,3622993,-18810.07,-83.11,2353.21
528,0.528001,2009,3623994,-11489.07,89.89,1950.21
529,0.529001,2010,3624994,514.9300000000001,-322.11,2119.21
530,0.530001,2011,3625994,4544.93,-232.11,761.21
531,0.531001,2012,3626994,4485.93,479.89,-608.79
532,0.532001,2013,3627994,2836.93,985.89,-2129.79
533,0.533001,2014,3628994,3954.93,816.89,-2945.79
534,0.534001,2015,3629994,7327.93,490.89,-2232.79
535,0.535000,2016,3630993,7284.93,-418.11,-1389.79
536,0.536001,2017,3631994,1198.93,-348.11,-1472.79
537,0.537001,2018,3632994,-6692.07,523.89,-2990.79
538,0.538001,2019,3633994,-2204.07,360.89,-3856.79
539,0.539001,2020,3634994,8590.93,354.89,-4615.79
540,0.540001,2021,3635994,18794.93,-153.11,-3221.79
541,0.541000,2022,3636993,21058.93,-257.11,-1131.79
542,0.542001,2023,3637994,8976.93,886.89,-1496.79
543,0.543000,2024,3638993,-3609.07,706.89,548.21
544,0.544000,2025,3639993,-10241.07,165.89,3572.21
545,0.545001,2026,3640994,-7980.07,26.89,3401.21
546,0.546000,2027,3641993,-311.07,-839.11,2557.21
547,0.547001,2028,3642994,5140.93,-553.11,2696.21
548,0.548001,2029,3643994,4533.93,-151.11,1378.21
549,0.549000,2030,3644993,383.93,-521.11,-273.78999999999996
550,0.550001,2031,3645994,-6529.07,-391.11,670.21
551,0.551001,2032,3646994,-17047.07,-926.11,2393.21
552,0.552001,2033,3647994,-19217.07,-790.11,2592.21
553,0.553001,2034,3648994,-16263.07,-46.11,1917.21
554,0.554001,2035,3649994,-7479.07,72.89,1982.21
555,0.555001,2036,3650994,3283.93,42.89,1310.21
556,0.556000,2037,3651993,6299.93,-239.11,280.21000000000004
557,0.557000,2038,3652993,3900.93,587.89,-911.79
558,0.558001,2039,3653994,2007.93,1090.89,-2616.79
559,0.559001,2040,3654994,6199.93,487.89,-2660.79
560,0.560001,2041,3655994,7760.93,295.89,-1843.79
561,0.561000,2042,3656993,4774.93,-245.11,-1311.79
562,0.562000,2043,3657993,-2382.07,-0.10999999999999943,-2019.79
563,0.563001,2044,3658994,-6232.07,493.89,-3255.79
564,0.564001,2045,3659994,1946.93,138.89,-4256.79
565,0.565001,2046,3660994,13601.93,-63.11,-4411.79
566,0.566001,2047,3661994,21124.93,-95.11,-2035.79
567,0.567000,2048,3662993,16716.93,172.89,-1192.79
568,0.568001,2049,3663994,2948.93,827.89,-1375.79
569,0.569001,2050,3664994,-7469.07,723.89,1930.21
570,0.570000,2051,3665993,-9467.07,-124.11,3927.21
571,0.571001,2052,3666994,-4555.07,-209.11,2658.21
572,0.572001,2053,3667994,2603.93,-828.11,2767.21
573,0.573001,2054,3668994,5476.93,-592.11,2615.21
574,0.574001,2055,3669994,2242.93,85.89,335.21000000000004
575,0.575001,2056,3670994,-1308.07,-572.11,-116.78999999999996
576,0.576001,2057,3671994,-12072.07,-450.11,1387.21
577,0.577001,2058,3672994,-18753.07,-951.11,2847.21
578,0.578000,2059,3673993,-17777.07,-572.11,2468.21
579,0.579001,2060,3674994,-13691.07,41.89,1832.21
580,0.580000,2061,3675993,-2024.07,-212.11,2365.21
581,0.581000,2062,3676993,4355.93,-46.11,840.21
582,0.582001,2063,3677994,5545.93,289.89,-519.79
583,0.583000,2064,3678993,3460.93,876.89,-1771.79
584,0.584001,2065,3679994,3024.93,964.89,-2930.79
585,0.585001,2066,3680994,7220.93,434.89,-2309.79
586,0.586001,2067,3681994,7481.93,-57.11,-1782.79
587,0.587001,2068,3682994,2378.93,-139.11,-1438.79
588,0.588001,2069,3683994,-5692.07,77.89,-2369.79
589,0.589001,2070,3684994,-3769.07,480.89,-3651.79
590,0.590001,2071,3685994,6860.93,319.89,-4500.79
591,0.591001,2072,3686994,17682.93,-355.11,-3426.79
592,0.592001,2073,3687994,21445.93,-139.11,-1231.79
593,0.593001,2074,3688994,11506.93,551.89,-1558.79
594,0.594001,2075,3689994,-2530.07,993.89,-395.78999999999996
595,0.595001,2076,3690994,-9980.07,422.89,3201.21
596,0.596001,2077,3691994,-8131.07,-204.11,3624.21
597,0.597001,2078,3692994,-1509.07,-463.11,2547.21
598,0.598000,2079,3693993,4728.93,-992.11,2844.21
599,0.599000,2080,3694993,5009.93,-102.11,1520.21
600,0.600001,2081,3695994,418.93,-93.11,-152.78999999999996
601,0.601001,2082,3696994,-4983.07,-632.11,607.21
602,0.602001,2083,3697994,-15093.07,-784.11,2160.21
603,0.603001,2084,3698994,-19340.07,-818.11,2753.21
604,0.604001,2085,3699994,-17722.07,-106.11,2024.21
605,0.605001,2086,3700994,-8755.07,-153.11,2151.21
606,0.606001,2087,3701994,2724.93,-153.11,1888.21
607,0.607001,2088,3702994,5147.93,22.89,135.21000000000004
608,0.608000,2089,3703993,4243.93,464.89,-901.79
609,0.609001,2090,3704994,2099.93,1068.89,-2471.79
610,0.610001,2091,3705994,5309.93,713.89,-2767.79
611,0.611001,2092,3706994,7465.93,230.89,-2000.79
612,0.612001,2093,3707994,5908.93,-10.11,-1591.79
613,0.613001,2094,3708994,-1070.07,-247.11,-1604.79
614,0.614001,2095,3709994,-6705.07,134.89,-3159.79
615,0.615001,2096,3710994,482.93,626.89,-4232.79
616,0.616001,2097,3711994,12056.93,68.89,-4377.79
617,0.617001,2098,3712994,20976.93,-337.11,-2402.79
618,0.618001,2099,3713994,18370.93,148.89,-1111.79
619,0.619001,2100,3714994,5284.93,683.89,-1516.79
620,0.620001,2101,3715994,-6683.07,864.89,1252.21
621,0.621001,2102,3716994,-10240.07,318.89,3893.21
622,0.622001,2103,3717994,-5119.07,-496.11,3078.21
623,0.623001,2104,3718994,1220.93,-700.11,2492.21
624,0.624001,2105,3719994,5306.93,-481.11,2700.21
625,0.625001,2106,3720994,3394.93,-227.11,639.21
626,0.626001,2107,3721994,-758.0699999999999,-216.11,-398.78999999999996
627,0.627000,2108,3722993,-10622.07,-526.11,1284.21
628,0.628001,2109,3723994,-19085.07,-1158.11,2594.21
629,0.629000,2110,3724993,-18194.07,-489.11,2593.21
630,0.630001,2111,3725994,-14748.07,67.89,1842.21
631,0.631001,2112,3726994,-3918.07,306.89,1951.21
632,0.632000,2113,3727993,4766.93,-126.11,1302.21
633,0.633001,2114,3728994,6283.93,-452.11,115.21000000000004
634,0.634001,2115,3729994,3235.93,971.89,-1461.79
635,0.635001,2116,3730994,2694.93,947.89,-2924.79
636,0.636000,2117,3731993,6978.93,459.89,-2590.79
637,0.637001,2118,3732994,7758.93,107.89,-1791.79
638,0.638001,2119,3733994,3375.93,-277.11,-1412.79
639,0.639001,2120,3734994,-5175.07,54.89,-2286.79
640,0.640000,2121,3735993,-4863.07,455.89,-3510.79
641,0.641001,2122,3736994,5461.93,300.89,-4607.79
642,0.642001,2123,3737994,16704.93,-157.11,-3793.79
643,0.643001,2124,3738994,21801.93,-196.11,-1349.79
644,0.644000,2125,3739993,13219.93,497.89,-1443.79
645,0.645001,2126,3740994,-870.0699999999999,927.89,-652.79
646,0.646001,2127,3741994,-9641.07,537.89,2846.21
647,0.647001,2128,3742994,-8798.07,-227.11,3764.21
648,0.648001,2129,3743994,-2270.07,-540.11,2454.21
649,0.649001,2130,3744994,3950.93,-628.11,2878.21
650,0.650001,2131,3745994,5723.93,-536.11,2274.21
651,0.651001,2132,3746994,1057.93,-138.11,-205.78999999999996
652,0.652001,2133,3747994,-4673.07,-303.11,164.21000000000004
653,0.653001,2134,3748994,-13572.07,-1043.11,2211.21
654,0.654001,2135,3749994,-19001.07,-726.11,2856.21
655,0.655001,2136,3750994,-18831.07,-67.11,2039.21
656,0.656001,2137,3751994,-10027.07,-326.11,1987.21
657,0.657000,2138,3752993,1373.93,39.89,1944.21
658,0.658001,2139,3753994,4951.93,-107.11,411.21000000000004
659,0.659000,2140,3754993,4622.93,434.89,-761.79
660,0.660001,2141,3755994,2418.93,1019.89,-2200.79
661,0.661001,2142,3756994,4939.93,555.89,-2891.79
662,0.662001,2143,3757994,7482.93,518.89,-2160.79
663,0.663001,2144,3758994,6459.93,-166.11,-1433.79
664,0.664001,2145,3759994,237.93,-289.11,-1587.79
665,0.665001,2146,3760994,-6738.07,412.89,-3081.79
666,0.666000,2147,3761993,-777.0699999999999,330.89,-3989.79
667,0.667001,2148,3762994,10568.93,290.89,-4530.79
668,0.668000,2149,3763993,20290.93,-282.11,-2653.79
669,0.669001,2150,3764994,20116.93,-124.11,-1086.79
670,0.670001,2151,3765994,6549.93,948.89,-1668.79
671,0.671000,2152,3766993,-5519.07,785.89,1025.21
672,0.672000,2153,3767993,-10226.07,69.89,3708.21
673,0.673000,2154,3768993,-6890.07,-193.11,3005.21
674,0.674000,2155,3769993,913.9300000000001,-801.11,2612.21
675,0.675001,2156,3770994,5236.93,-646.11,2626.21
676,0.676001,2157,3771994,3416.93,5.890000000000001,967.21
677,0.677000,2158,3772993,290.93,-542.11,-207.78999999999996
678,0.678001,2159,3773994,-9013.07,-363.11,953.21
679,0.679001,2160,3774994,-18978.07,-854.11,2672.21
680,0.680001,2161,3775994,-18344.07,-885.11,2610.21
681,0.681000,2162,3776993,-15250.07,161.89,1877.21
682,0.682000,2163,3777993,-5036.07,172.89,2314.21
683,0.683001,2164,3778994,4454.93,-234.11,1479.21
684,0.684001,2165,3779994,5935.93,-73.11,-104.78999999999996
685,0.685001,2166,3780994,3514.93,680.89,-1418.79
686,0.686001,2167,3781994,2426.93,916.89,-2784.79
687,0.687001,2168,3782994,6523.93,627.89,-2589.79
688,0.688001,2169,3783994,7667.93,83.89,-1988.79
689,0.689001,2170,3784994,4203.93,-250.11,-1497.79
690,0.690001,2171,3785994,-4295.07,-71.11,-2006.79
691,0.691001,2172,3786994,-5777.07,399.89,-3393.79
692,0.692000,2173,3787993,4195.93,513.89,-4654.79
693,0.693000,2174,3788993,16319.93,-267.11,-3893.79
694,0.694000,2175,3789993,21823.93,-334.11,-1416.79
695,0.695000,2176,3790993,14446.93,618.89,-1487.79
696,0.696000,2177,3791993,424.93,938.89,-1010.79
697,0.697001,2178,3792994,-8970.07,503.89,2559.21
698,0.698001,2179,3793994,-9295.07,27.89,3846.21
699,0.699001,2180,3794994,-2966.07,-515.11,2675.21
700,0.700001,2181,3795994,3724.93,-748.11,2798.21
701,0.701000,2182,3796993,5170.93,-250.11,2130.21
702,0.702000,2183,3797993,2036.93,-273.11,147.21000000000004
703,0.703001,2184,3798994,-3818.07,-383.11,181.21000000000004
704,0.704000,2185,3799993,-13100.07,-977.11,1841.21
705,0.705001,2186,3800994,-18543.07,-993.11,2763.21
706,0.706001,2187,3801994,-19513.07,122.89,1961.21
707,0.707001,2188,3802994,-11283.07,-257.11,2089.21
708,0.708001,2189,3803994,800.9300000000001,-153.11,2234.21
709,0.709001,2190,3804994,4773.93,16.89,448.21000000000004
710,0.710000,2191,3805993,4997.93,268.89,-510.78999999999996
711,0.711001,2192,3806994,2786.93,1036.89,-2015.79
712,0.712001,2193,3807994,4214.93,788.89,-2987.79
713,0.713001,2194,3808994,7444.93,495.89,-2226.79
714,0.714000,2195,3809993,6883.93,-141.11,-1537.79
715,0.715000,2196,3810993,821.9300000000001,-333.11,-1508.79
716,0.716000,2197,3811993,-6480.07,397.89,-2846.79
717,0.717001,2198,3812994,-1813.07,513.89,-3978.79
718,0.718001,2199,3813994,9142.93,247.89,-4633.79
719,0.719001,2200,3814994,19676.93,-526.11,-2845.79
720,0.720001,2201,3815994,21180.93,-317.11,-1063.79
721,0.721000,2202,3816993,7972.93,1107.89,-1873.79
722,0.722000,2203,3817993,-4461.07,842.89,593.21
723,0.723001,2204,3818994,-10466.07,147.89,3707.21
724,0.724001,2205,3819994,-7460.07,-82.11,3173.21
725,0.725001,2206,3820994,361.93,-911.11,2510.21
726,0.726001,2207,3821994,4715.93,-588.11,2744.21
727,0.727000,2208,3822993,4573.93,-155.11,1452.21
728,0.728001,2209,3823994,79.93,-469.11,-394.78999999999996
729,0.729001,2210,3824994,-7768.07,-243.11,710.21
730,0.730001,2211,3825994,-17970.07,-937.11,2796.21
731,0.731001,2212,3826994,-19059.07,-873.11,2691.21
732,0.732001,2213,3827994,-15772.07,56.89,1740.21
733,0.733001,2214,3828994,-6748.07,422.89,1947.21
734,0.734001,2215,3829994,3853.93,-46.11,1523.21
735,0.735000,2216,3830993,6044.93,-383.11,241.21000000000004
736,0.736001,2217,3831994,3915.93,539.89,-1020.79
737,0.737000,2218,3832993,2097.93,1049.89,-2738.79
738,0.738001,2219,3833994,6662.93,568.89,-2676.79
739,0.739001,2220,3834994,7769.93,-79.11,-1922.79
740,0.740001,2221,3835994,4535.93,-225.11,-1521.79
741,0.741000,2222,3836993,-3408.07,-20.11,-1972.79
742,0.742001,2223,3837994,-6360.07,482.89,-3553.79
743,0.743001,2224,3838994,3351.93,439.89,-4582.79
744,0.744001,2225,3839994,15246.93,-260.11,-4061.79
745,0.745001,2226,3840994,21977.93,-207.11,-1630.79
746,0.746001,2227,3841994,15878.93,654.89,-1338.79
747,0.747001,2228,3842994,1357.93,1041.89,-1321.79
748,0.748001,2229,3843994,-8353.07,480.89,2429.21
749,0.749000,2230,3844993,-9575.07,-194.11,3991.21
750,0.750001,2231,3845994,-4190.07,-294.11,2434.21
751,0.751001,2232,3846994,3278.93,-824.11,2706.21
752,0.752001,2233,3847994,5659.93,-614.11,2554.21
753,0.753001,2234,3848994,2049.93,81.89,332.21000000000004
754,0.754001,2235,3849994,-2687.07,-494.11,-32.789999999999964
755,0.755001,2236,3850994,-12854.07,-837.11,1574.21
756,0.756000,2237,3851993,-19131.07,-885.11,2738.21
757,0.757001,2238,3852994,-18936.07,-358.11,2308.21
758,0.758001,2239,3853994,-12748.07,37.89,1826.21
759,0.759000,2240,3854993,-127.07,-25.11,2187.21
760,0.760001,2241,3855994,4921.93,-240.11,799.21
761,0.761001,2242,3856994,5700.93,308.89,-452.78999999999996
762,0.762001,2243,3857994,3067.93,1065.89,-1884.79
763,0.763001,2244,3858994,3577.93,796.89,-3012.79
764,0.764000,2245,3859993,7568.93,363.89,-2252.79
765,0.765001,2246,3860994,6649.93,-58.11,-1602.79
766,0.766000,2247,3861993,1702.93,-314.11,-1538.79
767,0.767001,2248,3862994,-6131.07,142.89,-2892.79
768,0.768001,2249,3863994,-2725.07,398.89,-3820.79
769,0.769000,2250,3864993,8596.93,247.89,-4586.79
770,0.770000,2251,3865993,18635.93,-61.11,-3422.79
771,0.771001,2252,3866994,21276.93,-112.11,-1141.79
772,0.772001,2253,3867994,9695.93,546.89,-1503.79
773,0.773001,2254,3868994,-4023.07,876.89,119.21000000000004
774,0.774001,2255,3869994,-10073.07,476.89,3522.21
775,0.775001,2256,3870994,-7635.07,-376.11,3525.21
776,0.776000,2257,3871993,-758.0699999999999,-552.11,2474.21
777,0.777001,2258,3872994,4894.93,-613.11,2823.21
778,0.778001,2259,3873994,4514.93,-352.11,1604.21
779,0.779000,2260,3874993,-143.07,-78.11,-188.78999999999996
780,0.780001,2261,3875994,-6253.07,-534.11,716.21
781,0.781001,2262,3876994,-16437.07,-873.11,2530.21
782,0.782001,2263,3877994,-19487.07,-592.11,2631.21
783,0.783001,2264,3878994,-16378.07,-307.11,1808.21
784,0.784001,2265,3879994,-7450.07,75.89,2094.21
785,0.785000,2266,3880993,3243.93,45.89,1680.21
786,0.786001,2267,3881994,5757.93,-342.11,44.210000000000036
787,0.787001,2268,3882994,3849.93,693.89,-1090.79
788,0.788001,2269,3883994,2660.93,939.89,-2502.79
789,0.789000,2270,3884993,5982.93,641.89,-2824.79
790,0.790000,2271,3885993,7775.93,326.89,-2044.79
791,0.791001,2272,3886994,5346.93,-377.11,-1408.79
792,0.792001,2273,3887994,-2880.07,18.89,-1734.79
793,0.793001,2274,3888994,-6458.07,331.89,-3264.79
794,0.794000,2275,3889993,1792.93,470.89,-4487.79
795,0.795001,2276,3890994,13480.93,140.89,-4177.79
796,0.796001,2277,3891994,21586.93,-569.11,-1798.79
797,0.797000,2278,3892993,16963.93,416.89,-1349.79
798,0.798001,2279,3893994,3179.93,1061.89,-1377.79
799,0.799001,2280,3894994,-7352.07,336.89,2033.21
800,0.800001,2281,3895994,-10155.07,152.89,3768.21
801,0.801000,2282,3896993,-4605.07,-255.11,2677.21
802,0.802001,2283,3897994,2547.93,-1021.11,2665.21
803,0.803001,2284,3898994,5195.93,-366.11,2432.21
804,0.804000,2285,3899993,2950.93,58.89,448.21000000000004
805,0.805000,2286,3900993,-1199.07,-546.11,-21.789999999999964
806,0.806001,2287,3901994,-12548.07,-510.11,1476.21
807,0.807001,2288,3902994,-18763.07,-990.11,2696.21
808,0.808001,2289,3903994,-18084.07,-513.11,2369.21
809,0.809001,2290,3904994,-13754.07,62.89,2102.21
810,0.810001,2291,3905994,-1542.07,47.89,2427.21
811,0.811001,2292,3906994,4517.93,-43.11,830.21
812,0.812001,2293,3907994,5729.93,-35.11,-369.78999999999996
813,0.813000,2294,3908993,3047.93,847.89,-1662.79
814,0.814000,2295,3909993,2595.93,1140.89,-2982.79
815,0.815001,2296,3910994,7489.93,266.89,-2313.79
816,0.816001,2297,3911994,7443.93,-79.11,-1849.79
817,0.817001,2298,3912994,2769.93,-59.11,-1488.79
818,0.818001,2299,3913994,-5149.07,-224.11,-2243.79
819,0.819000,2300,3914993,-4479.07,524.89,-3784.79
820,0.820001,2301,3915994,6413.93,496.89,-4638.79
821,0.821001,2302,3916994,17512.93,-440.11,-3533.79
822,0.822001,2303,3917994,21291.93,-43.11,-1431.79
823,0.823001,2304,3918994,12304.93,579.89,-1269.79
824,0.824001,2305,3919994,-2008.07,879.89,-263.78999999999996
825,0.825001,2306,3920994,-10058.07,686.89,3123.21
826,0.826001,2307,3921994,-8251.07,-535.11,3959.21
827,0.827001,2308,3922994,-2108.07,-360.11,2432.21
828,0.828001,2309,3923994,4545.93,-570.11,2847.21
829,0.829001,2310,3924994,5040.93,-730.11,1804.21
830,0.830001,2311,3925994,598.9300000000001,10.89,-311.78999999999996
831,0.831001,2312,3926994,-4784.07,-407.11,443.21000000000004
832,0.832000,2313,3927993,-14656.07,-1073.11,2129.21
833,0.833001,2314,3928994,-19251.07,-609.11,2768.21
834,0.834001,2315,3929994,-17685.07,-191.11,2062.21
835,0.835001,2316,3930994,-8840.07,-229.11,2162.21
836,0.836000,2317,3931993,1854.93,124.89,1623.21
837,0.837001,2318,3932994,5164.93,-156.11,-33.789999999999964
838,0.838001,2319,3933994,4427.93,566.89,-710.79
839,0.839001,2320,3934994,2586.93,931.89,-2182.79
840,0.840000,2321,3935993,5169.93,678.89,-2836.79
841,0.841000,2322,3936993,7604.93,472.89,-1979.79
842,0.842000,2323,3937993,6351.93,-307.11,-1286.79
843,0.843001,2324,3938994,-905.0699999999999,15.89,-1518.79
844,0.844000,2325,3939993,-6769.07,321.89,-3040.79
845,0.845001,2326,3940994,-282.07,358.89,-4213.79
846,0.846001,2327,3941994,11351.93,199.89,-4479.79
847,0.847000,2328,3942993,20837.93,-521.11,-2382.79
848,0.848001,2329,3943994,18990.93,35.89,-1058.79
849,0.849000,2330,3944993,5257.93,921.89,-1721.79
850,0.850001,2331,3945994,-6313.07,708.89,1103.21
851,0.851001,2332,3946994,-10141.07,107.89,3845.21
852,0.852001,2333,3947994,-6060.07,-195.11,2789.21
853,0.853001,2334,3948994,1706.93,-774.11,2565.21
854,0.854001,2335,3949994,5560.93,-590.11,2868.21
855,0.855001,2336,3950994,3031.93,-19.11,783.21
856,0.856001,2337,3951994,-238.07,-509.11,-306.78999999999996
857,0.857000,2338,3952993,-10433.07,-246.11,1188.21
858,0.858000,2339,3953993,-18894.07,-899.11,2932.21
859,0.859001,2340,3954994,-17441.07,-808.11,2646.21
860,0.860001,2341,3955994,-14643.07,-3.1099999999999994,1677.21
861,0.861001,2342,3956994,-4059.07,126.89,2247.21
862,0.862001,2343,3957994,4130.93,-72.11,1418.21
863,0.863001,2344,3958994,5550.93,-122.11,-354.78999999999996
864,0.864001,2345,3959994,3313.93,705.89,-1655.79
865,0.865001,2346,3960994,1990.93,985.89,-2821.79
866,0.866001,2347,3961994,7444.93,440.89,-2475.79
867,0.867001,2348,3962994,8119.93,147.89,-1857.79
868,0.868001,2349,3963994,3722.93,-60.11,-1460.79
869,0.869001,2350,3964994,-4420.07,-221.11,-2080.79
870,0.870001,2351,3965994,-5812.07,538.89,-3391.79
871,0.871001,2352,3966994,4750.93,266.89,-4353.79
872,0.872001,2353,3967994,16118.93,-186.11,-3768.79
873,0.873001,2354,3968994,21653.93,-35.11,-1425.79
874,0.874001,2355,3969994,14318.93,570.89,-1408.79
875,0.875001,2356,3970994,-27.069999999999993,1020.89,-814.79
876,0.876001,2357,3971994,-9311.07,278.89,2647.21
877,0.877000,2358,3972993,-9482.07,-246.11,3660.21
878,0.878001,2359,3973994,-3032.07,-422.11,2476.21
879,0.879001,2360,3974994,3796.93,-707.11,2723.21
880,0.880001,2361,3975994,5387.93,-491.11,2180.21
881,0.881001,2362,3976994,2066.93,-177.11,102.21000000000004
882,0.882001,2363,3977994,-3609.07,-230.11,123.21000000000004
883,0.883001,2364,3978994,-13900.07,-881.11,1941.21
884,0.884001,2365,3979994,-18358.07,-866.11,2956.21
885,0.885001,2366,3980994,-18676.07,-135.11,2077.21
886,0.886001,2367,3981994,-11034.07,-143.11,2007.21
887,0.887001,2368,3982994,943.9300000000001,96.89,1956.21
888,0.888001,2369,3983994,4897.93,-111.11,446.21000000000004
889,0.889000,2370,3984993,5059.93,109.89,-427.78999999999996
890,0.890001,2371,3985994,2105.93,978.89,-2273.79
891,0.891001,2372,3986994,4593.93,871.89,-3005.79
892,0.892000,2373,3987993,7365.93,397.89,-2088.79
893,0.893000,2374,3988993,6533.93,-201.11,-1567.79
894,0.894001,2375,3989994,1002.9300000000001,-192.11,-1392.79
895,0.895001,2376,3990994,-6463.07,204.89,-2822.79
896,0.896000,2377,3991993,-1751.07,337.89,-4021.79
897,0.897001,2378,3992994,9156.93,429.89,-4484.79
898,0.898001,2379,3993994,19810.93,-307.11,-2748.79
899,0.899001,2380,3994994,20423.93,-148.11,-1067.79
900,0.900000,2381,3995993,8226.93,661.89,-1654.79
901,0.901001,2382,3996994,-4525.07,738.89,488.21000000000004
902,0.902001,2383,3997994,-10646.07,496.89,3585.21
903,0.903001,2384,3998994,-7049.07,-355.11,3353.21
904,0.904000,2385,3999993,-65.07,-743.11,2364.21
905,0.905001,2386,4000994,5219.93,-605.11,2769.21
906,0.906001,2387,4001994,4184.93,-383.11,1340.21
907,0.907000,2388,4002993,-255.07,-115.11,-480.78999999999996
908,0.908001,2389,4003994,-7442.07,-439.11,842.21
909,0.909000,2390,4004993,-17092.07,-1065.11,2773.21
910,0.910001,2391,4005994,-18862.07,-560.11,2517.21
911,0.911001,2392,4006994,-15466.07,-179.11,1697.21
912,0.912001,2393,4007994,-6039.07,-97.11,2251.21
913,0.913001,2394,4008994,3348.93,200.89,1635.21
914,0.914001,2395,4009994,5412.93,-134.11,4.210000000000036
915,0.915000,2396,4010993,3420.93,476.89,-1265.79
916,0.916001,2397,4011994,2415.93,996.89,-2623.79
917,0.917001,2398,4012994,6273.93,677.89,-2639.79
918,0.918000,2399,4013993,8018.93,216.89,-1963.79
919,0.919001,2400,4014994,4726.93,-402.11,-1383.79
920,0.920001,2401,4015994,-3026.07,-130.11,-1822.79
921,0.921001,2402,4016994,-6120.07,465.89,-3290.79
922,0.922001,2403,4017994,1780.93,496.89,-4361.79
923,0.923001,2404,4018994,14102.93,70.89,-4208.79
924,0.924001,2405,4019994,21954.93,-261.11,-1834.79
925,0.925000,2406,4020993,16335.93,316.89,-1076.79
926,0.926000,2407,4021993,2529.93,932.89,-1190.79
927,0.927001,2408,4022994,-8227.07,635.89,1775.21
928,0.928001,2409,4023994,-10097.07,-59.11,3788.21
929,0.929001,2410,4024994,-3976.07,-491.11,2753.21
930,0.930001,2411,4025994,2738.93,-787.11,2707.21
931,0.931001,2412,4026994,5540.93,-562.11,2462.21
932,0.932001,2413,4027994,2712.93,-70.11,251.21000000000004
933,0.933001,2414,4028994,-1785.07,-305.11,-16.789999999999964
934,0.934001,2415,4029994,-12421.07,-765.11,1532.21
935,0.935001,2416,4030994,-18950.07,-1001.11,2643.21
936,0.936001,2417,4031994,-18540.07,-272.11,2311.21
937,0.937001,2418,4032994,-12612.07,-235.11,2140.21
938,0.938001,2419,4033994,-824.0699999999999,77.89,2145.21
939,0.939001,2420,4034994,4277.93,70.89,603.21
940,0.940001,2421,4035994,5762.93,-153.11,-352.78999999999996
941,0.941000,2422,4036993,2697.93,1045.89,-1797.79
942,0.942001,2423,4037994,2988.93,1011.89,-2958.79
943,0.943001,2424,4038994,7263.93,248.89,-2136.79
944,0.944000,2425,4039993,7265.93,-215.11,-1528.79
945,0.945001,2426,4040994,2805.93,-40.11,-1657.79
946,0.946001,2427,4041994,-5801.07,401.89,-2417.79
947,0.947001,2428,4042994,-3678.07,181.89,-3464.79
948,0.948001,2429,4043994,6856.93,365.89,-4858.79
949,0.949001,2430,4044994,17332.93,101.89,-3512.79
950,0.950001,2431,4045994,21343.93,-198.11,-1038.79
951,0.951001,2432,4046994,11425.93,753.89,-1441.79
952,0.952001,2433,4047994,-2075.07,679.89,-142.78999999999996
953,0.953001,2434,4048994,-9856.07,143.89,3164.21
954,0.954001,2435,4049994,-8383.07,-26.11,3546.21
955,0.955000,2436,4050993,-1431.07,-603.11,2638.21
956,0.956000,2437,4051993,4278.93,-710.11,2774.21
957,0.957000,2438,4052993,4479.93,-248.11,1420.21
958,0.958000,2439,4053993,784.9300000000001,-291.11,-260.78999999999996
959,0.959000,2440,4054993,-5356.07,-361.11,549.21
960,0.960000,2441,4055993,-14936.07,-944.11,2400.21
961,0.961001,2442,4056994,-18524.07,-869.11,2736.21
962,0.962001,2443,4057994,-17822.07,33.89,1735.21
963,0.963000,2444,4058993,-9097.07,229.89,2086.21
964,0.964000,2445,4059993,2509.93,-21.11,1815.21
965,0.965000,2446,4060993,5836.93,-380.11,192.21000000000004
966,0.966000,2447,4061993,4158.93,372.89,-667.79
967,0.967001,2448,4062994,2356.93,925.89,-2212.79
968,0.968001,2449,4063994,5632.93,694.89,-2881.79
969,0.969001,2450,4064994,7457.93,436.89,-2178.79
970,0.970001,2451,4065994,5679.93,-316.11,-1405.79
971,0.971001,2452,4066994,-1184.07,-328.11,-1667.79
972,0.972000,2453,4067993,-6434.07,505.89,-3222.79
973,0.973001,2454,4068994,-59.06999999999999,522.89,-4115.79
974,0.974001,2455,4069994,11521.93,112.89,-4365.79
975,0.975001,2456,4070994,20678.93,-387.11,-2431.79
976,0.976001,2457,4071994,18555.93,162.89,-1048.79
977,0.977001,2458,4072994,5786.93,906.89,-1270.79
978,0.978001,2459,4073994,-6764.07,797.89,1207.21
979,0.979001,2460,4074994,-10000.07,43.89,3864.21
980,0.980001,2461,4075994,-5612.07,-546.11,2908.21
981,0.981001,2462,4076994,1155.93,-430.11,2507.21
982,0.982000,2463,4077993,5767.93,-628.11,2750.21
983,0.983001,2464,4078994,3400.93,-228.11,543.21
984,0.984001,2465,4079994,-504.07,-287.11,-202.78999999999996
985,0.985001,2466,4080994,-10447.07,-725.11,1250.21
986,0.986001,2467,4081994,-18856.07,-784.11,2542.21
987,0.987001,2468,4082994,-18379.07,-643.11,2335.21
988,0.988001,2469,4083994,-14582.07,-118.11,1784.21
989,0.989000,2470,4084993,-3564.07,302.89,2312.21
990,0.990001,2471,4085994,4785.93,-339.11,1317.21
991,0.991001,2472,4086994,5930.93,-172.11,-328.78999999999996
992,0.992001,2473,4087994,2714.93,1109.89,-1531.79
993,0.993000,2474,4088993,2689.93,823.89,-2576.79
994,0.994001,2475,4089994,6815.93,418.89,-2489.79
995,0.995001,2476,4090994,7537.93,310.89,-1876.79
996,0.996001,2477,4091994,4245.93,-306.11,-1228.79
997,0.997001,2478,4092994,-4691.07,-84.11,-2238.79
998,0.998001,2479,4093994,-5479.07,574.89,-3671.79
999,0.999001,2480,4094994,4790.93,214.89,-4363.79
1000,1.000001,2481,4095994,16142.93,190.89,-4053.79
1001,1.001001,2482,4096994,21346.93,-39.11,-1545.79
1002,1.002001,2483,4097994,14452.93,-184.11,-868.79
1003,1.003001,2484,4098994,19.930000000000007,1069.89,-738.79
1004,1.004001,2485,4099994,-9352.07,603.89,2514.21
1005,1.005001,2486,4100994,-9424.07,-404.11,3773.21
1006,1.006001,2487,4101994,-3290.07,-150.11,2477.21
1007,1.007000,2488,4102993,3705.93,-802.11,2576.21
1008,1.008000,2489,4103993,5330.93,-593.11,2183.21
1009,1.009001,2490,4104994,1697.93,-40.11,334.21000000000004
1010,1.010001,2491,4105994,-3561.07,-419.11,228.21000000000004
1011,1.011001,2492,4106994,-13070.07,-900.11,1927.21
1012,1.012001,2493,4107994,-18906.07,-891.11,2974.21
1013,1.013001,2494,4108994,-18701.07,-5.109999999999999,2015.21
1014,1.014001,2495,4109994,-10997.07,104.89,1800.21
1015,1.015001,2496,4110994,1132.93,-197.11,1923.21
1016,1.016001,2497,4111994,4916.93,-285.11,407.21000000000004
1017,1.017001,2498,4112994,4868.93,257.89,-592.79
1018,1.018001,2499,4113994,2834.93,856.89,-2303.79
1019,1.019001,2500,4114994,4038.93,967.89,-3076.79
1020,1.020001,2501,4115994,7426.93,472.89,-2094.79
1021,1.021001,2502,4116994,6581.93,-160.11,-1642.79
1022,1.022000,2503,4117993,1020.9300000000001,-201.11,-1567.79
1023,1.023001,2504,4118994,-6482.07,140.89,-2588.79
1024,1.024001,2505,4119994,-1632.07,464.89,-3668.79
1025,1.025001,2506,4120994,9540.93,445.89,-4609.79
1026,1.026000,2507,4121993,18813.93,-175.11,-3055.79
1027,1.027000,2508,4122993,20432.93,-111.11,-612.79
1028,1.028001,2509,4123994,8652.93,628.89,-1310.79
1029,1.029001,2510,4124994,-4805.07,833.89,229.21000000000004
1030,1.030001,2511,4125994,-10913.07,299.89,3642.21
1031,1.031001,2512,4126994,-6926.07,-546.11,3223.21
1032,1.032001,2513,4127994,364.93,-469.11,2066.21
1033,1.033001,2514,4128994,5444.93,-764.11,2781.21
1034,1.034001,2515,4129994,4193.93,-493.11,1338.21
1035,1.035001,2516,4130994,-299.07,160.89,-597.79
1036,1.036001,2517,4131994,-8082.07,-630.11,881.21
1037,1.037001,2518,4132994,-17721.07,-974.11,2766.21
1038,1.038001,2519,4133994,-18503.07,-476.11,2692.21
1039,1.039001,2520,4134994,-15044.07,-290.11,1892.21
1040,1.040001,2521,4135994,-5719.07,-108.11,2259.21
1041,1.041001,2522,4136994,3503.93,145.89,1639.21
1042,1.042001,2523,4137994,5506.93,-33.11,-142.78999999999996
1043,1.043000,2524,4138993,3004.93,591.89,-1336.79
1044,1.044001,2525,4139994,2174.93,1022.89,-2704.79
1045,1.045001,2526,4140994,6346.93,496.89,-2607.79
1046,1.046001,2527,4141994,7989.93,138.89,-1774.79
1047,1.047000,2528,4142993,5095.93,-206.11,-1479.79
1048,1.048001,2529,4143994,-3530.07,124.89,-2310.79
1049,1.049001,2530,4144994,-6095.07,268.89,-3234.79
1050,1.050000,2531,4145993,2350.93,238.89,-4197.79
1051,1.051001,2532,4146994,14511.93,43.89,-4230.79
1052,1.052001,2533,4147994,21920.93,-278.11,-1782.79
1053,1.053001,2534,4148994,16112.93,461.89,-1241.79
1054,1.054001,2535,4149994,2631.93,967.89,-1020.79
1055,1.055001,2536,4150994,-8182.07,458.89,2161.21
1056,1.056000,2537,4151993,-10317.07,26.89,3796.21
1057,1.057001,2538,4152994,-4046.07,-469.11,2677.21
1058,1.058000,2539,4153993,2519.93,-791.11,2619.21
1059,1.059000,2540,4154993,5242.93,-381.11,2279.21
1060,1.060001,2541,4155994,3008.93,-149.11,209.21000000000004
1061,1.061001,2542,4156994,-1950.07,-281.11,-112.78999999999996
1062,1.062001,2543,4157994,-12600.07,-829.11,1607.21
1063,1.063001,2544,4158994,-18947.07,-1155.11,2852.21
1064,1.064001,2545,4159994,-18964.07,-138.11,2221.21
1065,1.065001,2546,4160994,-12938.07,91.89,1897.21
1066,1.066000,2547,4161993,-574.0699999999999,-61.11,2151.21
1067,1.067001,2548,4162994,4849.93,-63.11,796.21
1068,1.068001,2549,4163994,6188.93,-82.11,-197.78999999999996
1069,1.069000,2550,4164993,2539.93,980.89,-1860.79
1070,1.070001,2551,4165994,3195.93,1026.89,-3092.79
1071,1.071000,2552,4166993,7307.93,239.89,-2285.79
1072,1.072000,2553,4167993,6742.93,13.89,-1626.79
1073,1.073001,2554,4168994,2433.93,-208.11,-1463.79
1074,1.074001,2555,4169994,-6200.07,144.89,-2683.79
1075,1.075000,2556,4170993,-2769.07,393.89,-3675.79
1076,1.076001,2557,4171994,7826.93,436.89,-4660.79
1077,1.077001,2558,4172994,17950.93,-83.11,-3413.79
1078,1.078001,2559,4173994,21528.93,-364.11,-843.79
1079,1.079000,2560,4174993,10443.93,516.89,-1504.79
1080,1.080000,2561,4175993,-3498.07,1091.89,-125.78999999999996
1081,1.081000,2562,4176993,-9951.07,396.89,3550.21
1082,1.082000,2563,4177993,-7625.07,-382.11,3383.21
1083,1.083001,2564,4178994,-856.0699999999999,-423.11,2318.21
1084,1.084001,2565,4179994,5165.93,-819.11,3134.21
1085,1.085001,2566,4180994,4207.93,-312.11,1489.21
1086,1.086000,2567,4181993,-225.07,-146.11,-519.79
1087,1.087001,2568,4182994,-6032.07,-671.11,565.21
1088,1.088000,2569,4183993,-16272.07,-785.11,2433.21
1089,1.089001,2570,4184994,-19310.07,-648.11,2821.21
1090,1.090001,2571,4185994,-16599.07,-214.11,1694.21
1091,1.091001,2572,4186994,-8063.07,125.89,2100.21
1092,1.092001,2573,4187994,3125.93,12.89,1944.21
1093,1.093001,2574,4188994,5914.93,-171.11,166.21000000000004
1094,1.094001,2575,4189994,3716.93,576.89,-825.79
1095,1.095000,2576,4190993,2318.93,908.89,-2464.79
1096,1.096000,2577,4191993,6205.93,557.89,-2896.79
1097,1.097001,2578,4192994,7983.93,388.89,-1999.79
1098,1.098001,2579,4193994,5609.93,-230.11,-1534.79
1099,1.099001,2580,4194994,-1997.07,-309.11,-1910.79
1100,1.100001,2581,4195994,-6914.07,505.89,-3331.79
1101,1.101001,2582,4196994,666.9300000000001,507.89,-4335.79
1102,1.102001,2583,4197994,12764.93,-58.11,-4409.79
1103,1.103000,2584,4198993,21432.93,-203.11,-2283.79
1104,1.104001,2585,4199994,18047.93,228.89,-1007.79
1105,1.105001,2586,4200994,4566.93,764.89,-1161.79
1106,1.106001,2587,4201994,-7415.07,694.89,1684.21
1107,1.107001,2588,4202994,-10430.07,79.89,3972.21
1108,1.108001,2589,4203994,-5251.07,-372.11,2881.21
1109,1.109000,2590,4204993,2119.93,-793.11,2762.21
1110,1.110001,2591,4205994,5790.93,-754.11,2694.21
1111,1.111001,2592,4206994,3175.93,-62.11,297.21000000000004
1112,1.112000,2593,4207993,-1044.07,-174.11,-341.78999999999996
1113,1.113001,2594,4208994,-12127.07,-683.11,1358.21
1114,1.114001,2595,4209994,-19440.07,-1013.11,2549.21
1115,1.115001,2596,4210994,-18595.07,-473.11,2206.21
1116,1.116001,2597,4211994,-14243.07,164.89,1691.21
1117,1.117001,2598,4212994,-1643.07,-245.11,2428.21
1118,1.118001,2599,4213994,5081.93,-290.11,1173.21
1119,1.119001,2600,4214994,5947.93,320.89,-277.78999999999996
1120,1.120001,2601,4215994,3343.93,945.89,-1482.79
1121,1.121001,2602,4216994,2645.93,1007.89,-2902.79
1122,1.122001,2603,4217994,7301.93,342.89,-2228.79
1123,1.123000,2604,4218993,7348.93,97.89,-1770.79
1124,1.124001,2605,4219994,3111.93,89.89,-1555.79
1125,1.125000,2606,4220993,-5255.07,-265.11,-2184.79
1126,1.126001,2607,4221994,-4869.07,371.89,-3808.79
1127,1.127001,2608,4222994,6251.93,515.89,-4858.79
1128,1.128001,2609,4223994,17564.93,-559.11,-3449.79
1129,1.129001,2610,4224994,21233.93,110.89,-1516.79
1130,1.130001,2611,4225994,12238.93,593.89,-1449.79
1131,1.131001,2612,4226994,-1545.07,529.89,-284.78999999999996
1132,1.132001,2613,4227994,-10037.07,677.89,3050.21
1133,1.133001,2614,4228994,-8414.07,-42.11,3729.21
1134,1.134001,2615,4229994,-1381.07,-640.11,2450.21
1135,1.135001,2616,4230994,4540.93,-714.11,3117.21
1136,1.136001,2617,4231994,4944.93,-312.11,2051.21
1137,1.137000,2618,4232993,400.93,-39.11,-359.78999999999996
1138,1.138001,2619,4233994,-5761.07,-290.11,270.21000000000004
1139,1.139000,2620,4234993,-14402.07,-1246.11,2503.21
1140,1.140001,2621,4235994,-18600.07,-768.11,2931.21
1141,1.141000,2622,4236993,-17955.07,50.89,1711.21
1142,1.142000,2623,4237993,-8964.07,-139.11,1877.21
1143,1.143001,2624,4238994,1926.93,105.89,1970.21
1144,1.144001,2625,4239994,5036.93,-251.11,251.21000000000004
1145,1.145001,2626,4240994,4253.93,274.89,-869.79
1146,1.146001,2627,4241994,2219.93,1151.89,-2402.79
1147,1.147000,2628,4242993,5794.93,566.89,-2672.79
1148,1.148001,2629,4243994,7997.93,401.89,-2050.79
1149,1.149000,2630,4244993,6164.93,-0.10999999999999943,-1726.79
1150,1.150000,2631,4245993,-726.0699999999999,-444.11,-1621.79
1151,1.151001,2632,4246994,-7333.07,490.89,-3106.79
1152,1.152001,2633,4247994,-255.07,454.89,-4061.79
1153,1.153001,2634,4248994,11287.93,41.89,-4545.79
1154,1.154000,2635,4249993,20411.93,-180.11,-2427.79
1155,1.155001,2636,4250994,19860.93,-74.11,-815.79
1156,1.156001,2637,4251994,6032.93,908.89,-1533.79
1157,1.157001,2638,4252994,-6259.07,743.89,1185.21
1158,1.158001,2639,4253994,-10836.07,70.89,3770.21
1159,1.159001,2640,4254994,-6473.07,-197.11,2963.21
1160,1.160001,2641,4255994,1609.93,-829.11,2511.21
1161,1.161001,2642,4256994,5596.93,-515.11,2581.21
1162,1.162001,2643,4257994,3882.93,-90.11,1009.21
1163,1.163001,2644,4258994,221.93,-659.11,-194.78999999999996
1164,1.164001,2645,4259994,-11011.07,-189.11,940.21
1165,1.165000,2646,4260993,-20083.07,-813.11,2579.21
1166,1.166001,2647,4261994,-17965.07,-858.11,2658.21
1167,1.167001,2648,4262994,-14644.07,256.89,1707.21
1168,1.168000,2649,4263993,-4083.07,286.89,1959.21
1169,1.169001,2650,4264994,4918.93,-285.11,1439.21
1170,1.170001,2651,4265994,6554.93,-406.11,167.21000000000004
1171,1.171001,2652,4266994,3159.93,764.89,-1461.79
1172,1.172000,2653,4267993,1818.93,1205.89,-2960.79
1173,1.173000,2654,4268993,6849.93,475.89,-2377.79
1174,1.174001,2655,4269994,8448.93,-123.11,-1789.79
1175,1.175001,2656,4270994,3366.93,211.89,-1696.79
1176,1.176001,2657,4271994,-4598.07,-284.11,-2252.79
1177,1.177001,2658,4272994,-5009.07,122.89,-3422.79
1178,1.178000,2659,4273993,4619.93,661.89,-4329.79
1179,1.179001,2660,4274994,16716.93,-410.11,-3907.79
1180,1.180001,2661,4275994,21877.93,139.89,-1589.79
1181,1.181001,2662,4276994,14056.93,548.89,-1071.79
1182,1.182000,2663,4277993,-18.069999999999993,719.89,-889.79
1183,1.183001,2664,4278994,-9798.07,685.89,2517.21
1184,1.184000,2665,4279993,-9426.07,-330.11,3650.21
1185,1.185001,2666,4280994,-2885.07,-413.11,2498.21
1186,1.186001,2667,4281994,3714.93,-753.11,2983.21
1187,1.187001,2668,4282994,5524.93,-506.11,2103.21
1188,1.188000,2669,4283993,1033.93,-10.11,-31.789999999999964
1189,1.189001,2670,4284994,-4289.07,-329.11,316.21000000000004
1190,1.190001,2671,4285994,-13409.07,-957.11,2107.21
1191,1.191001,2672,4286994,-18222.07,-816.11,3013.21
1192,1.192001,2673,4287994,-18400.07,-24.11,2083.21
1193,1.193000,2674,4288993,-10326.07,-422.11,1928.21
1194,1.194001,2675,4289994,795.9300000000001,41.89,2003.21
1195,1.195000,2676,4290993,4297.93,148.89,342.21000000000004
1196,1.196000,2677,4291993,5034.93,216.89,-591.79
1197,1.197001,2678,4292994,2516.93,920.89,-2356.79
1198,1.198001,2679,4293994,4815.93,661.89,-3093.79
1199,1.199000,2680,4294993,7528.93,304.89,-2184.79
1200,1.200001,2681,4295994,6584.93,-50.11,-1654.79
1201,1.201001,2682,4296994,572.9300000000001,-35.11,-1648.79
1202,1.202001,2683,4297994,-6700.07,228.89,-2853.79
1203,1.203001,2684,4298994,-1084.07,277.89,-3724.79
1204,1.204000,2685,4299993,9727.93,390.89,-4502.79
1205,1.205001,2686,4300994,19688.93,-201.11,-2806.79
1206,1.206001,2687,4301994,20405.93,-164.11,-898.79
1207,1.207000,2688,4302993,7552.93,872.89,-1452.79
1208,1.208000,2689,4303993,-4899.07,669.89,714.21
1209,1.209000,2690,4304993,-10782.07,246.89,3540.21
1210,1.210000,2691,4305993,-7103.07,-57.11,3169.21
1211,1.211001,2692,4306994,868.9300000000001,-874.11,2684.21
1212,1.212001,2693,4307994,5130.93,-702.11,2805.21
1213,1.213001,2694,4308994,4429.93,-149.11,1076.21
1214,1.214001,2695,4309994,-143.07,-310.11,-470.78999999999996
1215,1.215001,2696,4310994,-9031.07,-363.11,965.21
1216,1.216001,2697,4311994,-18216.07,-975.11,2786.21
1217,1.217001,2698,4312994,-19111.07,-708.11,2266.21
1218,1.218000,2699,4313993,-15567.07,-31.11,1606.21
1219,1.219001,2700,4314994,-5167.07,-12.11,2419.21
1220,1.220000,2701,4315993,4438.93,67.89,1418.21
1221,1.221001,2702,4316994,5952.93,-56.11,-66.78999999999996
1222,1.222001,2703,4317994,3307.93,490.89,-1170.79
1223,1.223001,2704,4318994,2145.93,1028.89,-2715.79
1224,1.224001,2705,4319994,6432.93,612.89,-2544.79
1225,1.225000,2706,4320993,8032.93,188.89,-2023.79
1226,1.226001,2707,4321994,4899.93,-289.11,-1390.79
1227,1.227001,2708,4322994,-3150.07,-287.11,-1788.79
1228,1.228001,2709,4323994,-6200.07,624.89,-3514.79
1229,1.229001,2710,4324994,2695.93,530.89,-4535.79
1230,1.230001,2711,4325994,15055.93,-212.11,-4125.79
1231,1.231000,2712,4326993,21862.93,-202.11,-1706.79
1232,1.232000,2713,4327993,15694.93,421.89,-1134.79
1233,1.233000,2714,4328993,1592.93,973.89,-938.79
1234,1.234001,2715,4329994,-8591.07,545.89,2332.21
1235,1.235001,2716,4330994,-9934.07,-45.11,3788.21
1236,1.236001,2717,4331994,-3809.07,-445.11,2776.21
1237,1.237001,2718,4332994,3169.93,-943.11,2798.21
1238,1.238001,2719,4333994,5276.93,-402.11,2208.21
1239,1.239001,2720,4334994,2190.93,-116.11,261.21000000000004
1240,1.240001,2721,4335994,-2660.07,-397.11,74.21000000000004
1241,1.241001,2722,4336994,-13076.07,-833.11,1528.21
1242,1.242001,2723,4337994,-18833.07,-1033.11,2705.21
1243,1.243001,2724,4338994,-18804.07,-48.11,2259.21
1244,1.244001,2725,4339994,-12974.07,455.89,1661.21
1245,1.245001,2726,4340994,112.93,-25.11,2112.21
1246,1.246001,2727,4341994,5594.93,-585.11,972.21
1247,1.247001,2728,4342994,5872.93,78.89,-351.78999999999996
1248,1.248001,2729,4343994,2603.93,1141.89,-1919.79
1249,1.249001,2730,4344994,3704.93,816.89,-2940.79
1250,1.250001,2731,4345994,7415.93,625.89,-2366.79
1251,1.251001,2732,4346994,6674.93,57.89,-1617.79
1252,1.252000,2733,4347993,1967.93,-710.11,-1290.79
1253,1.253001,2734,4348994,-6719.07,186.89,-2802.79
1254,1.254001,2735,4349994,-2541.07,512.89,-3885.79
1255,1.255001,2736,4350994,8548.93,272.89,-4665.79
1256,1.256001,2737,4351994,18386.93,-268.11,-3199.79
1257,1.257001,2738,4352994,21506.93,-323.11,-948.79
1258,1.258001,2739,4353994,9635.93,1039.89,-1505.79
1259,1.259001,2740,4354994,-4096.07,1013.89,334.21000000000004
1260,1.260001,2741,4355994,-10250.07,77.89,3686.21
1261,1.261001,2742,4356994,-7621.07,-219.11,3355.21
1262,1.262001,2743,4357994,-2.069999999999993,-662.11,2476.21
1263,1.263000,2744,4358993,5320.93,-849.11,3022.21
1264,1.264001,2745,4359994,4014.93,-133.11,1324.21
1265,1.265001,2746,4360994,-167.07,-156.11,-554.79
1266,1.266001,2747,4361994,-7241.07,-635.11,692.21
1267,1.267000,2748,4362993,-17325.07,-806.11,2563.21
1268,1.268001,2749,4363994,-19263.07,-680.11,2459.21
1269,1.269001,2750,4364994,-16205.07,-147.11,1538.21
1270,1.270001,2751,4365994,-6405.07,-22.11,2489.21
1271,1.271001,2752,4366994,3573.93,-60.11,1913.21
1272,1.272001,2753,4367994,5694.93,-8.11,-45.789999999999964
1273,1.273001,2754,4368994,3767.93,578.89,-914.79
1274,1.274001,2755,4369994,2301.93,1042.89,-2559.79
1275,1.275001,2756,4370994,6279.93,676.89,-2638.79
1276,1.276000,2757,4371993,8147.93,72.89,-1906.79
1277,1.277001,2758,4372994,5213.93,145.89,-1814.79
1278,1.278000,2759,4373993,-2720.07,-69.11,-1819.79
1279,1.279001,2760,4374994,-6563.07,-217.11,-3222.79
1280,1.280001,2761,4375994,1223.93,528.89,-4678.79
1281,1.281000,2762,4376993,13721.93,74.89,-4303.79
1282,1.282001,2763,4377994,21644.93,-461.11,-1946.79
1283,1.283000,2764,4378993,17125.93,455.89,-1172.79
1284,1.284001,2765,4379994,3445.93,1001.89,-1166.79
1285,1.285001,2766,4380994,-7662.07,458.89,2007.21
1286,1.286001,2767,4381994,-10202.07,78.89,4010.21
1287,1.287001,2768,4382994,-4695.07,-248.11,2894.21
1288,1.288001,2769,4383994,2470.93,-941.11,2865.21
1289,1.289001,2770,4384994,5371.93,-430.11,2498.21
1290,1.290001,2771,4385994,2870.93,-88.11,323.21000000000004
1291,1.291001,2772,4386994,-1602.07,-442.11,62.210000000000036
1292,1.292001,2773,4387994,-12713.07,-499.11,1554.21
1293,1.293000,2774,4388993,-19065.07,-1165.11,2597.21
1294,1.294001,2775,4389994,-18327.07,-445.11,2138.21
1295,1.295001,2776,4390994,-13904.07,108.89,1788.21
1296,1.296001,2777,4391994,-1586.07,76.89,2205.21
1297,1.297001,2778,4392994,5029.93,-68.11,709.21
1298,1.298001,2779,4393994,6228.93,-106.11,-373.78999999999996
1299,1.299001,2780,4394994,3434.93,847.89,-1552.79
1300,1.300001,2781,4395994,3313.93,1074.89,-2800.79
1301,1.301001,2782,4396994,7296.93,474.89,-2313.79
1302,1.302000,2783,4397993,7142.93,-74.11,-1744.79
1303,1.303001,2784,4398994,2540.93,-11.11,-1551.79
1304,1.304001,2785,4399994,-6065.07,63.89,-2515.79
1305,1.305000,2786,4400993,-3495.07,129.89,-3482.79
1306,1.306001,2787,4401994,7198.93,284.89,-4760.79
1307,1.307001,2788,4402994,17661.93,-216.11,-3655.79
1308,1.308001,2789,4403994,21092.93,-50.11,-1246.79
1309,1.309001,2790,4404994,11058.93,475.89,-1349.79
1310,1.310000,2791,4405993,-2794.07,936.89,-116.78999999999996
1311,1.311001,2792,4406994,-9931.07,499.89,3246.21
1312,1.312001,2793,4407994,-7736.07,-352.11,3549.21
1313,1.313001,2794,4408994,-1087.07,-465.11,2489.21
1314,1.314001,2795,4409994,4984.93,-911.11,3213.21
1315,1.315000,2796,4410993,4478.93,-107.11,1494.21
1316,1.316001,2797,4411994,-19.069999999999993,-46.11,-326.78999999999996
1317,1.317001,2798,4412994,-5964.07,-764.11,773.21
1318,1.318001,2799,4413994,-15522.07,-855.11,2227.21
1319,1.319000,2800,4414993,-18995.07,-721.11,2723.21
1320,1.320001,2801,4415994,-17001.07,-207.11,1771.21
1321,1.321001,2802,4416994,-8218.07,-9.11,1972.21
1322,1.322001,2803,4417994,2692.93,-63.11,1792.21
1323,1.323000,2804,4418993,5059.93,-61.11,-14.789999999999964
1324,1.324001,2805,4419994,3806.93,595.89,-783.79
1325,1.325001,2806,4420994,2403.93,939.89,-2298.79
1326,1.326001,2807,4421994,5858.93,660.89,-2764.79
1327,1.327001,2808,4422994,7910.93,310.89,-1946.79
1328,1.328001,2809,4423994,6100.93,-79.11,-1479.79
1329,1.329001,2810,4424994,-1441.07,-134.11,-1825.79
1330,1.330001,2811,4425994,-6897.07,290.89,-3243.79
1331,1.331000,2812,4426993,529.9300000000001,388.89,-4146.79
1332,1.332001,2813,4427994,12022.93,-20.11,-4443.79
1333,1.333001,2814,4428994,20993.93,-185.11,-2409.79
1334,1.334001,2815,4429994,18861.93,157.89,-1052.79
1335,1.335000,2816,4430993,5105.93,707.89,-1260.79
1336,1.336001,2817,4431994,-7036.07,672.89,1422.21
1337,1.337001,2818,4432994,-10747.07,206.89,3715.21
1338,1.338001,2819,4433994,-5621.07,-368.11,2971.21
1339,1.339001,2820,4434994,1556.93,-841.11,2623.21
1340,1.340001,2821,4435994,5617.93,-379.11,2661.21
1341,1.341001,2822,4436994,3889.93,-84.11,770.21
1342,1.342001,2823,4437994,-631.0699999999999,-407.11,-261.78999999999996
1343,1.343000,2824,4438993,-11781.07,-308.11,1330.21
1344,1.344001,2825,4439994,-19475.07,-1072.11,2896.21
1345,1.345001,2826,4440994,-18022.07,-657.11,2469.21
1346,1.346001,2827,4441994,-14339.07,191.89,1772.21
1347,1.347000,2828,4442993,-2630.07,112.89,2114.21
1348,1.348001,2829,4443994,4827.93,-268.11,1174.21
1349,1.349001,2830,4444994,5902.93,-252.11,-227.78999999999996
1350,1.350001,2831,4445994,3011.93,881.89,-1793.79
1351,1.351001,2832,4446994,2240.93,950.89,-2934.79
1352,1.352000,2833,4447993,7205.93,370.89,-2437.79
1353,1.353001,2834,4448994,7819.93,167.89,-1851.79
1354,1.354001,2835,4449994,3290.93,-230.11,-1427.79
1355,1.355000,2836,4450993,-4961.07,-145.11,-2245.79
1356,1.356001,2837,4451994,-4789.07,555.89,-3688.79
1357,1.357001,2838,4452994,6183.93,277.89,-4441.79
1358,1.358001,2839,4453994,17126.93,-149.11,-3472.79
1359,1.359001,2840,4454994,21645.93,95.89,-1275.79
1360,1.360001,2841,4455994,12997.93,366.89,-1479.79
1361,1.361001,2842,4456994,-1813.07,905.89,-489.78999999999996
1362,1.362001,2843,4457994,-9743.07,448.89,3134.21
1363,1.363001,2844,4458994,-8651.07,-280.11,3436.21
1364,1.364001,2845,4459994,-2312.07,-316.11,2337.21
1365,1.365001,2846,4460994,4534.93,-988.11,3068.21
1366,1.366001,2847,4461994,5144.93,-516.11,2010.21
1367,1.367001,2848,4462994,485.93,65.89,-366.78999999999996
1368,1.368001,2849,4463994,-4990.07,-493.11,212.21000000000004
1369,1.369001,2850,4464994,-14322.07,-1036.11,2239.21
1370,1.370000,2851,4465993,-18757.07,-596.11,2773.21
1371,1.371001,2852,4466994,-18081.07,-237.11,1902.21
1372,1.372001,2853,4467994,-9251.07,-429.11,2105.21
1373,1.373001,2854,4468994,1985.93,167.89,2058.21
1374,1.374001,2855,4469994,4825.93,93.89,265.21000000000004
1375,1.375001,2856,4470994,4421.93,412.89,-862.79
1376,1.376001,2857,4471994,2338.93,890.89,-2312.79
1377,1.377000,2858,4472993,5233.93,616.89,-2814.79
1378,1.378001,2859,4473994,7806.93,442.89,-2081.79
1379,1.379001,2860,4474994,6195.93,-147.11,-1664.79
1380,1.380001,2861,4475994,-322.07,-294.11,-1688.79
1381,1.381000,2862,4476993,-7009.07,292.89,-2963.79
1382,1.382001,2863,4477994,-462.07,446.89,-3790.79
1383,1.383000,2864,4478993,10722.93,214.89,-4409.79
1384,1.384001,2865,4479994,20092.93,-263.11,-2760.79
1385,1.385000,2866,4480993,19979.93,-161.11,-904.79
1386,1.386001,2867,4481994,6391.93,973.89,-1468.79
1387,1.387001,2868,4482994,-5796.07,838.89,1032.21
1388,1.388001,2869,4483994,-10581.07,-29.11,3691.21
1389,1.389001,2870,4484994,-6615.07,-87.11,2972.21
1390,1.390000,2871,4485993,1348.93,-764.11,2704.21
1391,1.391001,2872,4486994,5585.93,-657.11,2702.21
1392,1.392001,2873,4487994,3791.93,-34.11,822.21
1393,1.393001,2874,4488994,104.93,-452.11,-178.78999999999996
1394,1.394001,2875,4489994,-9890.07,-417.11,1232.21
1395,1.395000,2876,4490993,-19201.07,-897.11,2508.21
1396,1.396001,2877,4491994,-18361.07,-780.11,2333.21
1397,1.397001,2878,4492994,-15207.07,84.89,1729.21
1398,1.398001,2879,4493994,-4220.07,-31.11,2341.21
1399,1.399001,2880,4494994,4579.93,-163.11,1273.21
1400,1.400001,2881,4495994,5884.93,52.89,-248.78999999999996
1401,1.401000,2882,4496993,3484.93,650.89,-1195.79
1402,1.402001,2883,4497994,1970.93,1057.89,-2787.79
1403,1.403001,2884,4498994,6777.93,612.89,-2548.79
1404,1.404001,2885,4499994,7854.93,98.89,-1756.79
1405,1.405001,2886,4500994,4003.93,-285.11,-1413.79
1406,1.406001,2887,4501994,-4030.07,-96.11,-2181.79
1407,1.407000,2888,4502993,-5603.07,582.89,-3384.79
1408,1.408001,2889,4503994,4393.93,340.89,-4534.79
1409,1.409001,2890,4504994,16245.93,-152.11,-4091.79
1410,1.410001,2891,4505994,21708.93,-185.11,-1417.79
1411,1.411001,2892,4506994,14188.93,326.89,-1295.79
1412,1.412001,2893,4507994,214.93,1077.89,-1137.79
1413,1.413001,2894,4508994,-9073.07,592.89,2569.21
1414,1.414000,2895,4509993,-9021.07,-437.11,3893.21
1415,1.415001,2896,4510994,-3391.07,-374.11,2262.21
1416,1.416001,2897,4511994,3478.93,-633.11,2911.21
1417,1.417001,2898,4512994,5741.93,-686.11,2468.21
1418,1.418001,2899,4513994,1193.93,14.89,-114.78999999999996
1419,1.419001,2900,4514994,-3781.07,-321.11,200.21000000000004
1420,1.420001,2901,4515994,-13289.07,-1002.11,1874.21
1421,1.421001,2902,4516994,-18682.07,-710.11,2820.21
1422,1.422001,2903,4517994,-18452.07,-321.11,2420.21
1423,1.423001,2904,4518994,-11024.07,-138.11,2093.21
1424,1.424001,2905,4519994,406.93,258.89,1923.21
1425,1.425000,2906,4520993,4716.93,-263.11,382.21000000000004
1426,1.426000,2907,4521993,5179.93,233.89,-682.79
1427,1.427000,2908,4522993,2598.93,1044.89,-2117.79
1428,1.428000,2909,4523993,4195.93,697.89,-2999.79
1429,1.429001,2910,4524994,7483.93,450.89,-2472.79
1430,1.430001,2911,4525994,6952.93,-194.11,-1610.79
1431,1.431001,2912,4526994,1121.93,-264.11,-1349.79
1432,1.432001,2913,4527994,-6536.07,258.89,-2768.79
1433,1.433001,2914,4528994,-2081.07,382.89,-4041.79
1434,1.434001,2915,4529994,9251.93,374.89,-4607.79
1435,1.435000,2916,4530993,19524.93,-300.11,-2874.79
1436,1.436001,2917,4531994,20722.93,-8.11,-1155.79
1437,1.437001,2918,4532994,8397.93,687.89,-1322.79
1438,1.438000,2919,4533993,-4670.07,671.89,735.21
1439,1.439001,2920,4534994,-10408.07,368.89,3575.21
1440,1.440000,2921,4535993,-7485.07,-141.11,3206.21
1441,1.441001,2922,4536994,68.93,-595.11,2562.21
1442,1.442001,2923,4537994,5595.93,-838.11,2929.21
1443,1.443001,2924,4538994,4216.93,-146.11,1112.21
1444,1.444000,2925,4539993,-41.06999999999999,-190.11,-319.78999999999996
1445,1.445001,2926,4540994,-7937.07,-552.11,906.21
1446,1.446001,2927,4541994,-18197.07,-758.11,2372.21
1447,1.447000,2928,4542993,-19025.07,-767.11,2498.21
1448,1.448001,2929,4543994,-15686.07,-269.11,1917.21
1449,1.449001,2930,4544994,-5825.07,81.89,2216.21
1450,1.450001,2931,4545994,4382.93,-48.11,1624.21
1451,1.451000,2932,4546993,5814.93,-74.11,10.210000000000036
1452,1.452001,2933,4547994,3473.93,603.89,-1169.79
1453,1.453001,2934,4548994,1733.93,1055.89,-2698.79
1454,1.454000,2935,4549993,6233.93,656.89,-2690.79
1455,1.455001,2936,4550994,8162.93,69.89,-1891.79
1456,1.456001,2937,4551994,4686.93,-47.11,-1537.79
1457,1.457000,2938,4552993,-2697.07,-300.11,-1877.79
1458,1.458001,2939,4553994,-6073.07,232.89,-3237.79
1459,1.459001,2940,4554994,2118.93,713.89,-4420.79
1460,1.460000,2941,4555993,14542.93,-152.11,-4176.79
1461,1.461001,2942,4556994,21249.93,-263.11,-1882.79
1462,1.462001,2943,4557994,15993.93,348.89,-1192.79
1463,1.463001,2944,4558994,2639.93,832.89,-1143.79
1464,1.464000,2945,4559993,-8153.07,817.89,2198.21
1465,1.465001,2946,4560994,-9549.07,-169.11,4043.21
1466,1.466001,2947,4561994,-4205.07,-359.11,2614.21
1467,1.467001,2948,4562994,2442.93,-594.11,2865.21
1468,1.468001,2949,4563994,5828.93,-863.11,2675.21
1469,1.469001,2950,4564994,1863.93,185.89,-5.789999999999964
1470,1.470000,2951,4565993,-2050.07,-335.11,94.21000000000004
1471,1.471001,2952,4566994,-12132.07,-990.11,1697.21
1472,1.472001,2953,4567994,-18984.07,-850.11,2596.21
1473,1.473001,2954,4568994,-18211.07,-453.11,2235.21
1474,1.474001,2955,4569994,-13408.07,151.89,1516.21
1475,1.475001,2956,4570994,-920.0699999999999,-133.11,2210.21
1476,1.476001,2957,4571994,4856.93,-402.11,870.21
1477,1.477000,2958,4572993,5480.93,472.89,-671.79
1478,1.478000,2959,4573993,3315.93,1022.89,-1680.79
1479,1.479001,2960,4574994,3428.93,752.89,-2741.79
1480,1.480001,2961,4575994,7122.93,672.89,-2376.79
1481,1.481000,2962,4576993,7407.93,-176.11,-1571.79
1482,1.482001,2963,4577994,2293.93,-53.11,-1455.79
1483,1.483001,2964,4578994,-5793.07,299.89,-2436.79
1484,1.484001,2965,4579994,-3292.07,5.890000000000001,-3688.79
1485,1.485001,2966,4580994,7233.93,414.89,-4895.79
1486,1.486001,2967,4581994,17992.93,-245.11,-3284.79
1487,1.487001,2968,4582994,21346.93,-408.11,-975.79
1488,1.488001,2969,4583994,10465.93,832.89,-1538.79
1489,1.489000,2970,4584993,-3068.07,796.89,20.210000000000036
1490,1.490000,2971,4585993,-10131.07,320.89,3287.21
1491,1.491001,2972,4586994,-8009.07,-18.11,3353.21
1492,1.492001,2973,4587994,-628.0699999999999,-700.11,2497.21
1493,1.493001,2974,4588994,4737.93,-755.11,2888.21
1494,1.494000,2975,4589993,4625.93,-281.11,1599.21
1495,1.495001,2976,4590994,174.93,-341.11,-357.78999999999996
1496,1.496000,2977,4591993,-6441.07,-330.11,664.21
1497,1.497001,2978,4592994,-16123.07,-705.11,2551.21
1498,1.498001,2979,4593994,-18895.07,-776.11,2592.21
1499,1.499001,2980,4594994,-16647.07,-141.11,1845.21
1500,1.500001,2981,4595994,-7490.07,69.89,2293.21
1501,1.501001,2982,4596994,3194.93,132.89,1740.21
1502,1.502001,2983,4597994,5278.93,-293.11,90.21000000000004
1503,1.503001,2984,4598994,3622.93,382.89,-957.79
1504,1.504001,2985,4599994,2035.93,999.89,-2480.79
1505,1.505001,2986,4600994,5879.93,595.89,-2729.79
1506,1.506001,2987,4601994,7825.93,435.89,-2055.79
1507,1.507001,2988,4602994,5702.93,-332.11,-1507.79
1508,1.508001,2989,4603994,-1977.07,-156.11,-1944.79
1509,1.509001,2990,4604994,-6523.07,500.89,-3212.79
1510,1.510001,2991,4605994,1207.93,190.89,-4094.79
1511,1.511000,2992,4606993,12207.93,139.89,-4488.79
1512,1.512001,2993,4607994,20839.93,-238.11,-2235.79
1513,1.513001,2994,4608994,18240.93,171.89,-1043.79
1514,1.514001,2995,4609994,4892.93,903.89,-1111.79
1515,1.515001,2996,4610994,-6917.07,707.89,1669.21
1516,1.516000,2997,4611993,-10233.07,164.89,3626.21
1517,1.517001,2998,4612994,-5361.07,-635.11,2940.21
1518,1.518001,2999,4613994,1518.93,-635.11,2654.21
1519,1.519001,3000,4614994,5430.93,-487.11,2439.21
1520,1.520001,3001,4615994,3350.93,-225.11,590.21
1521,1.521001,3002,4616994,-914.0699999999999,-258.11,-138.78999999999996
1522,1.522001,3003,4617994,-11693.07,-532.11,1313.21
1523,1.523001,3004,4618994,-19014.07,-1087.11,2764.21
1524,1.524001,3005,4619994,-18327.07,-514.11,2448.21
1525,1.525001,3006,4620994,-14363.07,260.89,1859.21
1526,1.526001,3007,4621994,-2621.07,-32.11,2047.21
1527,1.527001,3008,4622994,4880.93,-144.11,1141.21
1528,1.528000,3009,4623993,6212.93,-79.11,-56.789999999999964
1529,1.529001,3010,4624994,3071.93,934.89,-1680.79
1530,1.530000,3011,4625993,2678.93,972.89,-2987.79
1531,1.531001,3012,4626994,6852.93,393.89,-2594.79
1532,1.532001,3013,4627994,7458.93,34.89,-1758.79
1533,1.533000,3014,4628993,3397.93,-321.11,-1319.79
1534,1.534001,3015,4629994,-5254.07,252.89,-2561.79
1535,1.535001,3016,4630994,-4210.07,661.89,-3857.79
1536,1.536001,3017,4631994,6526.93,120.89,-4437.79
1537,1.537000,3018,4632993,17054.93,-290.11,-3459.79
1538,1.538001,3019,4633994,21756.93,-228.11,-1037.79
1539,1.539000,3020,4634993,12421.93,575.89,-1372.79
1540,1.540001,3021,4635994,-2048.07,1190.89,-590.79
1541,1.541000,3022,4636993,-9532.07,222.89,3228.21
1542,1.542001,3023,4637994,-8758.07,-238.11,3571.21
1543,1.543001,3024,4638994,-2125.07,-206.11,2299.21
1544,1.544001,3025,4639994,4653.93,-880.11,3102.21
1545,1.545001,3026,4640994,5064.93,-425.11,1883.21
1546,1.546000,3027,4641993,541.9300000000001,-267.11,-250.78999999999996
1547,1.547000,3028,4642993,-5470.07,-510.11,407.21000000000004
1548,1.548001,3029,4643994,-15337.07,-779.11,2255.21
1549,1.549001,3030,4644994,-19059.07,-762.11,2874.21
1550,1.550001,3031,4645994,-17489.07,-201.11,2018.21
1551,1.551001,3032,4646994,-8888.07,-57.11,2258.21
1552,1.552001,3033,4647994,2434.93,136.89,1710.21
1553,1.553001,3034,4648994,5250.93,-34.11,84.21000000000004
1554,1.554001,3035,4649994,4192.93,404.89,-718.79
1555,1.555001,3036,4650994,2271.93,900.89,-2458.79
1556,1.556001,3037,4651994,5121.93,624.89,-2836.79
1557,1.557001,3038,4652994,7929.93,179.89,-1956.79
1558,1.558001,3039,4653994,6294.93,-183.11,-1623.79
1559,1.559000,3040,4654993,-986.0699999999999,23.89,-1882.79
1560,1.560001,3041,4655994,-6450.07,346.89,-3116.79
1561,1.561001,3042,4656994,-77.07,351.89,-4040.79
1562,1.562000,3043,4657993,11606.93,186.89,-4358.79
1563,1.563001,3044,4658994,20706.93,-156.11,-2518.79
1564,1.564001,3045,4659994,18947.93,8.89,-1082.79
1565,1.565000,3046,4660993,5769.93,818.89,-1309.79
1566,1.566000,3047,4661993,-6263.07,731.89,1251.21
1567,1.567001,3048,4662994,-10381.07,175.89,3669.21
1568,1.568000,3049,4663993,-6734.07,-123.11,2926.21
1569,1.569001,3050,4664994,1629.93,-816.11,2796.21
1570,1.570001,3051,4665994,5660.93,-620.11,2679.21
1571,1.571001,3052,4666994,3162.93,-194.11,636.21
1572,1.572001,3053,4667994,-146.07,-393.11,-187.78999999999996
1573,1.573001,3054,4668994,-10798.07,-357.11,1237.21
1574,1.574001,3055,4669994,-19195.07,-957.11,2700.21
1575,1.575001,3056,4670994,-18206.07,-745.11,2385.21
1576,1.576001,3057,4671994,-14659.07,78.89,1803.21
1577,1.577001,3058,4672994,-3434.07,-152.11,2643.21
1578,1.578001,3059,4673994,4519.93,-84.11,1121.21
1579,1.579000,3060,4674993,5943.93,136.89,-540.79
1580,1.580000,3061,4675993,3305.93,701.89,-1404.79
1581,1.581000,3062,4676993,2464.93,1014.89,-2771.79
1582,1.582001,3063,4677994,6894.93,463.89,-2629.79
1583,1.583001,3064,4678994,7779.93,210.89,-2013.79
1584,1.584001,3065,4679994,3519.93,-232.11,-1354.79
1585,1.585001,3066,4680994,-4602.07,-195.11,-2203.79
1586,1.586001,3067,4681994,-4907.07,457.89,-3641.79
1587,1.587001,3068,4682994,5322.93,285.89,-4544.79
1588,1.588001,3069,4683994,16869.93,-118.11,-3737.79
1589,1.589001,3070,4684994,21386.93,-43.11,-1430.79
1590,1.590001,3071,4685994,13382.93,277.89,-1425.79
1591,1.591000,3072,4686993,-364.07,805.89,-524.79
1592,1.592001,3073,4687994,-9541.07,692.89,2943.21
1593,1.593001,3074,4688994,-9018.07,-58.11,3582.21
1594,1.594000,3075,4689993,-2419.07,-514.11,2475.21
1595,1.595001,3076,4690994,3920.93,-762.11,2979.21
1596,1.596001,3077,4691994,5386.93,-430.11,2124.21
1597,1.597001,3078,4692994,882.9300000000001,-68.11,-98.78999999999996
1598,1.598000,3079,4693993,-5017.07,-350.11,362.21000000000004
1599,1.599001,3080,4694994,-14148.07,-1129.11,2056.21
1600,1.600001,3081,4695994,-19048.07,-810.11,2682.21
1601,1.601001,3082,4696994,-18709.07,18.89,2044.21
1602,1.602001,3083,4697994,-10538.07,308.89,1876.21
1603,1.603001,3084,4698994,1942.93,162.89,1994.21
1604,1.604001,3085,4699994,6043.93,-593.11,649.21
1605,1.605001,3086,4700994,4552.93,301.89,-556.79
1606,1.606001,3087,4701994,2574.93,1138.89,-2199.79
1607,1.607001,3088,4702994,4943.93,743.89,-3007.79
1608,1.608001,3089,4703994,7980.93,347.89,-2134.79
1609,1.609000,3090,4704993,6659.93,-352.11,-1606.79
1610,1.610000,3091,4705993,-510.07,-146.11,-1819.79
1611,1.611001,3092,4706994,-6440.07,170.89,-3023.79
1612,1.612000,3093,4707993,-834.0699999999999,332.89,-4238.79
1613,1.613001,3094,4708994,10120.93,520.89,-4685.79
1614,1.614001,3095,4709994,20006.93,-561.11,-2636.79
1615,1.615000,3096,4710993,19730.93,-137.11,-1051.79
1616,1.616001,3097,4711994,7243.93,1040.89,-1411.79
1617,1.617000,3098,4712993,-5481.07,925.89,1085.21
1618,1.618000,3099,4713993,-10359.07,256.89,3917.21
1619,1.619001,3100,4714994,-6827.07,-299.11,3161.21
1620,1.620001,3101,4715994,738.9300000000001,-911.11,2787.21
1621,1.621000,3102,4716993,5578.93,-688.11,2919.21
1622,1.622000,3103,4717993,3610.93,171.89,721.21
1623,1.623001,3104,4718994,-132.07,-373.11,-207.78999999999996
1624,1.624001,3105,4719994,-9546.07,-619.11,1138.21
1625,1.625001,3106,4720994,-19261.07,-904.11,2433.21
1626,1.626001,3107,4721994,-18768.07,-772.11,2422.21
1627,1.627001,3108,4722994,-15056.07,163.89,1197.21
1628,1.628001,3109,4723994,-4527.07,224.89,2177.21
1629,1.629001,3110,4724994,4694.93,-327.11,1799.21
1630,1.630001,3111,4725994,6007.93,-189.11,-152.78999999999996
1631,1.631000,3112,4726993,3847.93,825.89,-1249.79
1632,1.632000,3113,4727993,2321.93,1134.89,-2704.79
1633,1.633001,3114,4728994,6796.93,745.89,-2603.79
1634,1.634000,3115,4729993,7876.93,-66.11,-1733.79
1635,1.635000,3116,4730993,3690.93,-552.11,-1307.79
1636,1.636001,3117,4731994,-4125.07,-9.11,-2304.79
1637,1.637001,3118,4732994,-5427.07,567.89,-3510.79
1638,1.638001,3119,4733994,4498.93,268.89,-4544.79
1639,1.639001,3120,4734994,15930.93,-117.11,-4170.79
1640,1.640001,3121,4735994,21369.93,84.89,-1570.79
1641,1.641001,3122,4736994,14303.93,157.89,-1179.79
1642,1.642000,3123,4737993,343.93,817.89,-893.79
1643,1.643001,3124,4738994,-9224.07,820.89,2577.21
1644,1.644001,3125,4739994,-8826.07,-255.11,3889.21
1645,1.645001,3126,4740994,-2772.07,-523.11,2570.21
1646,1.646001,3127,4741994,3434.93,-670.11,3050.21
1647,1.647000,3128,4742993,5459.93,-605.11,2315.21
1648,1.648001,3129,4743994,1155.93,2.8900000000000006,-220.78999999999996
1649,1.649001,3130,4744994,-4220.07,-285.11,304.21000000000004
1650,1.650000,3131,4745993,-13377.07,-1119.11,2127.21
1651,1.651001,3132,4746994,-18425.07,-752.11,2799.21
1652,1.652001,3133,4747994,-18797.07,-114.11,2074.21
1653,1.653000,3134,4748993,-10965.07,-377.11,1875.21
1654,1.654001,3135,4749994,683.9300000000001,58.89,2127.21
1655,1.655000,3136,4750993,4794.93,17.89,441.21000000000004
1656,1.656001,3137,4751994,4966.93,268.89,-757.79
1657,1.657001,3138,4752994,2650.93,1099.89,-1990.79
1658,1.658001,3139,4753994,4852.93,722.89,-2817.79
1659,1.659001,3140,4754994,7507.93,468.89,-2162.79
1660,1.660001,3141,4755994,6866.93,-132.11,-1545.79
1661,1.661001,3142,4756994,650.9300000000001,-77.11,-1690.79
1662,1.662001,3143,4757994,-6716.07,260.89,-2856.79
1663,1.663000,3144,4758993,-1550.07,73.89,-3937.79
1664,1.664001,3145,4759994,9621.93,405.89,-4803.79
1665,1.665001,3146,4760994,19842.93,-311.11,-2850.79
1666,1.666000,3147,4761993,20791.93,-211.11,-932.79
1667,1.667001,3148,4762994,7903.93,830.89,-1598.79
1668,1.668001,3149,4763994,-5334.07,807.89,601.21
1669,1.669001,3150,4764994,-10548.07,140.89,3732.21
1670,1.670001,3151,4765994,-7124.07,-323.11,3143.21
1671,1.671001,3152,4766994,129.93,-506.11,2259.21
1672,1.672001,3153,4767994,5630.93,-756.11,2911.21
1673,1.673001,3154,4768994,4417.93,-253.11,1248.21
1674,1.674001,3155,4769994,-224.07,-171.11,-357.78999999999996
1675,1.675001,3156,4770994,-8753.07,-460.11,1097.21
1676,1.676001,3157,4771994,-19012.07,-807.11,2590.21
1677,1.677001,3158,4772994,-19196.07,-654.11,2462.21
1678,1.678001,3159,4773994,-15116.07,-199.11,2024.21
1679,1.679001,3160,4774994,-4739.07,-118.11,2697.21
1680,1.680001,3161,4775994,4543.93,122.89,1278.21
1681,1.681001,3162,4776994,5575.93,-21.11,-293.78999999999996
1682,1.682001,3163,4777994,3464.93,618.89,-1237.79
1683,1.683000,3164,4778993,2098.93,1010.89,-2775.79
1684,1.684001,3165,4779994,6436.93,553.89,-2552.79
1685,1.685000,3166,4780993,8018.93,100.89,-2045.79
1686,1.686001,3167,4781994,3854.93,-246.11,-1795.79
1687,1.687001,3168,4782994,-3306.07,-250.11,-2067.79
1688,1.688000,3169,4783993,-5467.07,466.89,-3350.79
1689,1.689001,3170,4784994,3453.93,674.89,-4583.79
1690,1.690001,3171,4785994,16240.93,-406.11,-3940.79
1691,1.691001,3172,4786994,21191.93,-148.11,-1669.79
1692,1.692001,3173,4787994,14945.93,547.89,-1181.79
1693,1.693000,3174,4788993,1589.93,718.89,-856.79
1694,1.694000,3175,4789993,-9054.07,836.89,2299.21
1695,1.695001,3176,4790994,-9397.07,-79.11,3846.21
1696,1.696001,3177,4791994,-3167.07,-477.11,2705.21
1697,1.697000,3178,4792993,3051.93,-703.11,2884.21
1698,1.698001,3179,4793994,5436.93,-641.11,2453.21
1699,1.699001,3180,4794994,1546.93,-20.11,43.210000000000036
1700,1.700000,3181,4795993,-4056.07,-363.11,58.210000000000036
1701,1.701001,3182,4796994,-12950.07,-1017.11,1871.21
1702,1.702001,3183,4797994,-18904.07,-817.11,2680.21
1703,1.703001,3184,4798994,-18663.07,-117.11,2137.21
1704,1.704001,3185,4799994,-11308.07,-337.11,2024.21
1705,1.705000,3186,4800993,145.93,289.89,2296.21
1706,1.706001,3187,4801994,4698.93,-14.11,680.21
1707,1.707001,3188,4802994,5510.93,87.89,-644.79
1708,1.708000,3189,4803993,2862.93,1087.89,-2119.79
1709,1.709000,3190,4804993,4243.93,690.89,-3004.79
1710,1.710001,3191,4805994,7774.93,456.89,-2208.79
1711,1.711000,3192,4806993,6701.93,-139.11,-1749.79
1712,1.712000,3193,4807993,1208.93,-135.11,-1898.79
1713,1.713001,3194,4808994,-6704.07,211.89,-2769.79
1714,1.714001,3195,4809994,-2026.07,151.89,-3689.79
1715,1.715001,3196,4810994,8967.93,393.89,-4729.79
1716,1.716000,3197,4811993,18963.93,-277.11,-3023.79
1717,1.717001,3198,4812994,21131.93,-155.11,-902.79
1718,1.718000,3199,4813993,8794.93,875.89,-1414.79
1719,1.719001,3200,4814994,-4509.07,774.89,409.21000000000004
1720,1.720000,3201,4815993,-10336.07,269.89,3605.21
1721,1.721001,3202,4816994,-7388.07,-205.11,3430.21
1722,1.722001,3203,4817994,1.9300000000000068,-603.11,2584.21
1723,1.723000,3204,4818993,5266.93,-736.11,2888.21
1724,1.724001,3205,4819994,4380.93,-183.11,1155.21
1725,1.725001,3206,4820994,-208.07,-198.11,-455.78999999999996
1726,1.726001,3207,4821994,-7680.07,-587.11,843.21
1727,1.727000,3208,4822993,-17799.07,-880.11,2493.21
1728,1.728001,3209,4823994,-19197.07,-710.11,2410.21
1729,1.729001,3210,4824994,-15900.07,-104.11,1616.21
1730,1.730000,3211,4825993,-6576.07,277.89,2158.21
1731,1.731001,3212,4826994,4146.93,-8.11,1495.21
1732,1.732001,3213,4827994,6230.93,-364.11,26.210000000000036
1733,1.733001,3214,4828994,3647.93,577.89,-906.79
1734,1.734000,3215,4829993,2199.93,1027.89,-2616.79
1735,1.735000,3216,4830993,6324.93,724.89,-2699.79
1736,1.736001,3217,4831994,7955.93,203.89,-1799.79
1737,1.737001,3218,4832994,4594.93,-90.11,-1502.79
1738,1.738000,3219,4833993,-2857.07,11.89,-1988.79
1739,1.739001,3220,4834994,-5978.07,59.89,-3272.79
1740,1.740001,3221,4835994,2318.93,331.89,-4404.79
1741,1.741000,3222,4836993,14215.93,-10.11,-4246.79
1742,1.742001,3223,4837994,21789.93,-239.11,-1904.79
1743,1.743000,3224,4838993,16037.93,513.89,-1182.79
1744,1.744000,3225,4839993,2390.93,775.89,-1075.79
1745,1.745000,3226,4840993,-7868.07,566.89,2010.21
1746,1.746001,3227,4841994,-10035.07,123.89,3805.21
1747,1.747000,3228,4842993,-3559.07,-620.11,2882.21
1748,1.748001,3229,4843994,2523.93,-736.11,2677.21
1749,1.749001,3230,4844994,5256.93,-431.11,2545.21
1750,1.750001,3231,4845994,2644.93,-174.11,273.21000000000004
1751,1.751001,3232,4846994,-2940.07,-120.11,-230.78999999999996
1752,1.752001,3233,4847994,-12567.07,-774.11,1893.21
1753,1.753001,3234,4848994,-18564.07,-1186.11,2851.21
1754,1.754001,3235,4849994,-18835.07,-125.11,2185.21
1755,1.755001,3236,4850994,-13034.07,61.89,1800.21
1756,1.756001,3237,4851994,-786.0699999999999,-16.11,2004.21
1757,1.757000,3238,4852993,4778.93,-217.11,950.21
1758,1.758001,3239,4853994,5703.93,-77.11,-443.78999999999996
1759,1.759001,3240,4854994,3157.93,1173.89,-1953.79
1760,1.760001,3241,4855994,3654.93,861.89,-2768.79
1761,1.761001,3242,4856994,7751.93,306.89,-2213.79
1762,1.762001,3243,4857994,6932.93,45.89,-1686.79
1763,1.763001,3244,4858994,1938.93,-308.11,-1516.79
1764,1.764001,3245,4859994,-6356.07,165.89,-2741.79
1765,1.765001,3246,4860994,-3163.07,473.89,-3850.79
1766,1.766001,3247,4861994,8360.93,203.89,-4686.79
1767,1.767001,3248,4862994,18718.93,-177.11,-3339.79
1768,1.768001,3249,4863994,21292.93,-106.11,-1043.79
1769,1.769001,3250,4864994,10150.93,438.89,-1519.79
1770,1.770000,3251,4865993,-3753.07,1011.89,-27.789999999999964
1771,1.771001,3252,4866994,-10348.07,435.89,3520.21
1772,1.772001,3253,4867994,-7685.07,-257.11,3472.21
1773,1.773001,3254,4868994,-583.0699999999999,-499.11,2496.21
1774,1.774001,3255,4869994,5171.93,-784.11,2988.21
1775,1.775001,3256,4870994,4509.93,-196.11,1444.21
1776,1.776001,3257,4871994,-53.06999999999999,-236.11,-273.78999999999996
1777,1.777001,3258,4872994,-6791.07,-660.11,700.21
1778,1.778001,3259,4873994,-17447.07,-691.11,2342.21
1779,1.779001,3260,4874994,-19556.07,-644.11,2664.21
1780,1.780001,3261,4875994,-16055.07,-247.11,1916.21
1781,1.781001,3262,4876994,-7749.07,486.89,1877.21
1782,1.782001,3263,4877994,3669.93,-25.11,1702.21
1783,1.783000,3264,4878993,6253.93,-553.11,438.21000000000004
1784,1.784001,3265,4879994,3765.93,637.89,-856.79
1785,1.785001,3266,4880994,2395.93,1018.89,-2528.79
1786,1.786001,3267,4881994,6198.93,566.89,-2738.79
1787,1.787001,3268,4882994,8321.93,330.89,-1831.79
1788,1.788001,3269,4883994,5302.93,-296.11,-1396.79
1789,1.789001,3270,4884994,-2846.07,-128.11,-2261.79
1790,1.790001,3271,4885994,-6176.07,192.89,-3497.79
1791,1.791001,3272,4886994,1418.93,408.89,-4320.79
1792,1.792001,3273,4887994,13452.93,143.89,-4397.79
1793,1.793001,3274,4888994,21757.93,-585.11,-2165.79
1794,1.794001,3275,4889994,16518.93,515.89,-1413.79
1795,1.795000,3276,4890993,3520.93,972.89,-978.79
1796,1.796001,3277,4891994,-7501.07,491.89,1933.21
1797,1.797001,3278,4892994,-9780.07,72.89,3846.21
1798,1.798001,3279,4893994,-4771.07,-431.11,3008.21
1799,1.799001,3280,4894994,1992.93,-687.11,2823.21
1800,1.800000,3281,4895993,5508.93,-662.11,2586.21
1801,1.801000,3282,4896993,2832.93,27.89,359.21000000000004
1802,1.802000,3283,4897993,-1512.07,-211.11,78.21000000000004
1803,1.803001,3284,4898994,-12224.07,-806.11,1629.21
1804,1.804001,3285,4899994,-19091.07,-917.11,2544.21
1805,1.805001,3286,4900994,-18986.07,-386.11,2313.21
1806,1.806001,3287,4901994,-13397.07,-171.11,2060.21
1807,1.807000,3288,4902993,-1408.07,140.89,2024.21
1808,1.808001,3289,4903994,4615.93,49.89,798.21
1809,1.809000,3290,4904993,5957.93,-109.11,-336.78999999999996
1810,1.810001,3291,4905994,3174.93,931.89,-1833.79
1811,1.811001,3292,4906994,2981.93,901.89,-3043.79
1812,1.812001,3293,4907994,7153.93,413.89,-2475.79
1813,1.813001,3294,4908994,7852.93,73.89,-1734.79
1814,1.814001,3295,4909994,2826.93,-450.11,-1385.79
1815,1.815001,3296,4910994,-6064.07,82.89,-2492.79
1816,1.816001,3297,4911994,-3517.07,567.89,-3799.79
1817,1.817000,3298,4912993,7323.93,430.89,-4662.79
1818,1.818001,3299,4913994,17890.93,-109.11,-3415.79
1819,1.819001,3300,4914994,21117.93,-125.11,-918.79
1820,1.820001,3301,4915994,11340.93,606.89,-1347.79
1821,1.821001,3302,4916994,-2359.07,859.89,-266.78999999999996
1822,1.822001,3303,4917994,-9874.07,144.89,3389.21
1823,1.823001,3304,4918994,-8570.07,-258.11,3410.21
1824,1.824000,3305,4919993,-1497.07,-275.11,2290.21
1825,1.825001,3306,4920994,4831.93,-803.11,3116.21
1826,1.826001,3307,4921994,4683.93,-332.11,1653.21
1827,1.827001,3308,4922994,417.93,-255.11,-384.78999999999996
1828,1.828001,3309,4923994,-6344.07,-576.11,600.21
1829,1.829001,3310,4924994,-16327.07,-901.11,2579.21
1830,1.830001,3311,4925994,-19438.07,-535.11,2641.21
1831,1.831001,3312,4926994,-16811.07,-175.11,1632.21
1832,1.832001,3313,4927994,-7740.07,-144.11,2297.21
1833,1.833001,3314,4928994,3257.93,87.89,1909.21
1834,1.834001,3315,4929994,5412.93,-98.11,-47.789999999999964
1835,1.835001,3316,4930994,3586.93,523.89,-983.79
1836,1.836001,3317,4931994,2348.93,940.89,-2511.79
1837,1.837000,3318,4932993,6054.93,689.89,-2921.79
1838,1.838001,3319,4933994,8097.93,293.89,-1869.79
1839,1.839000,3320,4934993,5873.93,-271.11,-1453.79
1840,1.840000,3321,4935993,-1661.07,-99.11,-1981.79
1841,1.841001,3322,4936994,-6798.07,307.89,-3213.79
1842,1.842001,3323,4937994,539.9300000000001,426.89,-4145.79
1843,1.843001,3324,4938994,12535.93,222.89,-4407.79
1844,1.844000,3325,4939993,21331.93,-332.11,-2352.79
1845,1.845000,3326,4940993,18458.93,34.89,-953.79
1846,1.846001,3327,4941994,4774.93,851.89,-1169.79
1847,1.847001,3328,4942994,-7294.07,844.89,1561.21
1848,1.848001,3329,4943994,-10653.07,-16.11,4041.21
1849,1.849001,3330,4944994,-5754.07,-365.11,2896.21
1850,1.850001,3331,4945994,1710.93,-657.11,2582.21
1851,1.851001,3332,4946994,5710.93,-871.11,2736.21
1852,1.852001,3333,4947994,3290.93,23.89,416.21000000000004
1853,1.853001,3334,4948994,-931.0699999999999,-116.11,-227.78999999999996
1854,1.854001,3335,4949994,-12147.07,-689.11,1574.21
1855,1.855001,3336,4950994,-19339.07,-1020.11,2610.21
1856,1.856001,3337,4951994,-18583.07,-517.11,2248.21
1857,1.857000,3338,4952993,-14179.07,161.89,1953.21
1858,1.858000,3339,4953993,-1968.07,161.89,2327.21
1859,1.859001,3340,4954994,5129.93,-147.11,906.21
1860,1.860001,3341,4955994,6361.93,-162.11,-371.78999999999996
1861,1.861001,3342,4956994,3188.93,791.89,-1600.79
1862,1.862001,3343,4957994,2514.93,1077.89,-3035.79
1863,1.863000,3344,4958993,7137.93,435.89,-2479.79
1864,1.864001,3345,4959994,7414.93,-34.11,-1783.79
1865,1.865001,3346,4960994,3188.93,-286.11,-1528.79
1866,1.866001,3347,4961994,-5460.07,2.8900000000000006,-2411.79
1867,1.867001,3348,4962994,-4370.07,584.89,-3638.79
1868,1.868001,3349,4963994,6784.93,175.89,-4698.79
1869,1.869000,3350,4964993,17128.93,-349.11,-3531.79
1870,1.870001,3351,4965994,21308.93,-32.11,-994.79
1871,1.871000,3352,4966993,12159.93,591.89,-1395.79
1872,1.872001,3353,4967994,-1843.07,1087.89,-495.78999999999996
1873,1.873001,3354,4968994,-9560.07,400.89,3124.21
1874,1.874001,3355,4969994,-8297.07,-203.11,3729.21
1875,1.875001,3356,4970994,-1628.07,-480.11,2531.21
1876,1.876001,3357,4971994,4703.93,-955.11,3057.21
1877,1.877000,3358,4972993,4420.93,-168.11,1695.21
1878,1.878001,3359,4973994,148.93,-184.11,-340.78999999999996
1879,1.879001,3360,4974994,-5473.07,-698.11,476.21000000000004
1880,1.880001,3361,4975994,-15357.07,-988.11,2229.21
1881,1.881001,3362,4976994,-19292.07,-722.11,2631.21
1882,1.882001,3363,4977994,-17804.07,-163.11,1643.21
1883,1.883000,3364,4978993,-8556.07,-231.11,2072.21
1884,1.884001,3365,4979994,2519.93,193.89,2026.21
1885,1.885001,3366,4980994,5208.93,190.89,216.21000000000004
1886,1.886001,3367,4981994,4601.93,416.89,-815.79
1887,1.887001,3368,4982994,2648.93,975.89,-2136.79
1888,1.888001,3369,4983994,5588.93,671.89,-2679.79
1889,1.889001,3370,4984994,7913.93,349.89,-2038.79
1890,1.890001,3371,4985994,6131.93,-125.11,-1649.79
1891,1.891001,3372,4986994,-1105.07,-209.11,-1936.79
1892,1.892001,3373,4987994,-6504.07,244.89,-3115.79
1893,1.893001,3374,4988994,-182.07,302.89,-4152.79
1894,1.894001,3375,4989994,11498.93,140.89,-4691.79
1895,1.895001,3376,4990994,21136.93,-154.11,-2565.79
1896,1.896001,3377,4991994,18478.93,175.89,-1096.79
1897,1.897001,3378,4992994,5718.93,712.89,-1351.79
1898,1.898001,3379,4993994,-6606.07,706.89,1428.21
1899,1.899001,3380,4994994,-10569.07,75.89,3922.21
1900,1.900000,3381,4995993,-5764.07,-334.11,3000.21
1901,1.901001,3382,4996994,1313.93,-680.11,2642.21
1902,1.902000,3383,4997993,5828.93,-708.11,2829.21
1903,1.903001,3384,4998994,3497.93,-102.11,801.21
1904,1.904001,3385,4999994,-795.0699999999999,-225.11,-93.78999999999996
1905,1.905001,3386,5000994,-11555.07,-460.11,1364.21
1906,1.906001,3387,5001994,-19547.07,-995.11,2649.21
1907,1.907000,3388,5002993,-18602.07,-547.11,2431.21
1908,1.908001,3389,5003994,-14646.07,102.89,1775.21
1909,1.909001,3390,5004994,-2880.07,82.89,2241.21
1910,1.910001,3391,5005994,5011.93,-166.11,1002.21
1911,1.911001,3392,5006994,6212.93,-194.11,-349.78999999999996
1912,1.912000,3393,5007993,3258.93,935.89,-1435.79
1913,1.913000,3394,5008993,2804.93,889.89,-2888.79
1914,1.914001,3395,5009994,6897.93,423.89,-2554.79
1915,1.915000,3396,5010993,7700.93,19.89,-1906.79
1916,1.916001,3397,5011994,3700.93,-311.11,-1737.79
1917,1.917001,3398,5012994,-4940.07,92.89,-2495.79
1918,1.918000,3399,5013993,-4623.07,288.89,-3499.79
1919,1.919001,3400,5014994,5607.93,326.89,-4652.79
1920,1.920001,3401,5015994,16826.93,-5.109999999999999,-3730.79
1921,1.921001,3402,5016994,21552.93,-246.11,-1191.79
1922,1.922001,3403,5017994,13086.93,596.89,-1330.79
1923,1.923000,3404,5018993,-908.0699999999999,1126.89,-476.78999999999996
1924,1.924001,3405,5019994,-9421.07,359.89,3225.21
1925,1.925000,3406,5020993,-8918.07,-175.11,3777.21
1926,1.926001,3407,5021994,-2100.07,-474.11,2455.21
1927,1.927001,3408,5022994,3894.93,-724.11,2925.21
1928,1.928001,3409,5023994,4734.93,-327.11,1989.21
1929,1.929001,3410,5024994,981.9300000000001,-298.11,-11.789999999999964
1930,1.930000,3411,5025993,-5442.07,-417.11,280.21000000000004
1931,1.931001,3412,5026994,-14776.07,-871.11,2088.21
1932,1.932001,3413,5027994,-18977.07,-854.11,2745.21
1933,1.933000,3414,5028993,-18347.07,19.89,1765.21
1934,1.934000,3415,5029993,-9705.07,-82.11,1989.21
1935,1.935000,3416,5030993,2327.93,51.89,1854.21
1936,1.936001,3417,5031994,5678.93,-104.11,285.21000000000004
1937,1.937001,3418,5032994,4816.93,168.89,-560.79
1938,1.938000,3419,5033993,2572.93,1051.89,-2345.79
1939,1.939001,3420,5034994,5437.93,739.89,-2932.79
1940,1.940001,3421,5035994,7867.93,125.89,-2041.79
1941,1.941001,3422,5036994,6270.93,-211.11,-1515.79
1942,1.942000,3423,5037993,-492.07,50.89,-1749.79
1943,1.943001,3424,5038994,-7023.07,389.89,-3116.79
1944,1.944001,3425,5039994,-347.07,307.89,-4012.79
1945,1.945001,3426,5040994,10820.93,241.89,-4531.79
1946,1.946000,3427,5041993,20518.93,-455.11,-2659.79
1947,1.947001,3428,5042994,19548.93,-31.11,-1022.79
1948,1.948001,3429,5043994,5666.93,1016.89,-1454.79
1949,1.949001,3430,5044994,-5925.07,634.89,1266.21
1950,1.950001,3431,5045994,-10648.07,160.89,3891.21
1951,1.951001,3432,5046994,-6330.07,-138.11,2975.21
1952,1.952001,3433,5047994,1568.93,-845.11,2769.21
1953,1.953001,3434,5048994,5315.93,-506.11,2721.21
1954,1.954001,3435,5049994,3917.93,-11.11,974.21
1955,1.955000,3436,5050993,33.93000000000001,-502.11,-92.78999999999996
1956,1.956000,3437,5051993,-11031.07,-269.11,901.21
1957,1.957001,3438,5052994,-19422.07,-972.11,2590.21
1958,1.958001,3439,5053994,-18315.07,-834.11,2623.21
1959,1.959001,3440,5054994,-14999.07,197.89,1713.21
1960,1.960001,3441,5055994,-3393.07,-97.11,2116.21
1961,1.961001,3442,5056994,4657.93,-254.11,1004.21
1962,1.962000,3443,5057993,5749.93,50.89,-314.78999999999996
1963,1.963001,3444,5058994,3266.93,756.89,-1337.79
1964,1.964001,3445,5059994,2220.93,1022.89,-2948.79
1965,1.965001,3446,5060994,7092.93,509.89,-2420.79
1966,1.966000,3447,5061993,8287.93,10.89,-1557.79
1967,1.967001,3448,5062994,3656.93,-72.11,-1341.79
1968,1.968000,3449,5063993,-4503.07,-33.11,-2161.79
1969,1.969001,3450,5064994,-5313.07,412.89,-3574.79
1970,1.970001,3451,5065994,4808.93,488.89,-4634.79
1971,1.971001,3452,5066994,16703.93,-251.11,-3860.79
1972,1.972001,3453,5067994,21788.93,-6.109999999999999,-1456.79
1973,1.973001,3454,5068994,14085.93,352.89,-1204.79
1974,1.974001,3455,5069994,-61.06999999999999,572.89,-655.79
1975,1.975001,3456,5070994,-9751.07,646.89,2666.21
1976,1.976000,3457,5071993,-9582.07,47.89,3760.21
1977,1.977000,3458,5072993,-2464.07,-602.11,2480.21
1978,1.978001,3459,5073994,3983.93,-800.11,2794.21
1979,1.979001,3460,5074994,5174.93,-315.11,2136.21
1980,1.980001,3461,5075994,1234.93,-209.11,-163.78999999999996
1981,1.981001,3462,5076994,-5033.07,-326.11,83.21000000000004
1982,1.982000,3463,5077993,-14209.07,-1078.11,2316.21
1983,1.983000,3464,5078993,-18947.07,-807.11,2936.21
1984,1.984001,3465,5079994,-18572.07,232.89,1869.21
1985,1.985001,3466,5080994,-9843.07,94.89,1891.21
1986,1.986001,3467,5081994,1732.93,-72.11,2086.21
1987,1.987001,3468,5082994,5282.93,-370.11,706.21
1988,1.988000,3469,5083993,4498.93,279.89,-728.79
1989,1.989001,3470,5084994,2254.93,1103.89,-2431.79
1990,1.990001,3471,5085994,5022.93,640.89,-2925.79
1991,1.991001,3472,5086994,8068.93,258.89,-2113.79
1992,1.992001,3473,5087994,6845.93,-172.11,-1715.79
1993,1.993000,3474,5088993,161.93,-208.11,-1887.79
1994,1.994000,3475,5089993,-6953.07,372.89,-2988.79
1995,1.995000,3476,5090993,-1464.07,338.89,-3989.79
1996,1.996000,3477,5091993,10465.93,275.89,-4677.79
1997,1.997001,3478,5092994,20252.93,-243.11,-2667.79
1998,1.998001,3479,5093994,20125.93,-143.11,-708.79
1999,1.999001,3480,5094994,7569.93,843.89,-1229.79
2000,2.000000,3481,5095993,-5828.07,857.89,856.21
2001,2.001001,3482,5096994,-10864.07,232.89,3728.21
2002,2.002000,3483,5097993,-6860.07,-189.11,3178.21
2003,2.003001,3484,5098994,661.9300000000001,-644.11,2421.21
2004,2.004001,3485,5099994,5613.93,-670.11,2678.21
2005,2.005000,3486,5100993,4116.93,-287.11,1001.21
2006,2.006000,3487,5101993,184.93,-411.11,-344.78999999999996
2007,2.007001,3488,5102994,-10290.07,-426.11,1037.21
2008,2.008001,3489,5103994,-19449.07,-886.11,2475.21
2009,2.009001,3490,5104994,-18646.07,-725.11,2215.21
2010,2.010001,3491,5105994,-15127.07,-79.11,1966.21
2011,2.011000,3492,5106993,-4032.07,27.89,2650.21
2012,2.012001,3493,5107994,4846.93,40.89,1208.21
2013,2.013000,3494,5108993,6267.93,-56.11,-212.78999999999996
2014,2.014000,3495,5109993,3376.93,660.89,-1237.79
2015,2.015001,3496,5110994,2317.93,1115.89,-2839.79
2016,2.016001,3497,5111994,6593.93,532.89,-2543.79
2017,2.017001,3498,5112994,7737.93,-78.11,-1667.79
2018,2.018001,3499,5113994,4132.93,-412.11,-1448.79
2019,2.019000,3500,5114993,-4046.07,49.89,-2552.79
2020,2.020001,3501,5115994,-5396.07,608.89,-3512.79
2021,2.021001,3502,5116994,4004.93,256.89,-4512.79
2022,2.022000,3503,5117993,15901.93,-123.11,-4108.79
2023,2.023001,3504,5118994,21542.93,63.89,-1585.79
2024,2.024001,3505,5119994,14470.93,335.89,-1270.79
2025,2.025000,3506,5120993,402.93,918.89,-765.79
2026,2.026000,3507,5121993,-8570.07,416.89,2753.21
2027,2.027001,3508,5122994,-9083.07,-232.11,3704.21
2028,2.028001,3509,5123994,-3349.07,-171.11,2617.21
2029,2.029001,3510,5124994,3648.93,-933.11,3226.21
2030,2.030001,3511,5125994,5029.93,-346.11,2044.21
2031,2.031001,3512,5126994,1412.93,16.89,-86.78999999999996
2032,2.032001,3513,5127994,-3867.07,-622.11,240.21000000000004
2033,2.033001,3514,5128994,-13624.07,-896.11,1963.21
2034,2.034001,3515,5129994,-18489.07,-897.11,2860.21
2035,2.035001,3516,5130994,-18997.07,0.8900000000000006,1802.21
2036,2.036000,3517,5131993,-11002.07,-322.11,2074.21
2037,2.037001,3518,5132994,971.9300000000001,-72.11,2140.21
2038,2.038001,3519,5133994,4550.93,249.89,296.21000000000004
2039,2.039001,3520,5134994,5315.93,121.89,-548.79
2040,2.040001,3521,5135994,2790.93,987.89,-2135.79
2041,2.041001,3522,5136994,4708.93,814.89,-2871.79
2042,2.042001,3523,5137994,7472.93,458.89,-2185.79
2043,2.043001,3524,5138994,6690.93,-120.11,-1698.79
2044,2.044001,3525,5139994,937.9300000000001,-347.11,-1705.79
2045,2.045000,3526,5140993,-6668.07,274.89,-2818.79
2046,2.046001,3527,5141994,-1602.07,292.89,-3824.79
2047,2.047001,3528,5142994,9646.93,293.89,-4703.79
2048,2.048001,3529,5143994,19390.93,-303.11,-2898.79
2049,2.049001,3530,5144994,20254.93,-151.11,-849.79
2050,2.050001,3531,5145994,8376.93,867.89,-1531.79
2051,2.051001,3532,5146994,-4965.07,969.89,426.21000000000004
2052,2.052001,3533,5147994,-10377.07,289.89,3736.21
2053,2.053001,3534,5148994,-7043.07,-370.11,3361.21
2054,2.054000,3535,5149993,194.93,-582.11,2501.21
2055,2.055001,3536,5150994,5585.93,-682.11,2861.21
2056,2.056001,3537,5151994,4037.93,-217.11,1142.21
2057,2.057001,3538,5152994,5.930000000000007,-278.11,-294.78999999999996
2058,2.058001,3539,5153994,-8688.07,-551.11,992.21
2059,2.059001,3540,5154994,-18818.07,-788.11,2476.21
2060,2.060001,3541,5155994,-19132.07,-671.11,2434.21
2061,2.061001,3542,5156994,-15506.07,-286.11,1773.21
2062,2.062001,3543,5157994,-5513.07,303.89,2139.21
2063,2.063001,3544,5158994,4562.93,52.89,1460.21
2064,2.064001,3545,5159994,6253.93,-343.11,78.21000000000004
2065,2.065001,3546,5160994,3458.93,640.89,-1072.79
2066,2.066001,3547,5161994,2295.93,1046.89,-2742.79
2067,2.067001,3548,5162994,6497.93,701.89,-2656.79
2068,2.068001,3549,5163994,8012.93,22.89,-1804.79
2069,2.069001,3550,5164994,4632.93,-242.11,-1573.79
2070,2.070001,3551,5165994,-3265.07,-125.11,-2078.79
2071,2.071001,3552,5166994,-6174.07,207.89,-3468.79
2072,2.072001,3553,5167994,2702.93,536.89,-4644.79
2073,2.073001,3554,5168994,15364.93,-73.11,-4007.79
2074,2.074000,3555,5169993,21476.93,-146.11,-1804.79
2075,2.075001,3556,5170994,15686.93,385.89,-1162.79
2076,2.076001,3557,5171994,1658.93,698.89,-992.79
2077,2.077001,3558,5172994,-8607.07,833.89,2216.21
2078,2.078001,3559,5173994,-9444.07,25.89,4087.21
2079,2.079000,3560,5174993,-3660.07,-587.11,2826.21
2080,2.080000,3561,5175993,2845.93,-630.11,2999.21
2081,2.081001,3562,5176994,5201.93,-479.11,2495.21
2082,2.082001,3563,5177994,2474.93,-128.11,48.210000000000036
2083,2.083001,3564,5178994,-3065.07,-295.11,75.21000000000004
2084,2.084001,3565,5179994,-13159.07,-966.11,1825.21
2085,2.085001,3566,5180994,-18933.07,-1007.11,2524.21
2086,2.086001,3567,5181994,-19373.07,-153.11,1898.21
2087,2.087001,3568,5182994,-12280.07,-57.11,1850.21
2088,2.088000,3569,5183993,33.93000000000001,58.89,2231.21
2089,2.089001,3570,5184994,5004.93,-165.11,416.21000000000004
2090,2.090001,3571,5185994,5725.93,132.89,-680.79
2091,2.091001,3572,5186994,3094.93,1086.89,-1757.79
2092,2.092001,3573,5187994,4100.93,765.89,-2813.79
2093,2.093001,3574,5188994,7376.93,502.89,-2334.79
2094,2.094001,3575,5189994,7422.93,-100.11,-1519.79
2095,2.095001,3576,5190994,1456.93,-354.11,-1318.79
2096,2.096001,3577,5191994,-6537.07,199.89,-2679.79
2097,2.097001,3578,5192994,-2449.07,393.89,-3996.79
2098,2.098001,3579,5193994,8615.93,389.89,-4925.79
2099,2.099001,3580,5194994,18758.93,-253.11,-2991.79
2100,2.100001,3581,5195994,21113.93,-300.11,-1010.79
2101,2.101001,3582,5196994,9354.93,776.89,-1806.79
2102,2.102001,3583,5197994,-4649.07,1069.89,364.21000000000004
2103,2.103001,3584,5198994,-10404.07,219.89,3811.21
2104,2.104001,3585,5199994,-7532.07,-195.11,3170.21
2105,2.105001,3586,5200994,223.93,-594.11,2460.21
2106,2.106001,3587,5201994,5676.93,-811.11,3253.21
2107,2.107001,3588,5202994,4496.93,-136.11,1390.21
2108,2.108001,3589,5203994,-140.07,-157.11,-376.78999999999996
2109,2.109001,3590,5204994,-7882.07,-534.11,855.21
2110,2.110000,3591,5205993,-18237.07,-877.11,2559.21
2111,2.111001,3592,5206994,-19311.07,-750.11,2522.21
2112,2.112000,3593,5207993,-15728.07,-209.11,1606.21
2113,2.113000,3594,5208993,-6771.07,327.89,2012.21
2114,2.114000,3595,5209993,4008.93,-105.11,1450.21
2115,2.115001,3596,5210994,6052.93,-440.11,-9.789999999999964
2116,2.116001,3597,5211994,3264.93,673.89,-1049.79
2117,2.117000,3598,5212993,2272.93,1063.89,-2535.79
2118,2.118001,3599,5213994,6704.93,559.89,-2586.79
2119,2.119001,3600,5214994,8338.93,196.89,-1729.79
2120,2.120001,3601,5215994,4973.93,49.89,-1463.79
2121,2.121001,3602,5216994,-2775.07,-144.11,-2064.79
2122,2.122001,3603,5217994,-5918.07,189.89,-3179.79
2123,2.123001,3604,5218994,1829.93,416.89,-4346.79
2124,2.124001,3605,5219994,14243.93,-20.11,-4414.79
2125,2.125000,3606,5220993,21811.93,-215.11,-1990.79
2126,2.126001,3607,5221994,16194.93,459.89,-1100.79
2127,2.127001,3608,5222994,2846.93,788.89,-1097.79
2128,2.128001,3609,5223994,-8350.07,418.89,1904.21
2129,2.129000,3610,5224993,-10085.07,109.89,3816.21
2130,2.130000,3611,5225993,-4100.07,-430.11,2800.21
2131,2.131000,3612,5226993,2608.93,-838.11,2758.21
2132,2.132001,3613,5227994,5658.93,-504.11,2504.21
2133,2.133000,3614,5228993,2436.93,-189.11,294.21000000000004
2134,2.134001,3615,5229994,-2525.07,-214.11,30.210000000000036
2135,2.135001,3616,5230994,-13018.07,-508.11,1717.21
2136,2.136001,3617,5231994,-18806.07,-994.11,2720.21
2137,2.137000,3618,5232993,-18669.07,-346.11,2227.21
2138,2.138001,3619,5233994,-13000.07,2.8900000000000006,1920.21
2139,2.139001,3620,5234994,-540.0699999999999,18.89,2335.21
2140,2.140000,3621,5235993,4943.93,-207.11,778.21
2141,2.141001,3622,5236994,5818.93,21.89,-718.79
2142,2.142001,3623,5237994,3047.93,1023.89,-1992.79
2143,2.143001,3624,5238994,3503.93,898.89,-2895.79
2144,2.144000,3625,5239993,7399.93,429.89,-2310.79
2145,2.145001,3626,5240994,7421.93,-73.11,-1733.79
2146,2.146000,3627,5241993,2087.93,-295.11,-1504.79
2147,2.147001,3628,5242994,-6122.07,264.89,-2526.79
2148,2.148000,3629,5243993,-2779.07,422.89,-3703.79
2149,2.149001,3630,5244994,7950.93,365.89,-4711.79
2150,2.150001,3631,5245994,18057.93,-321.11,-3209.79
2151,2.151001,3632,5246994,21170.93,-370.11,-974.79
2152,2.152000,3633,5247993,10388.93,839.89,-1551.79
2153,2.153000,3634,5248993,-3589.07,1037.89,55.210000000000036
2154,2.154000,3635,5249993,-10105.07,330.89,3532.21
2155,2.155001,3636,5250994,-7719.07,-268.11,3401.21
2156,2.156000,3637,5251993,-710.0699999999999,-660.11,2481.21
2157,2.157001,3638,5252994,5081.93,-796.11,2963.21
2158,2.158001,3639,5253994,4481.93,-277.11,1350.21
2159,2.159000,3640,5254993,34.93000000000001,-214.11,-407.78999999999996
2160,2.160001,3641,5255994,-7224.07,-466.11,596.21
2161,2.161001,3642,5256994,-17434.07,-740.11,2304.21
2162,2.162001,3643,5257994,-19364.07,-771.11,2657.21
2163,2.163001,3644,5258994,-16036.07,-361.11,1907.21
2164,2.164001,3645,5259994,-6234.07,-268.11,2462.21
2165,2.165001,3646,5260994,3712.93,150.89,1765.21
2166,2.166001,3647,5261994,5315.93,217.89,-6.789999999999964
2167,2.167001,3648,5262994,3541.93,462.89,-832.79
2168,2.168001,3649,5263994,2261.93,1025.89,-2494.79
2169,2.169001,3650,5264994,5899.93,587.89,-2684.79
2170,2.170001,3651,5265994,8072.93,362.89,-2028.79
2171,2.171001,3652,5266994,5621.93,-127.11,-1576.79
2172,2.172000,3653,5267993,-2463.07,-364.11,-1974.79
2173,2.173001,3654,5268994,-6548.07,340.89,-3378.79
2174,2.174001,3655,5269994,1101.93,499.89,-4399.79
2175,2.175001,3656,5270994,13573.93,-24.11,-4446.79
2176,2.176001,3657,5271994,21499.93,-307.11,-2110.79
2177,2.177001,3658,5272994,17474.93,238.89,-977.79
2178,2.178001,3659,5273994,4086.93,983.89,-1080.79
2179,2.179000,3660,5274993,-7729.07,817.89,1877.21
2180,2.180001,3661,5275994,-10240.07,-108.11,4050.21
2181,2.181001,3662,5276994,-4981.07,-398.11,2830.21
2182,2.182001,3663,5277994,2241.93,-642.11,2731.21
2183,2.183001,3664,5278994,5530.93,-634.11,2426.21
2184,2.184001,3665,5279994,2878.93,-43.11,284.21000000000004
2185,2.185000,3666,5280993,-1448.07,-315.11,61.210000000000036
2186,2.186001,3667,5281994,-12600.07,-771.11,1576.21
2187,2.187000,3668,5282993,-19368.07,-1095.11,2731.21
2188,2.188001,3669,5283994,-19302.07,-307.11,2115.21
2189,2.189001,3670,5284994,-13808.07,225.89,1664.21
2190,2.190001,3671,5285994,-1088.07,231.89,2304.21
2191,2.191000,3672,5286993,5392.93,-248.11,1163.21
2192,2.192001,3673,5287994,6369.93,-188.11,-316.78999999999996
2193,2.193001,3674,5288994,3171.93,970.89,-1692.79
2194,2.194000,3675,5289993,3095.93,897.89,-2872.79
2195,2.195001,3676,5290994,7062.93,507.89,-2491.79
2196,2.196001,3677,5291994,7443.93,-123.11,-1626.79
2197,2.197001,3678,5292994,2371.93,-391.11,-1507.79
2198,2.198000,3679,5293993,-5845.07,236.89,-2770.79
2199,2.199000,3680,5294993,-3245.07,323.89,-3820.79
2200,2.200001,3681,5295994,7414.93,307.89,-4765.79
2201,2.201000,3682,5296993,17748.93,-105.11,-3414.79
2202,2.202001,3683,5297994,21418.93,-427.11,-1049.79
2203,2.203001,3684,5298994,10828.93,936.89,-1553.79
2204,2.204001,3685,5299994,-2885.07,1249.89,-155.78999999999996
2205,2.205001,3686,5300994,-9611.07,81.89,3414.21
2206,2.206001,3687,5301994,-8065.07,-256.11,3601.21
2207,2.207001,3688,5302994,-892.0699999999999,-558.11,2616.21
2208,2.208001,3689,5303994,4827.93,-756.11,3045.21
2209,2.209000,3690,5304993,4403.93,-182.11,1784.21
2210,2.210000,3691,5305993,79.93,-285.11,-152.78999999999996
2211,2.211001,3692,5306994,-6409.07,-496.11,377.21000000000004
2212,2.212000,3693,5307993,-16062.07,-948.11,2341.21
2213,2.213001,3694,5308994,-19073.07,-790.11,2852.21
2214,2.214000,3695,5309993,-17078.07,-114.11,1541.21
2215,2.215001,3696,5310994,-7648.07,-383.11,1968.21
2216,2.216001,3697,5311994,2847.93,32.89,1766.21
2217,2.217001,3698,5312994,4818.93,248.89,-34.789999999999964
2218,2.218001,3699,5313994,3931.93,485.89,-885.79
2219,2.219001,3700,5314994,2706.93,988.89,-2380.79
2220,2.220001,3701,5315994,6114.93,468.89,-2538.79
2221,2.221001,3702,5316994,8308.93,224.89,-1868.79
2222,2.222001,3703,5317994,5951.93,46.89,-1511.79
2223,2.223000,3704,5318993,-1810.07,-111.11,-2011.79
2224,2.224001,3705,5319994,-6558.07,308.89,-3252.79
2225,2.225001,3706,5320994,334.93,387.89,-4100.79
2226,2.226001,3707,5321994,12490.93,20.89,-4576.79
2227,2.227001,3708,5322994,21690.93,-223.11,-2431.79
2228,2.228000,3709,5323993,18231.93,202.89,-927.79
2229,2.229001,3710,5324994,4158.93,639.89,-1170.79
2230,2.230000,3711,5325993,-7583.07,723.89,1252.21
2231,2.231001,3712,5326994,-10374.07,201.89,3852.21
2232,2.232001,3713,5327994,-5400.07,-365.11,3073.21
2233,2.233001,3714,5328994,2129.93,-702.11,2789.21
2234,2.234000,3715,5329993,5953.93,-672.11,2713.21
