row,seconds,esp32_index,micros,ax,ay,az
0,0.000000,99,1714011,-15567.99,-504.73,-8324.939999999999
1,0.001000,100,1715011,-18564.99,202.27,-1762.9399999999996
2,0.002000,101,1716011,-4811.99,265.27,-2480.9399999999996
3,0.003000,102,1717011,9659.01,81.27,-7870.94
4,0.004000,103,1718011,18158.01,1630.27,-9263.939999999999
5,0.004999,104,1719010,18609.01,2331.27,-4662.94
6,0.006000,105,1720011,8557.01,-175.73,2407.0600000000004
7,0.007000,106,1721011,-2738.99,-2903.73,10815.060000000001
8,0.008000,107,1722011,-10278.99,-3241.73,12981.060000000001
9,0.009000,108,1723011,-9451.99,-2299.73,8303.060000000001
10,0.010000,109,1724011,-4426.99,-1551.73,2596.0600000000004
11,0.011000,110,1725011,3502.01,-1771.73,3387.0600000000004
12,0.012000,111,1726011,10097.01,-3373.73,7868.06
13,0.013000,112,1727011,9661.01,-3388.73,5848.06
14,0.014000,113,1728011,506.01,-2052.73,848.0600000000004
15,0.015000,114,1729011,-12511.99,-1877.73,5400.06
16,0.016000,115,1730011,-18031.99,-1324.73,7306.06
17,0.017000,116,1731011,-21490.99,3519.27,-4454.94
18,0.018000,117,1732011,-22338.99,8142.27,-12085.939999999999
19,0.019000,118,1733011,-9832.99,6508.27,-7319.94
20,0.020000,119,1734011,6694.01,2890.27,2132.0600000000004
21,0.021000,120,1735011,21186.01,-203.73,7083.06
22,0.021999,121,1736010,28097.01,-2748.73,7449.06
23,0.023000,122,1737011,23737.01,-2373.73,3178.0600000000004
24,0.024000,123,1738011,11724.01,1182.27,-6500.94
25,0.024999,124,1739010,-105.99000000000001,3141.27,-13572.939999999999
26,0.026000,125,1740011,-15286.99,2416.27,-13774.939999999999
27,0.027000,126,1741011,-22194.99,315.27,-8807.939999999999
28,0.028000,127,1742011,-13743.99,-2001.73,-2396.9399999999996
29,0.028999,128,1743010,-4192.99,-798.73,-3192.9399999999996
30,0.030000,129,1744011,8525.01,1321.27,-9100.939999999999
31,0.031000,130,1745011,19095.01,1608.27,-9313.939999999999
32,0.032000,131,1746011,19938.01,748.27,-1283.9399999999996
33,0.033000,132,1747011,12067.01,-807.73,7283.06
34,0.034000,133,1748011,577.01,-3478.73,11666.060000000001
35,0.035000,134,1749011,-8433.99,-3165.73,9138.060000000001
36,0.036000,135,1750011,-10668.99,422.27,307.0600000000004
37,0.036999,136,1751010,-8634.99,-991.73,3456.0600000000004
38,0.038000,137,1752011,3826.01,-3526.73,11235.060000000001
39,0.038999,138,1753010,7256.01,-4193.73,8889.060000000001
40,0.040000,139,1754011,5388.01,-4797.73,7455.06
41,0.040999,140,1755010,5128.01,-3504.73,7475.06
42,0.042000,141,1756011,-12617.99,-1404.73,6487.06
43,0.043000,142,1757011,-18793.99,443.27,3125.0600000000004
44,0.044000,143,1758011,-19754.99,4853.27,-4940.94
45,0.044999,144,1759010,-18542.99,9029.27,-12225.939999999999
46,0.046000,145,1760011,-9223.99,8067.27,-13191.939999999999
47,0.047000,146,1761011,2843.01,4275.27,-4811.94
48,0.048000,147,1762011,18747.01,32.269999999999996,6545.06
49,0.048999,148,1763010,24095.01,-2713.73,6656.06
50,0.050000,149,1764011,20877.01,-2547.73,-1589.9399999999996
51,0.050999,150,1765010,13984.01,-223.73,-5634.94
52,0.052000,151,1766011,3949.01,1083.27,-7977.94
53,0.053000,152,1767011,-9532.99,-131.73,-8823.939999999999
54,0.054000,153,1768011,-18773.99,-1743.73,-3562.9399999999996
55,0.054999,154,1769010,-14372.99,-1013.73,61.0600000000004
56,0.056000,155,1770011,-2300.99,847.27,-5362.94
57,0.057000,156,1771011,8374.01,1128.27,-9319.939999999999
58,0.057999,157,1772010,17547.01,1596.27,-6119.94
59,0.059000,158,1773011,19092.01,2033.27,-1990.9399999999996
60,0.060000,159,1774011,9618.01,-266.73,3565.0600000000004
61,0.061000,160,1775011,-5104.99,-912.73,7269.06
62,0.062000,161,1776011,-14293.99,-1329.73,7273.06
63,0.063000,162,1777011,-9147.99,-1838.73,3798.0600000000004
64,0.064000,163,1778011,-5120.99,-2170.73,4380.06
65,0.065000,164,1779011,891.01,-3133.73,8930.060000000001
66,0.066000,165,1780011,7966.01,-4643.73,9442.060000000001
67,0.067000,166,1781011,12707.01,-6201.73,8383.060000000001
68,0.068000,167,1782011,7546.01,-4044.73,7771.06
69,0.069000,168,1783011,-11349.99,-957.73,5434.06
70,0.069999,169,1784010,-19445.99,1839.27,-1295.9399999999996
71,0.071000,170,1785011,-24196.99,5552.27,-7353.94
72,0.072000,171,1786011,-22697.99,6592.27,-5157.94
73,0.073000,172,1787011,-7823.99,5158.27,-3721.9399999999996
74,0.074000,173,1788011,6671.01,5065.27,-4742.94
75,0.075000,174,1789011,22586.01,1881.27,160.0600000000004
76,0.076000,175,1790011,28737.01,-2660.73,3926.0600000000004
77,0.077000,176,1791011,22847.01,-3063.73,2908.0600000000004
78,0.078000,177,1792011,6826.01,-305.73,-2349.9399999999996
79,0.079000,178,1793011,-2484.99,2036.27,-11587.939999999999
80,0.080000,179,1794011,-12609.99,2294.27,-15035.939999999999
81,0.081000,180,1795011,-22781.99,831.27,-9202.939999999999
82,0.082000,181,1796011,-13830.99,-598.73,-2670.9399999999996
83,0.083000,182,1797011,-696.99,-1634.73,-928.9399999999996
84,0.084000,183,1798011,16504.01,-1359.73,-3504.9399999999996
85,0.085000,184,1799011,22276.01,1406.27,-6485.94
86,0.086000,185,1800011,18570.01,2263.27,-3945.9399999999996
87,0.087000,186,1801011,5552.01,-455.73,4887.06
88,0.088000,187,1802011,-6252.99,-3107.73,12974.060000000001
89,0.088999,188,1803010,-13625.99,-2488.73,12307.060000000001
90,0.090000,189,1804011,-12148.99,-1141.73,6832.06
91,0.091000,190,1805011,-2797.99,-216.73,-436.9399999999996
92,0.092000,191,1806011,6210.01,-1676.73,645.0600000000004
93,0.093000,192,1807011,10728.01,-3936.73,8454.060000000001
94,0.094000,193,1808011,6266.01,-3985.73,6279.06
95,0.095000,194,1809011,-550.99,-3361.73,5154.06
96,0.096000,195,1810011,-13739.99,-2152.73,7131.06
97,0.097000,196,1811011,-21769.99,1035.27,683.0600000000004
98,0.098000,197,1812011,-22793.99,5437.27,-7485.94
99,0.099000,198,1813011,-16720.99,6909.27,-9830.939999999999
100,0.099999,199,1814010,-5307.99,5198.27,-5477.94
101,0.101000,200,1815011,11246.01,1865.27,4193.06
102,0.102000,201,1816011,25006.01,-1530.73,8552.060000000001
103,0.103000,202,1817011,28505.01,-3173.73,6984.06
104,0.104000,203,1818011,21562.01,-750.73,-201.9399999999996
105,0.105000,204,1819011,6794.01,3063.27,-11290.939999999999
106,0.106000,205,1820011,-5535.99,3632.27,-14677.939999999999
107,0.107000,206,1821011,-16481.99,965.27,-10485.939999999999
108,0.108000,207,1822011,-23320.99,-863.73,-5414.94
109,0.109000,208,1823011,-15289.99,907.27,-3539.9399999999996
110,0.110000,209,1824011,2586.01,782.27,-6207.94
111,0.111000,210,1825011,16693.01,-845.73,-8842.939999999999
112,0.111999,211,1826010,22098.01,1115.27,-6625.94
113,0.113000,212,1827011,15844.01,1106.27,479.0600000000004
114,0.113999,213,1828010,4756.01,-2336.73,8586.060000000001
115,0.115000,214,1829011,-5881.99,-4314.73,13415.060000000001
116,0.115999,215,1830010,-10052.99,-2414.73,9637.060000000001
117,0.117000,216,1831011,-8195.99,-473.73,3526.0600000000004
118,0.118000,217,1832011,-3093.99,-982.73,2224.0600000000004
119,0.119000,218,1833011,8467.01,-2562.73,6636.06
120,0.119999,219,1834010,8006.01,-3495.73,5678.06
121,0.121000,220,1835011,5147.01,-3456.73,2726.0600000000004
122,0.122000,221,1836011,-4471.99,-2638.73,6991.06
123,0.122999,222,1837010,-19165.99,-203.73,4906.06
124,0.123999,223,1838010,-23009.99,1553.27,-1795.9399999999996
125,0.125000,224,1839011,-21791.99,4453.27,-4136.94
126,0.126000,225,1840011,-12532.99,5537.27,-3561.9399999999996
127,0.127000,226,1841011,-161.99,3587.27,-1438.9399999999996
128,0.128000,227,1842011,15980.01,1768.27,3762.0600000000004
129,0.129000,228,1843011,27497.01,-676.73,5234.06
130,0.130000,229,1844011,25724.01,-2300.73,4186.06
131,0.131000,230,1845011,20923.01,-1495.73,-338.9399999999996
132,0.131999,231,1846010,4983.01,2066.27,-10779.939999999999
133,0.133000,232,1847011,-13201.99,4894.27,-16629.94
134,0.134000,233,1848011,-18900.99,2119.27,-13234.939999999999
135,0.135000,234,1849011,-20253.99,-428.73,-8248.939999999999
136,0.136000,235,1850011,-13907.99,284.27,-5157.94
137,0.137000,236,1851011,1345.01,209.27,-5766.94
138,0.138000,237,1852011,19111.01,131.27,-7782.94
139,0.139000,238,1853011,23991.01,941.27,-4917.94
140,0.140000,239,1854011,17440.01,230.27,1472.0600000000004
141,0.141000,240,1855011,4414.01,-2566.73,10176.060000000001
142,0.141999,241,1856010,-5134.99,-3726.73,15412.060000000001
143,0.143000,242,1857011,-11091.99,-2854.73,12581.060000000001
144,0.144000,243,1858011,-8330.99,-2024.73,5913.06
145,0.145000,244,1859011,2695.01,-199.73,870.0600000000004
146,0.146000,245,1860011,6241.01,72.27,-1912.9399999999996
147,0.147000,246,1861011,3371.01,-3520.73,4011.0600000000004
148,0.147999,247,1862010,2920.01,-5995.73,12683.060000000001
149,0.148999,248,1863010,-7662.99,-2513.73,8253.060000000001
150,0.150000,249,1864011,-21699.99,733.27,-733.9399999999996
151,0.151000,250,1865011,-22794.99,2242.27,-4079.9399999999996
152,0.152000,251,1866011,-21007.99,5337.27,-5025.94
153,0.153000,252,1867011,-10681.99,5397.27,-3615.9399999999996
154,0.153999,253,1868010,5708.01,3130.27,962.0600000000004
155,0.155000,254,1869011,19368.01,1419.27,4938.06
156,0.155999,255,1870010,28885.01,-1161.73,5378.06
157,0.157000,256,1871011,26995.01,-3148.73,4341.06
158,0.158000,257,1872011,14931.01,-45.730000000000004,-2231.9399999999996
159,0.159000,258,1873011,47.00999999999999,3142.27,-13128.939999999999
160,0.160000,259,1874011,-10148.99,3306.27,-16773.94
161,0.161000,260,1875011,-19831.99,1218.27,-12058.939999999999
162,0.162000,261,1876011,-21124.99,247.27,-6911.94
163,0.162999,262,1877010,-13397.99,129.27,-4314.94
164,0.164000,263,1878011,5259.01,-865.73,-7164.94
165,0.165000,264,1879011,21050.01,834.27,-9058.939999999999
166,0.166000,265,1880011,19716.01,2022.27,-4530.94
167,0.167000,266,1881011,17239.01,-471.73,2727.0600000000004
168,0.168000,267,1882011,2195.01,-2966.73,11580.060000000001
169,0.169000,268,1883011,-3814.99,-3595.73,15806.060000000001
170,0.170000,269,1884011,-4915.99,-3123.73,11646.060000000001
171,0.171000,270,1885011,-7193.99,-205.73,3314.0600000000004
172,0.172000,271,1886011,-1471.99,1699.27,-3136.9399999999996
173,0.173000,272,1887011,1998.01,-3744.73,3923.0600000000004
174,0.174000,273,1888011,3501.01,-7742.73,15842.060000000001
175,0.175000,274,1889011,-1844.99,-4271.73,10026.060000000001
176,0.176000,275,1890011,-8529.99,-331.73,825.0600000000004
177,0.177000,276,1891011,-19139.99,667.27,254.0600000000004
178,0.178000,277,1892011,-20751.99,3009.27,-806.9399999999996
179,0.179000,278,1893011,-15992.99,6953.27,-6102.94
180,0.180000,279,1894011,-9103.99,6404.27,-8814.939999999999
181,0.180999,280,1895010,7058.01,3169.27,-485.9399999999996
182,0.182000,281,1896011,21627.01,47.269999999999996,7011.06
183,0.183000,282,1897011,25188.01,-1880.73,4459.06
184,0.184000,283,1898011,21037.01,-2606.73,848.0600000000004
185,0.185000,284,1899011,16770.01,-309.73,-4013.9399999999996
186,0.186000,285,1900011,-1037.99,3151.27,-12233.939999999999
187,0.186999,286,1901010,-12986.99,2566.27,-14609.939999999999
188,0.188000,287,1902011,-18912.99,-493.73,-9401.939999999999
189,0.189000,288,1903011,-19651.99,-401.73,-5965.94
190,0.190000,289,1904011,-8246.99,1007.27,-4804.94
191,0.190999,290,1905010,7613.01,-88.73,-6380.94
192,0.191999,291,1906010,21169.01,1271.27,-8281.939999999999
193,0.193000,292,1907011,22763.01,2486.27,-3755.9399999999996
194,0.194000,293,1908011,13578.01,-477.73,3774.0600000000004
195,0.195000,294,1909011,-1201.99,-2835.73,10488.060000000001
196,0.196000,295,1910011,-7900.99,-3904.73,14669.060000000001
197,0.197000,296,1911011,-10095.99,-2266.73,9154.060000000001
198,0.197999,297,1912010,-10046.99,-844.73,3247.0600000000004
199,0.199000,298,1913011,1851.01,-2090.73,6653.06
200,0.199999,299,1914010,7413.01,-3106.73,4607.06
201,0.201000,300,1915011,5972.01,-3919.73,3385.0600000000004
202,0.202000,301,1916011,3183.01,-3475.73,8799.060000000001
203,0.202999,302,1917010,-12356.99,-1483.73,6840.06
204,0.204000,303,1918011,-19841.99,896.27,-750.9399999999996
205,0.205000,304,1919011,-21017.99,3985.27,-4168.94
206,0.206000,305,1920011,-19315.99,6609.27,-4779.94
207,0.207000,306,1921011,-8898.99,5225.27,-5156.94
208,0.208000,307,1922011,8959.01,2212.27,-641.9399999999996
209,0.208999,308,1923010,24643.01,454.27,4709.06
210,0.210000,309,1924011,28196.01,-2226.73,5262.06
211,0.211000,310,1925011,24582.01,-2488.73,3928.0600000000004
212,0.212000,311,1926011,9131.01,1060.27,-5932.94
213,0.213000,312,1927011,-2984.99,3921.27,-15847.939999999999
214,0.213999,313,1928010,-12496.99,3072.27,-15057.939999999999
215,0.215000,314,1929011,-23324.99,285.27,-10532.939999999999
216,0.216000,315,1930011,-19683.99,-345.73,-5260.94
217,0.217000,316,1931011,-6366.99,-125.73,-4024.9399999999996
218,0.218000,317,1932011,14001.01,-11.73,-6891.94
219,0.219000,318,1933011,22798.01,1101.27,-8102.94
220,0.219999,319,1934010,21537.01,1335.27,-2171.9399999999996
221,0.221000,320,1935011,7465.01,-1250.73,6438.06
222,0.222000,321,1936011,-991.99,-4522.73,15296.060000000001
223,0.223000,322,1937011,-6864.99,-4644.73,16584.06
224,0.223999,323,1938010,-13587.99,-1525.73,8470.060000000001
225,0.225000,324,1939011,-6074.99,162.27,2938.0600000000004
226,0.225999,325,1940010,8874.01,114.27,-1817.9399999999996
227,0.227000,326,1941011,7625.01,-1554.73,-1308.9399999999996
228,0.228000,327,1942011,1885.01,-5888.73,11211.060000000001
229,0.229000,328,1943011,616.01,-4541.73,13412.060000000001
230,0.230000,329,1944011,-19975.99,240.27,-1007.9399999999996
231,0.231000,330,1945011,-22505.99,851.27,-3357.9399999999996
232,0.231999,331,1946010,-20832.99,3477.27,-508.9399999999996
233,0.233000,332,1947011,-16589.99,6928.27,-6431.94
234,0.234000,333,1948011,444.01,4591.27,-6216.94
235,0.234999,334,1949010,13768.01,1811.27,1421.0600000000004
236,0.236000,335,1950011,25437.01,59.269999999999996,7216.06
237,0.237000,336,1951011,28744.01,-3088.73,7654.06
238,0.237999,337,1952010,15575.01,-1261.73,252.0600000000004
239,0.239000,338,1953011,9210.01,2044.27,-9704.939999999999
240,0.240000,339,1954011,-3711.99,3359.27,-15675.939999999999
241,0.240999,340,1955010,-21518.99,2740.27,-13576.939999999999
242,0.242000,341,1956011,-20668.99,-742.73,-6124.94
243,0.243000,342,1957011,-14436.99,-1087.73,-2158.9399999999996
244,0.243999,343,1958010,152.01,361.27,-4721.94
245,0.245000,344,1959011,14174.01,1133.27,-9880.939999999999
246,0.245999,345,1960010,19128.01,2038.27,-8923.939999999999
247,0.247000,346,1961011,18908.01,917.27,-749.9399999999996
248,0.248000,347,1962011,8310.01,-1968.73,7924.06
249,0.248999,348,1963010,-3476.99,-4103.73,14315.060000000001
250,0.249999,349,1964010,-6901.99,-3093.73,13894.060000000001
251,0.251000,350,1965011,-8272.99,-1985.73,6465.06
252,0.252000,351,1966011,-848.99,-695.73,126.0600000000004
253,0.253000,352,1967011,5365.01,-30.73,-881.9399999999996
254,0.254000,353,1968011,2447.01,-3999.73,6974.06
255,0.254999,354,1969010,383.01,-6156.73,14396.060000000001
256,0.256000,355,1970011,-4593.99,-2638.73,5032.06
257,0.257000,356,1971011,-17082.99,1272.27,-4249.94
258,0.258000,357,1972011,-22013.99,991.27,1087.0600000000004
259,0.259000,358,1973011,-17602.99,3147.27,2618.0600000000004
260,0.260000,359,1974011,-11143.99,6645.27,-5063.94
261,0.261000,360,1975011,461.01,5390.27,-8249.939999999999
262,0.262000,361,1976011,14352.01,2993.27,-344.9399999999996
263,0.262999,362,1977010,24389.01,-181.73,6709.06
264,0.264000,363,1978011,23481.01,-3462.73,7797.06
265,0.264999,364,1979010,17926.01,-2820.73,1985.0600000000004
266,0.266000,365,1980011,6440.01,1723.27,-10501.939999999999
267,0.267000,366,1981011,-7708.99,4252.27,-17670.94
268,0.268000,367,1982011,-16638.99,2168.27,-13507.939999999999
269,0.268999,368,1983010,-23336.99,-623.73,-7264.94
270,0.270000,369,1984011,-11504.99,-688.73,-3002.9399999999996
271,0.271000,370,1985011,2729.01,-116.73,-3975.9399999999996
272,0.271999,371,1986010,14229.01,476.27,-9271.939999999999
273,0.273000,372,1987011,21531.01,2600.27,-7975.94
274,0.274000,373,1988011,18509.01,1423.27,150.0600000000004
275,0.275000,374,1989011,7473.01,-2209.73,8055.06
276,0.276000,375,1990011,-7761.99,-3833.73,13561.060000000001
277,0.277000,376,1991011,-7834.99,-3403.73,13660.060000000001
278,0.277999,377,1992010,-6131.99,-1806.73,6415.06
279,0.279000,378,1993011,-4330.99,-1286.73,2021.0600000000004
280,0.280000,379,1994011,6164.01,-2177.73,4689.06
281,0.281000,380,1995011,5333.01,-3745.73,6660.06
282,0.282000,381,1996011,1633.01,-4508.73,7544.06
283,0.283000,382,1997011,-6731.99,-1896.73,5820.06
284,0.283999,383,1998010,-18385.99,1088.27,-377.9399999999996
285,0.285000,384,1999011,-21570.99,2254.27,-2382.9399999999996
286,0.286000,385,2000011,-20381.99,4741.27,-3964.9399999999996
287,0.287000,386,2001011,-11431.99,6081.27,-5484.94
288,0.288000,387,2002011,1262.01,4242.27,-3082.9399999999996
289,0.288999,388,2003010,18445.01,1892.27,2581.0600000000004
290,0.290000,389,2004011,26167.01,-1189.73,5835.06
291,0.291000,390,2005011,25415.01,-3282.73,6137.06
292,0.291999,391,2006010,16168.01,-1648.73,301.0600000000004
293,0.292999,392,2007010,2715.01,2172.27,-11272.939999999999
294,0.294000,393,2008011,-7142.99,3592.27,-16103.939999999999
295,0.295000,394,2009011,-16158.99,1041.27,-11530.939999999999
296,0.295999,395,2010010,-21692.99,-509.73,-6172.94
297,0.297000,396,2011011,-12933.99,19.27,-5056.94
298,0.298000,397,2012011,3451.01,690.27,-6558.94
299,0.299000,398,2013011,15675.01,1171.27,-9161.939999999999
300,0.300000,399,2014011,21290.01,1658.27,-6079.94
301,0.301000,400,2015011,16144.01,629.27,1533.0600000000004
302,0.302000,401,2016011,4766.01,-2901.73,10111.060000000001
303,0.303000,402,2017011,-6275.99,-3744.73,14972.060000000001
304,0.304000,403,2018011,-9049.99,-2813.73,11957.060000000001
305,0.305000,404,2019011,-5295.99,-2027.73,6156.06
306,0.305999,405,2020010,236.01,939.27,1565.0600000000004
307,0.306999,406,2021010,4094.01,-1078.73,275.0600000000004
308,0.308000,407,2022011,3509.01,-6066.73,7713.06
309,0.309000,408,2023011,4293.01,-5388.73,13381.060000000001
310,0.309999,409,2024010,-8619.99,-1419.73,5123.06
311,0.311000,410,2025011,-21196.99,412.27,-531.9399999999996
312,0.312000,411,2026011,-20633.99,2832.27,-2619.9399999999996
313,0.313000,412,2027011,-18397.99,7107.27,-8527.939999999999
314,0.314000,413,2028011,-10495.99,6535.27,-8788.939999999999
315,0.315000,414,2029011,4106.01,2393.27,192.0600000000004
316,0.316000,415,2030011,17403.01,691.27,7371.06
317,0.317000,416,2031011,25935.01,-2007.73,7622.06
318,0.318000,417,2032011,27257.01,-4047.73,5037.06
319,0.319000,418,2033011,15044.01,280.27,-4548.94
320,0.320000,419,2034011,204.01,4005.27,-13475.939999999999
321,0.321000,420,2035011,-9228.99,3325.27,-14907.939999999999
322,0.322000,421,2036011,-17947.99,-349.73,-8963.939999999999
323,0.323000,422,2037011,-21097.99,-878.73,-3911.9399999999996
324,0.324000,423,2038011,-11462.99,1378.27,-6614.94
325,0.324999,424,2039010,5244.01,771.27,-10698.939999999999
326,0.326000,425,2040011,18823.01,1112.27,-9834.939999999999
327,0.327000,426,2041011,21540.01,1970.27,-4178.94
328,0.327999,427,2042010,12905.01,-313.73,3483.0600000000004
329,0.329000,428,2043011,3124.01,-3417.73,13661.060000000001
330,0.330000,429,2044011,-4575.99,-3867.73,15557.060000000001
331,0.331000,430,2045011,-9101.99,-2496.73,9804.060000000001
332,0.332000,431,2046011,-5349.99,-1249.73,4980.06
333,0.333000,432,2047011,697.01,167.27,1593.0600000000004
334,0.333999,433,2048010,5190.01,-2248.73,3564.0600000000004
335,0.335000,434,2049011,5213.01,-5895.73,8410.060000000001
336,0.336000,435,2050011,626.01,-4225.73,8775.060000000001
337,0.337000,436,2051011,-10892.99,-1287.73,5050.06
338,0.337999,437,2052010,-19482.99,763.27,-560.9399999999996
339,0.339000,438,2053011,-23593.99,3786.27,-6246.94
340,0.340000,439,2054011,-18495.99,6171.27,-6821.94
341,0.341000,440,2055011,-8373.99,5871.27,-5207.94
342,0.342000,441,2056011,4121.01,3082.27,501.0600000000004
343,0.343000,442,2057011,20207.01,6.27,6459.06
344,0.344000,443,2058011,29422.01,-2519.73,7346.06
345,0.345000,444,2059011,26044.01,-2638.73,3475.0600000000004
346,0.345999,445,2060010,14028.01,523.27,-6350.94
347,0.347000,446,2061011,-99.99000000000001,3057.27,-12933.939999999999
348,0.348000,447,2062011,-12919.99,2609.27,-12945.939999999999
349,0.349000,448,2063011,-22362.99,414.27,-9389.939999999999
350,0.349999,449,2064010,-20140.99,-420.73,-6695.94
351,0.350999,450,2065010,-7515.99,803.27,-7903.94
352,0.352000,451,2066011,8344.01,641.27,-8502.939999999999
353,0.353000,452,2067011,20767.01,823.27,-5526.94
354,0.354000,453,2068011,20915.01,1505.27,-1317.9399999999996
355,0.354999,454,2069010,14018.01,-899.73,4135.06
356,0.356000,455,2070011,-1164.99,-3022.73,10400.060000000001
357,0.357000,456,2071011,-6883.99,-3024.73,13283.060000000001
358,0.358000,457,2072011,-9331.99,-2043.73,9329.060000000001
359,0.359000,458,2073011,-6252.99,-1127.73,2861.0600000000004
360,0.359999,459,2074010,2672.01,-1338.73,3213.0600000000004
361,0.361000,460,2075011,5102.01,-3926.73,6465.06
362,0.362000,461,2076011,5368.01,-5162.73,8416.060000000001
363,0.362999,462,2077010,1339.01,-3011.73,8729.060000000001
364,0.364000,463,2078011,-13345.99,-415.73,3453.0600000000004
365,0.365000,464,2079011,-20636.99,1031.27,-1035.9399999999996
366,0.365999,465,2080010,-20794.99,3692.27,-3166.9399999999996
367,0.367000,466,2081011,-18756.99,6652.27,-6430.94
368,0.368000,467,2082011,-5883.99,5513.27,-7164.94
369,0.369000,468,2083011,7993.01,3247.27,-1465.9399999999996
370,0.369999,469,2084010,20967.01,560.27,5150.06
371,0.370999,470,2085010,26693.01,-3083.73,6929.06
372,0.372000,471,2086011,23730.01,-2854.73,4640.06
373,0.373000,472,2087011,11520.01,740.27,-4950.94
374,0.374000,473,2088011,-2059.99,3312.27,-13948.939999999999
375,0.374999,474,2089010,-12246.99,1927.27,-14867.939999999999
376,0.376000,475,2090011,-19865.99,-365.73,-8768.939999999999
377,0.376999,476,2091010,-18722.99,-212.73,-3877.9399999999996
378,0.378000,477,2092011,-6617.99,456.27,-5077.94
379,0.379000,478,2093011,11348.01,509.27,-8094.94
380,0.380000,479,2094011,21071.01,1711.27,-8955.939999999999
381,0.381000,480,2095011,18761.01,2416.27,-4535.94
382,0.382000,481,2096011,10095.01,-848.73,4354.06
383,0.383000,482,2097011,-525.99,-4302.73,13998.060000000001
384,0.384000,483,2098011,-8334.99,-3992.73,15088.060000000001
385,0.385000,484,2099011,-9997.99,-1074.73,6907.06
386,0.386000,485,2100011,-5962.99,-762.73,3454.0600000000004
387,0.387000,486,2101011,4782.01,-2207.73,5799.06
388,0.388000,487,2102011,6448.01,-3649.73,5852.06
389,0.389000,488,2103011,4861.01,-4512.73,6185.06
390,0.389999,489,2104010,2278.01,-2901.73,6628.06
391,0.390999,490,2105010,-14611.99,-452.73,4534.06
392,0.391999,491,2106010,-20977.99,1673.27,340.0600000000004
393,0.393000,492,2107011,-21932.99,5150.27,-7552.94
394,0.393999,493,2108010,-19927.99,7602.27,-13108.939999999999
395,0.395000,494,2109011,-10538.99,5077.27,-4801.94
396,0.396000,495,2110011,9496.01,537.27,8028.06
397,0.397000,496,2111011,26098.01,-2027.73,9743.060000000001
398,0.398000,497,2112011,32367.01,-3377.73,7137.06
399,0.398999,498,2113010,23848.01,-2200.73,1030.0600000000004
400,0.400000,499,2114011,13290.01,1705.27,-8821.939999999999
401,0.400999,500,2115010,-1778.99,3740.27,-13035.939999999999
402,0.402000,501,2116011,-20791.99,2361.27,-12867.939999999999
403,0.402999,502,2117010,-22622.99,558.27,-8918.939999999999
404,0.403999,503,2118010,-17205.99,850.27,-7152.94
405,0.404999,504,2119010,-3822.99,1323.27,-9431.939999999999
406,0.406000,505,2120011,11365.01,666.27,-9836.939999999999
407,0.407000,506,2121011,21358.01,652.27,-6213.94
408,0.407999,507,2122010,19318.01,660.27,-143.9399999999996
409,0.409000,508,2123011,8450.01,-1742.73,6857.06
410,0.410000,509,2124011,-2090.99,-3980.73,14684.060000000001
411,0.410999,510,2125010,-9779.99,-2894.73,13017.060000000001
412,0.411999,511,2126010,-9005.99,-1443.73,6538.06
413,0.412999,512,2127010,-2732.99,-2006.73,5020.06
414,0.414000,513,2128011,6172.01,-2178.73,6317.06
415,0.415000,514,2129011,8987.01,-3058.73,7515.06
416,0.416000,515,2130011,7877.01,-4091.73,3362.0600000000004
417,0.417000,516,2131011,-1445.99,-2693.73,4879.06
418,0.417999,517,2132010,-17598.99,-676.73,7672.06
419,0.419000,518,2133011,-23914.99,2100.27,-1847.9399999999996
420,0.420000,519,2134011,-27082.99,5700.27,-11471.939999999999
421,0.421000,520,2135011,-18330.99,7460.27,-11202.939999999999
422,0.421999,521,2136010,-4139.99,4606.27,-3444.9399999999996
423,0.423000,522,2137011,12822.01,310.27,5385.06
424,0.424000,523,2138011,26397.01,-1512.73,8445.060000000001
425,0.425000,524,2139011,31723.01,-3482.73,9210.060000000001
426,0.426000,525,2140011,24484.01,-1852.73,763.0600000000004
427,0.427000,526,2141011,7852.01,2520.27,-11352.939999999999
428,0.428000,527,2142011,-9018.99,3812.27,-13975.939999999999
429,0.428999,528,2143010,-17617.99,1819.27,-11316.939999999999
430,0.430000,529,2144011,-19105.99,-450.73,-6924.94
431,0.431000,530,2145011,-14525.99,-53.730000000000004,-4834.94
432,0.432000,531,2146011,-2833.99,901.27,-7351.94
433,0.432999,532,2147010,13877.01,406.27,-9191.939999999999
434,0.434000,533,2148011,22716.01,932.27,-5217.94
435,0.435000,534,2149011,17749.01,1229.27,228.0600000000004
436,0.436000,535,2150011,4920.01,-1306.73,6664.06
437,0.437000,536,2151011,-4423.99,-3189.73,12979.060000000001
438,0.438000,537,2152011,-8946.99,-2630.73,11492.060000000001
439,0.439000,538,2153011,-8537.99,-1196.73,3585.0600000000004
440,0.440000,539,2154011,-1611.99,-975.73,3357.0600000000004
441,0.440999,540,2155010,3964.01,-2011.73,5767.06
442,0.442000,541,2156011,10834.01,-4523.73,6600.06
443,0.443000,542,2157011,5241.01,-6353.73,8911.060000000001
444,0.444000,543,2158011,-4166.99,-4558.73,11172.060000000001
445,0.445000,544,2159011,-15373.99,-275.73,5105.06
446,0.446000,545,2160011,-23446.99,4610.27,-9244.939999999999
447,0.447000,546,2161011,-22526.99,6891.27,-12042.939999999999
448,0.448000,547,2162011,-17525.99,6322.27,-4767.94
449,0.448999,548,2163010,-4114.99,4954.27,-1314.9399999999996
450,0.450000,549,2164011,12624.01,2336.27,614.0600000000004
451,0.451000,550,2165011,26027.01,-947.73,6191.06
452,0.452000,551,2166011,29430.01,-3724.73,8351.060000000001
453,0.453000,552,2167011,21567.01,-2525.73,94.0600000000004
454,0.454000,553,2168011,6414.01,1277.27,-10207.939999999999
455,0.455000,554,2169011,-7360.99,2853.27,-13126.939999999999
456,0.456000,555,2170011,-17634.99,1159.27,-10556.939999999999
457,0.457000,556,2171011,-19360.99,-429.73,-5910.94
458,0.458000,557,2172011,-11134.99,156.27,-4008.9399999999996
459,0.459000,558,2173011,-231.99,773.27,-7951.94
460,0.460000,559,2174011,15602.01,815.27,-9287.939999999999
461,0.461000,560,2175011,20679.01,1295.27,-4808.94
462,0.462000,561,2176011,14988.01,1377.27,1182.0600000000004
463,0.463000,562,2177011,5897.01,-1612.73,9045.060000000001
464,0.464000,563,2178011,-4297.99,-3854.73,11717.060000000001
465,0.465000,564,2179011,-11460.99,-1715.73,7599.06
466,0.466000,565,2180011,-9431.99,-285.73,5201.06
467,0.466999,566,2181010,-1222.99,-1077.73,2956.0600000000004
468,0.467999,567,2182010,6731.01,-2404.73,3051.0600000000004
469,0.469000,568,2183011,8390.01,-5582.73,9194.060000000001
470,0.469999,569,2184010,4815.01,-6451.73,12944.060000000001
471,0.471000,570,2185011,-5317.99,-3003.73,8495.060000000001
472,0.472000,571,2186011,-17166.99,978.27,-13.9399999999996
473,0.473000,572,2187011,-20587.99,3733.27,-7129.94
474,0.474000,573,2188011,-22970.99,6553.27,-10068.939999999999
475,0.475000,574,2189011,-15385.99,6190.27,-4809.94
476,0.476000,575,2190011,-998.99,3782.27,182.0600000000004
477,0.477000,576,2191011,13665.01,2214.27,258.0600000000004
478,0.478000,577,2192011,25769.01,-826.73,3728.0600000000004
479,0.479000,578,2193011,27417.01,-3589.73,7417.06
480,0.480000,579,2194011,17742.01,-2791.73,2364.0600000000004
481,0.481000,580,2195011,8614.01,700.27,-6809.94
482,0.482000,581,2196011,-5624.99,2716.27,-12112.939999999999
483,0.483000,582,2197011,-20185.99,2130.27,-13561.939999999999
484,0.483999,583,2198010,-19298.99,64.27,-8364.939999999999
485,0.485000,584,2199011,-10772.99,599.27,-4680.94
486,0.486000,585,2200011,1860.01,1255.27,-7626.94
487,0.487000,586,2201011,14080.01,361.27,-7927.94
488,0.488000,587,2202011,20443.01,1822.27,-4257.94
489,0.489000,588,2203011,15157.01,1565.27,-263.9399999999996
490,0.489999,589,2204010,3001.01,-1563.73,6235.06
491,0.491000,590,2205011,-8508.99,-3165.73,11486.060000000001
492,0.491999,591,2206010,-7150.99,-3124.73,11765.060000000001
493,0.492999,592,2207010,-3521.99,-2021.73,6503.06
494,0.493999,593,2208010,-1878.99,-1579.73,3119.0600000000004
495,0.495000,594,2209011,6651.01,-2653.73,6139.06
496,0.495999,595,2210010,6665.01,-5449.73,10463.060000000001
497,0.497000,596,2211011,4454.01,-5922.73,12065.060000000001
498,0.498000,597,2212011,-6399.99,-1809.73,5557.06
499,0.499000,598,2213011,-18913.99,1904.27,-3549.9399999999996
500,0.500000,599,2214011,-18195.99,3740.27,-6546.94
501,0.501000,600,2215011,-22423.99,6406.27,-7520.94
502,0.501999,601,2216010,-16637.99,6932.27,-7078.94
503,0.503000,602,2217011,-1027.99,3277.27,-1264.9399999999996
504,0.504000,603,2218011,12887.01,985.27,2718.0600000000004
505,0.505000,604,2219011,25239.01,-819.73,3460.0600000000004
506,0.506000,605,2220011,27887.01,-2761.73,4134.06
507,0.507000,606,2221011,16722.01,-1952.73,305.0600000000004
508,0.508000,607,2222011,8675.01,433.27,-6697.94
509,0.509000,608,2223011,-5883.99,2070.27,-10144.939999999999
510,0.509999,609,2224010,-19327.99,1005.27,-10693.939999999999
511,0.511000,610,2225011,-18186.99,378.27,-7543.94
512,0.511999,611,2226010,-12190.99,1253.27,-5743.94
513,0.513000,612,2227011,5388.01,361.27,-6610.94
514,0.514000,613,2228011,15177.01,497.27,-7199.94
515,0.515000,614,2229011,19272.01,2389.27,-5325.94
516,0.516000,615,2230011,14054.01,1481.27,316.0600000000004
517,0.517000,616,2231011,2389.01,-2274.73,8031.06
518,0.518000,617,2232011,-7609.99,-3273.73,11688.060000000001
519,0.519000,618,2233011,-11021.99,-1641.73,8030.06
520,0.520000,619,2234011,-6467.99,-1546.73,5303.06
521,0.521000,620,2235011,453.01,-1820.73,4387.06
522,0.522000,621,2236011,8820.01,-3124.73,6681.06
523,0.523000,622,2237011,8890.01,-5902.73,11417.060000000001
524,0.524000,623,2238011,5978.01,-5308.73,11099.060000000001
525,0.525000,624,2239011,-6289.99,-1264.73,3231.0600000000004
526,0.526000,625,2240011,-21433.99,2153.27,-5439.94
527,0.527000,626,2241011,-21807.99,2985.27,-2748.9399999999996
528,0.528000,627,2242011,-20639.99,5329.27,-3741.9399999999996
529,0.529000,628,2243011,-15751.99,7295.27,-11734.939999999999
530,0.529999,629,2244010,-2998.99,4909.27,-6227.94
531,0.531000,630,2245011,13881.01,1467.27,3695.0600000000004
532,0.532000,631,2246011,28180.01,-2918.73,10313.060000000001
533,0.533000,632,2247011,26672.01,-4658.73,8786.060000000001
534,0.534000,633,2248011,20318.01,-741.73,-2981.9399999999996
535,0.534999,634,2249010,6468.01,2460.27,-11607.939999999999
536,0.536000,635,2250011,-7572.99,2116.27,-11234.939999999999
537,0.537000,636,2251011,-17900.99,44.269999999999996,-8483.939999999999
538,0.538000,637,2252011,-19207.99,-473.73,-5371.94
539,0.538999,638,2253010,-10965.99,1673.27,-4810.94
540,0.540000,639,2254011,2626.01,1368.27,-9410.939999999999
541,0.541000,640,2255011,17416.01,448.27,-7884.94
542,0.542000,641,2256011,20530.01,1275.27,-1861.9399999999996
543,0.543000,642,2257011,12988.01,394.27,1677.0600000000004
544,0.544000,643,2258011,-828.99,-1776.73,7300.06
545,0.545000,644,2259011,-4818.99,-2404.73,10311.060000000001
546,0.546000,645,2260011,-9678.99,-1656.73,7024.06
547,0.547000,646,2261011,-8014.99,-1629.73,4825.06
548,0.548000,647,2262011,99.00999999999999,-1700.73,4648.06
549,0.549000,648,2263011,7129.01,-2733.73,4854.06
550,0.550000,649,2264011,9642.01,-5188.73,8680.060000000001
551,0.551000,650,2265011,5895.01,-6210.73,12185.060000000001
552,0.552000,651,2266011,-6542.99,-2761.73,8606.060000000001
553,0.553000,652,2267011,-20144.99,1379.27,52.0600000000004
554,0.554000,653,2268011,-22489.99,5022.27,-10268.939999999999
555,0.555000,654,2269011,-22350.99,8105.27,-12676.939999999999
556,0.556000,655,2270011,-15882.99,7348.27,-8625.939999999999
557,0.557000,656,2271011,-1581.99,4000.27,-2636.9399999999996
558,0.558000,657,2272011,15592.01,-241.73,6518.06
559,0.559000,658,2273011,30652.01,-4243.73,12573.060000000001
560,0.560000,659,2274011,29599.01,-3539.73,4284.06
561,0.561000,660,2275011,16322.01,686.27,-6746.94
562,0.562000,661,2276011,5845.01,1502.27,-6737.94
563,0.563000,662,2277011,-7925.99,732.27,-6878.94
564,0.564000,663,2278011,-18646.99,-596.73,-7206.94
565,0.565000,664,2279011,-18178.99,184.27,-7078.94
566,0.566000,665,2280011,-10316.99,3047.27,-9094.939999999999
567,0.567000,666,2281011,3410.01,1697.27,-10987.939999999999
568,0.568000,667,2282011,16298.01,382.27,-6786.94
569,0.569000,668,2283011,17262.01,1457.27,-442.9399999999996
570,0.570000,669,2284011,14025.01,-44.730000000000004,3190.0600000000004
571,0.571000,670,2285011,2062.01,-1823.73,6017.06
572,0.572000,671,2286011,-7746.99,-2131.73,8481.060000000001
573,0.572999,672,2287010,-7498.99,-2356.73,8376.060000000001
574,0.573999,673,2288010,-7926.99,-1643.73,5026.06
575,0.575000,674,2289011,-409.99,-1289.73,3470.0600000000004
576,0.576000,675,2290011,7972.01,-4436.73,8496.060000000001
577,0.577000,676,2291011,7866.01,-6757.73,13799.060000000001
578,0.578000,677,2292011,5313.01,-4727.73,9423.060000000001
579,0.578999,678,2293010,-8505.99,-380.73,136.0600000000004
580,0.580000,679,2294011,-19451.99,2566.27,-4471.94
581,0.581000,680,2295011,-20776.99,4220.27,-3277.9399999999996
582,0.582000,681,2296011,-23235.99,6586.27,-6143.94
583,0.582999,682,2297010,-14727.99,6249.27,-8453.939999999999
584,0.584000,683,2298011,41.00999999999999,3418.27,-1915.9399999999996
585,0.585000,684,2299011,19101.01,1097.27,4217.06
586,0.585999,685,2300010,28237.01,-2256.73,5927.06
587,0.587000,686,2301011,27867.01,-3941.73,5621.06
588,0.588000,687,2302011,19052.01,-1053.73,-790.9399999999996
589,0.589000,688,2303011,2655.01,2095.27,-10744.939999999999
590,0.590000,689,2304011,-13050.99,2578.27,-12901.939999999999
591,0.590999,690,2305010,-20496.99,-161.73,-8491.939999999999
592,0.592000,691,2306011,-16656.99,-219.73,-5238.94
593,0.592999,692,2307010,-9335.99,2005.27,-7289.94
594,0.594000,693,2308011,8927.01,684.27,-9563.939999999999
595,0.595000,694,2309011,19322.01,584.27,-6852.94
596,0.596000,695,2310011,19974.01,1916.27,-1609.9399999999996
597,0.597000,696,2311011,11572.01,-818.73,4500.06
598,0.598000,697,2312011,-1028.99,-2874.73,10307.060000000001
599,0.599000,698,2313011,-8803.99,-2177.73,10348.060000000001
600,0.600000,699,2314011,-12373.99,-1150.73,4921.06
601,0.601000,700,2315011,-7890.99,-1138.73,3775.0600000000004
602,0.602000,701,2316011,2185.01,-2127.73,6777.06
603,0.603000,702,2317011,9736.01,-3675.73,7434.06
604,0.604000,703,2318011,9662.01,-5213.73,6112.06
605,0.605000,704,2319011,4635.01,-5083.73,9459.060000000001
606,0.606000,705,2320011,-12812.99,-2085.73,9326.060000000001
607,0.607000,706,2321011,-20594.99,2475.27,-2000.9399999999996
608,0.608000,707,2322011,-23730.99,5929.27,-11430.939999999999
609,0.609000,708,2323011,-22500.99,6560.27,-7746.94
610,0.610000,709,2324011,-8452.99,4790.27,-2078.9399999999996
611,0.611000,710,2325011,5154.01,3415.27,-800.9399999999996
612,0.612000,711,2326011,20971.01,1240.27,2223.0600000000004
613,0.613000,712,2327011,30970.01,-3099.73,7675.06
614,0.613999,713,2328010,26750.01,-3310.73,4459.06
615,0.615000,714,2329011,11370.01,505.27,-6361.94
616,0.616000,715,2330011,-841.99,2754.27,-12429.939999999999
617,0.617000,716,2331011,-15087.99,2218.27,-13667.939999999999
618,0.618000,717,2332011,-22131.99,-129.73,-8056.94
619,0.619000,718,2333011,-14960.99,85.27,-3617.9399999999996
620,0.620000,719,2334011,-5755.99,572.27,-6139.94
621,0.621000,720,2335011,13375.01,-191.73,-8039.94
622,0.622000,721,2336011,21597.01,787.27,-6120.94
623,0.623000,722,2337011,18554.01,1911.27,-2136.9399999999996
624,0.624000,723,2338011,8548.01,-579.73,4742.06
625,0.625000,724,2339011,-3238.99,-3296.73,11437.060000000001
626,0.625999,725,2340010,-11338.99,-2054.73,10287.060000000001
627,0.627000,726,2341011,-11709.99,-941.73,4717.06
628,0.628000,727,2342011,-3107.99,-1437.73,4601.06
629,0.628999,728,2343010,3302.01,-1587.73,5052.06
630,0.630000,729,2344011,9474.01,-4575.73,8300.060000000001
631,0.631000,730,2345011,8872.01,-7046.73,13308.060000000001
632,0.631999,731,2346010,-475.99,-3656.73,9114.060000000001
633,0.632999,732,2347010,-15683.99,835.27,323.0600000000004
634,0.634000,733,2348011,-21883.99,3157.27,-5369.94
635,0.634999,734,2349010,-23535.99,5909.27,-9318.939999999999
636,0.635999,735,2350010,-19088.99,6738.27,-7620.94
637,0.637000,736,2351011,-8555.99,4104.27,-1775.9399999999996
638,0.638000,737,2352011,9765.01,1613.27,1417.0600000000004
639,0.639000,738,2353011,26125.01,-37.730000000000004,3380.0600000000004
640,0.639999,739,2354010,31522.01,-3223.73,7327.06
641,0.641000,740,2355011,26359.01,-3204.73,4024.0600000000004
642,0.642000,741,2356011,9741.01,401.27,-6326.94
643,0.642999,742,2357010,-4307.99,2777.27,-11906.939999999999
644,0.643999,743,2358010,-18009.99,1937.27,-13722.939999999999
645,0.645000,744,2359011,-22075.99,-27.73,-8792.939999999999
646,0.646000,745,2360011,-14004.99,1149.27,-4972.94
647,0.647000,746,2361011,-3697.99,1620.27,-8389.939999999999
648,0.648000,747,2362011,13341.01,468.27,-9012.939999999999
649,0.649000,748,2363011,23223.01,1066.27,-4165.94
650,0.649999,749,2364010,17770.01,1166.27,381.0600000000004
651,0.651000,750,2365011,5813.01,-1447.73,5494.06
652,0.651999,751,2366010,-5737.99,-2546.73,11252.060000000001
653,0.653000,752,2367011,-10971.99,-2601.73,11368.060000000001
654,0.653999,753,2368010,-7873.99,-2317.73,6993.06
655,0.654999,754,2369010,-1672.99,-595.73,3286.0600000000004
656,0.656000,755,2370011,6716.01,-1601.73,3907.0600000000004
657,0.657000,756,2371011,8311.01,-5542.73,11163.060000000001
658,0.658000,757,2372011,4744.01,-6862.73,13199.060000000001
659,0.659000,758,2373011,-3214.99,-3161.73,7005.06
660,0.660000,759,2374011,-18947.99,1456.27,-2669.9399999999996
661,0.661000,760,2375011,-21903.99,3808.27,-7071.94
662,0.662000,761,2376011,-23173.99,6334.27,-7129.94
663,0.663000,762,2377011,-16574.99,6491.27,-6046.94
664,0.664000,763,2378011,-2933.99,3714.27,-2218.9399999999996
665,0.665000,764,2379011,12682.01,2211.27,-789.9399999999996
666,0.665999,765,2380010,28568.01,-228.73,4041.0600000000004
667,0.667000,766,2381011,29277.01,-3722.73,7341.06
668,0.668000,767,2382011,21732.01,-2941.73,1731.0600000000004
669,0.668999,768,2383010,5537.01,593.27,-6977.94
670,0.669999,769,2384010,-9165.99,3226.27,-11642.939999999999
671,0.671000,770,2385011,-18387.99,1195.27,-12145.939999999999
672,0.672000,771,2386011,-18069.99,-1154.73,-7541.94
673,0.673000,772,2387011,-11621.99,981.27,-3870.9399999999996
674,0.674000,773,2388011,3279.01,1569.27,-6652.94
675,0.675000,774,2389011,16416.01,1004.27,-9290.939999999999
676,0.675999,775,2390010,20003.01,1765.27,-5902.94
677,0.677000,776,2391011,16519.01,1237.27,2053.0600000000004
678,0.677999,777,2392010,1818.01,-1633.73,7922.06
679,0.679000,778,2393011,-8772.99,-3331.73,10347.060000000001
680,0.680000,779,2394011,-11841.99,-2600.73,9949.060000000001
681,0.681000,780,2395011,-7760.99,-1575.73,7344.06
682,0.682000,781,2396011,-1557.99,-1982.73,5654.06
683,0.683000,782,2397011,11831.01,-2957.73,4695.06
684,0.684000,783,2398011,10006.01,-3726.73,4807.06
685,0.685000,784,2399011,3224.01,-4846.73,9208.060000000001
686,0.686000,785,2400011,-6756.99,-3514.73,9954.060000000001
687,0.687000,786,2401011,-22548.99,1246.27,-643.9399999999996
688,0.688000,787,2402011,-24203.99,4879.27,-9261.939999999999
689,0.688999,788,2403010,-22438.99,5951.27,-6718.94
690,0.690000,789,2404011,-12886.99,5939.27,-5047.94
691,0.691000,790,2405011,2730.01,4364.27,-4746.94
692,0.692000,791,2406011,16618.01,1121.27,2530.0600000000004
693,0.693000,792,2407011,28694.01,-2777.73,10005.060000000001
694,0.693999,793,2408010,29227.01,-4330.73,9943.060000000001
695,0.694999,794,2409010,17289.01,-184.73,-3312.9399999999996
696,0.696000,795,2410011,3134.01,3587.27,-15524.939999999999
697,0.697000,796,2411011,-11517.99,2774.27,-15110.939999999999
698,0.698000,797,2412011,-19245.99,136.27,-8027.94
699,0.699000,798,2413011,-18628.99,-1481.73,-1509.9399999999996
700,0.700000,799,2414011,-8749.99,-90.73,-4048.9399999999996
701,0.701000,800,2415011,3185.01,1122.27,-10922.939999999999
702,0.702000,801,2416011,18426.01,1416.27,-10557.939999999999
703,0.703000,802,2417011,22159.01,2090.27,-3162.9399999999996
704,0.704000,803,2418011,11285.01,385.27,3518.0600000000004
705,0.705000,804,2419011,601.01,-3079.73,10563.060000000001
706,0.706000,805,2420011,-7332.99,-2702.73,12214.060000000001
707,0.707000,806,2421011,-8991.99,-658.73,7320.06
708,0.708000,807,2422011,-6018.99,-1264.73,4901.06
709,0.708999,808,2423010,1978.01,-2118.73,5477.06
710,0.710000,809,2424011,7310.01,-2945.73,5536.06
711,0.710999,810,2425010,7191.01,-4344.73,5347.06
712,0.712000,811,2426011,2998.01,-5427.73,9478.060000000001
713,0.713000,812,2427011,-12447.99,-3297.73,9818.060000000001
714,0.713999,813,2428010,-18841.99,1376.27,202.0600000000004
715,0.715000,814,2429011,-20562.99,5288.27,-9419.939999999999
716,0.716000,815,2430011,-24382.99,8169.27,-13712.939999999999
717,0.717000,816,2431011,-12942.99,5272.27,-4200.94
718,0.718000,817,2432011,5707.01,1106.27,6733.06
719,0.719000,818,2433011,20683.01,686.27,5029.06
720,0.720000,819,2434011,30401.01,-1656.73,3446.0600000000004
721,0.720999,820,2435010,29551.01,-2509.73,2260.0600000000004
722,0.722000,821,2436011,15507.01,-8.73,-3736.9399999999996
723,0.723000,822,2437011,-840.99,1960.27,-9569.939999999999
724,0.724000,823,2438011,-14615.99,2275.27,-11841.939999999999
725,0.725000,824,2439011,-23752.99,-86.73,-9542.939999999999
726,0.726000,825,2440011,-17448.99,-44.730000000000004,-5840.94
727,0.727000,826,2441011,-6814.99,1686.27,-7449.94
728,0.728000,827,2442011,8045.01,622.27,-9688.939999999999
729,0.729000,828,2443011,22120.01,607.27,-6538.94
730,0.730000,829,2444011,21894.01,1519.27,-1263.9399999999996
731,0.731000,830,2445011,10901.01,-314.73,4787.06
732,0.732000,831,2446011,-1205.99,-2958.73,10796.060000000001
733,0.733000,832,2447011,-8962.99,-2766.73,10668.060000000001
734,0.734000,833,2448011,-13347.99,-1492.73,6188.06
735,0.734999,834,2449010,-5381.99,-1104.73,4307.06
736,0.735999,835,2450010,882.01,-1853.73,5184.06
737,0.737000,836,2451011,10493.01,-4623.73,8672.060000000001
738,0.738000,837,2452011,9551.01,-4985.73,7515.06
739,0.739000,838,2453011,2431.01,-2854.73,5640.06
740,0.740000,839,2454011,-11417.99,-1334.73,7359.06
741,0.741000,840,2455011,-23450.99,1451.27,27.0600000000004
742,0.742000,841,2456011,-24038.99,5836.27,-10607.939999999999
743,0.743000,842,2457011,-23252.99,7631.27,-11449.939999999999
744,0.744000,843,2458011,-9501.99,4714.27,-2772.9399999999996
745,0.744999,844,2459010,8149.01,1272.27,5243.06
746,0.746000,845,2460011,25540.01,-887.73,7049.06
747,0.746999,846,2461010,31062.01,-3314.73,6269.06
748,0.748000,847,2462011,25718.01,-1878.73,722.0600000000004
749,0.749000,848,2463011,13320.01,1222.27,-6488.94
750,0.750000,849,2464011,-5180.99,2397.27,-11443.939999999999
751,0.751000,850,2465011,-16744.99,2794.27,-13023.939999999999
752,0.752000,851,2466011,-20214.99,96.27,-8888.939999999999
753,0.752999,852,2467010,-14654.99,-2.7300000000000004,-6569.94
754,0.754000,853,2468011,-7887.99,1595.27,-8502.939999999999
755,0.755000,854,2469011,11867.01,489.27,-8483.939999999999
756,0.756000,855,2470011,23454.01,736.27,-4927.94
757,0.757000,856,2471011,18860.01,1001.27,-403.9399999999996
758,0.757999,857,2472010,8107.01,-1455.73,4854.06
759,0.758999,858,2473010,-3583.99,-3240.73,12180.060000000001
760,0.760000,859,2474011,-7864.99,-2611.73,13193.060000000001
761,0.761000,860,2475011,-12930.99,-1925.73,7277.06
762,0.762000,861,2476011,-3408.99,-1393.73,4289.06
763,0.763000,862,2477011,5464.01,-727.73,4929.06
764,0.764000,863,2478011,8766.01,-2868.73,6273.06
765,0.765000,864,2479011,9191.01,-4780.73,3568.0600000000004
766,0.766000,865,2480011,-2609.99,-2846.73,3017.0600000000004
767,0.767000,866,2481011,-19781.99,-818.73,7139.06
768,0.768000,867,2482011,-22671.99,722.27,2004.0600000000004
769,0.769000,868,2483011,-20211.99,5221.27,-9380.939999999999
770,0.770000,869,2484011,-19517.99,8201.27,-13121.939999999999
771,0.771000,870,2485011,-6277.99,4013.27,-3707.9399999999996
772,0.772000,871,2486011,12223.01,-93.73,9522.060000000001
773,0.772999,872,2487010,27048.01,-2690.73,13683.060000000001
774,0.774000,873,2488011,33057.01,-4397.73,10368.060000000001
775,0.775000,874,2489011,24389.01,-787.73,-2294.9399999999996
776,0.776000,875,2490011,8305.01,3648.27,-13057.939999999999
777,0.777000,876,2491011,-5293.99,3809.27,-14663.939999999999
778,0.777999,877,2492010,-19987.99,1469.27,-12736.939999999999
779,0.779000,878,2493011,-24839.99,-36.730000000000004,-7077.94
780,0.779999,879,2494010,-12912.99,556.27,-4835.94
781,0.781000,880,2495011,-4305.99,1790.27,-11063.939999999999
782,0.782000,881,2496011,12096.01,1646.27,-13312.939999999999
783,0.783000,882,2497011,22910.01,1413.27,-5690.94
784,0.784000,883,2498011,18337.01,18.27,2971.0600000000004
785,0.785000,884,2499011,6153.01,-2509.73,8303.060000000001
786,0.786000,885,2500011,-4363.99,-4425.73,12619.060000000001
787,0.787000,886,2501011,-5089.99,-3340.73,13641.060000000001
788,0.788000,887,2502011,-6077.99,-752.73,6020.06
789,0.789000,888,2503011,-1218.99,-37.730000000000004,2081.0600000000004
790,0.790000,889,2504011,5413.01,-1600.73,3851.0600000000004
791,0.791000,890,2505011,6472.01,-5457.73,9727.060000000001
792,0.792000,891,2506011,2758.01,-6078.73,12732.060000000001
793,0.792999,892,2507010,-6841.99,-1383.73,4035.0600000000004
794,0.794000,893,2508011,-21199.99,1265.27,-2714.9399999999996
795,0.795000,894,2509011,-22521.99,2168.27,-2977.9399999999996
796,0.796000,895,2510011,-21589.99,5734.27,-4970.94
797,0.797000,896,2511011,-15812.99,7324.27,-9092.939999999999
798,0.797999,897,2512010,-1913.99,5024.27,-6415.94
799,0.799000,898,2513011,12967.01,1534.27,2381.0600000000004
800,0.800000,899,2514011,29317.01,-2772.73,12238.060000000001
801,0.801000,900,2515011,30298.01,-4804.73,10601.060000000001
802,0.802000,901,2516011,21428.01,-1842.73,-4065.9399999999996
803,0.803000,902,2517011,7989.01,1875.27,-12124.939999999999
804,0.804000,903,2518011,-6677.99,2305.27,-9921.939999999999
805,0.805000,904,2519011,-18496.99,-75.73,-6974.94
806,0.806000,905,2520011,-20801.99,-892.73,-5494.94
807,0.807000,906,2521011,-14013.99,1367.27,-6755.94
808,0.808000,907,2522011,-333.99,2017.27,-10194.939999999999
809,0.809000,908,2523011,14832.01,2079.27,-11105.939999999999
810,0.810000,909,2524011,20492.01,2782.27,-6203.94
811,0.811000,910,2525011,16536.01,448.27,2747.0600000000004
812,0.812000,911,2526011,3460.01,-1725.73,7757.06
813,0.813000,912,2527011,-4915.99,-2547.73,9429.060000000001
814,0.814000,913,2528011,-7306.99,-2296.73,8801.060000000001
815,0.815000,914,2529011,-9707.99,-1899.73,6131.06
816,0.816000,915,2530011,-2805.99,-1865.73,4052.0600000000004
817,0.817000,916,2531011,9490.01,-2003.73,3827.0600000000004
818,0.818000,917,2532011,6920.01,-5515.73,9525.060000000001
819,0.819000,918,2533011,3891.01,-6069.73,11380.060000000001
820,0.820000,919,2534011,-4288.99,-2559.73,7827.06
821,0.821000,920,2535011,-16694.99,798.27,1446.0600000000004
822,0.822000,921,2536011,-23542.99,4661.27,-8859.939999999999
823,0.823000,922,2537011,-24233.99,7256.27,-10773.939999999999
824,0.823999,923,2538010,-15366.99,6842.27,-6581.94
825,0.825000,924,2539011,-1540.99,3499.27,-940.9399999999996
826,0.826000,925,2540011,14890.01,282.27,5881.06
827,0.827000,926,2541011,27805.01,-3096.73,10534.060000000001
828,0.828000,927,2542011,30565.01,-4034.73,7089.06
829,0.829000,928,2543011,20199.01,-890.73,-2686.9399999999996
830,0.830000,929,2544011,8107.01,2043.27,-9370.939999999999
831,0.831000,930,2545011,-8088.99,1950.27,-10719.939999999999
832,0.832000,931,2546011,-22075.99,-108.73,-8164.94
833,0.833000,932,2547011,-19545.99,-319.73,-4882.94
834,0.834000,933,2548011,-7951.99,2467.27,-9409.939999999999
835,0.834999,934,2549010,748.01,3624.27,-17128.94
836,0.836000,935,2550011,12871.01,1294.27,-10281.939999999999
837,0.837000,936,2551011,19916.01,616.27,-382.9399999999996
838,0.838000,937,2552011,13391.01,226.27,2680.0600000000004
839,0.839000,938,2553011,3788.01,-2505.73,7558.06
840,0.839999,939,2554010,-4347.99,-3950.73,12014.060000000001
841,0.841000,940,2555011,-9850.99,-2742.73,11460.060000000001
842,0.842000,941,2556011,-7213.99,-1734.73,7634.06
843,0.843000,942,2557011,251.01,-1830.73,5577.06
844,0.844000,943,2558011,7294.01,-2772.73,4858.06
845,0.845000,944,2559011,9350.01,-4363.73,6298.06
846,0.846000,945,2560011,5522.01,-5121.73,10760.060000000001
847,0.847000,946,2561011,-5224.99,-2473.73,8319.060000000001
848,0.848000,947,2562011,-17896.99,2091.27,-2776.9399999999996
849,0.848999,948,2563010,-26030.99,6019.27,-11841.939999999999
850,0.850000,949,2564011,-28039.99,7493.27,-11434.939999999999
851,0.851000,950,2565011,-18984.99,4916.27,-3187.9399999999996
852,0.852000,951,2566011,-600.99,1996.27,3241.0600000000004
853,0.853000,952,2567011,19408.01,245.27,4333.06
854,0.854000,953,2568011,33057.01,-2175.73,7070.06
855,0.855000,954,2569011,33057.01,-2560.73,3776.0600000000004
856,0.855999,955,2570010,18582.01,-9.73,-4790.94
857,0.857000,956,2571011,3722.01,1496.27,-8073.94
858,0.858000,957,2572011,-13678.99,1379.27,-10205.939999999999
859,0.859000,958,2573011,-24295.99,438.27,-9647.939999999999
860,0.860000,959,2574011,-19820.99,534.27,-6862.94
861,0.861000,960,2575011,-8677.99,2097.27,-8425.939999999999
862,0.861999,961,2576010,4877.01,1184.27,-10219.939999999999
863,0.863000,962,2577011,20143.01,477.27,-6895.94
864,0.864000,963,2578011,23729.01,923.27,-572.9399999999996
865,0.865000,964,2579011,12045.01,-930.73,4394.06
866,0.866000,965,2580011,-1248.99,-2444.73,8047.06
867,0.867000,966,2581011,-10471.99,-1775.73,10476.060000000001
868,0.868000,967,2582011,-8738.99,-833.73,6594.06
869,0.869000,968,2583011,-5106.99,-309.73,2229.0600000000004
870,0.870000,969,2584011,-677.99,-1580.73,4120.06
871,0.871000,970,2585011,8919.01,-5939.73,12491.060000000001
872,0.871999,971,2586010,9433.01,-7178.73,14367.060000000001
873,0.872999,972,2587010,3792.01,-3515.73,5241.06
874,0.874000,973,2588011,-10388.99,-145.73,557.0600000000004
875,0.875000,974,2589011,-18757.99,1935.27,-2145.9399999999996
876,0.875999,975,2590010,-24130.99,4634.27,-4671.94
877,0.877000,976,2591011,-25234.99,6746.27,-7456.94
878,0.878000,977,2592011,-12274.99,6459.27,-8404.939999999999
879,0.879000,978,2593011,8.009999999999991,3872.27,-3845.9399999999996
880,0.880000,979,2594011,21368.01,519.27,2495.0600000000004
881,0.881000,980,2595011,31256.01,-4238.73,11203.060000000001
882,0.882000,981,2596011,27551.01,-3984.73,7679.06
883,0.883000,982,2597011,19424.01,914.27,-6771.94
884,0.884000,983,2598011,352.01,1667.27,-11669.939999999999
885,0.885000,984,2599011,-11768.99,438.27,-7232.94
886,0.886000,985,2600011,-21946.99,-559.73,-6553.94
887,0.887000,986,2601011,-18641.99,899.27,-7474.94
888,0.888000,987,2602011,-4722.99,2533.27,-7860.94
889,0.888999,988,2603010,7099.01,1130.27,-10023.939999999999
890,0.890000,989,2604011,18919.01,678.27,-6344.94
891,0.891000,990,2605011,20781.01,1358.27,297.0600000000004
892,0.892000,991,2606011,10270.01,-234.73,3453.0600000000004
893,0.892999,992,2607010,-3555.99,-2055.73,6901.06
894,0.894000,993,2608011,-8773.99,-2114.73,8762.060000000001
895,0.894999,994,2609010,-9720.99,-1906.73,7839.06
896,0.896000,995,2610011,-7129.99,-1310.73,5152.06
897,0.896999,996,2611010,3232.01,-1292.73,3715.0600000000004
898,0.897999,997,2612010,9481.01,-4199.73,7078.06
899,0.899000,998,2613011,7090.01,-6717.73,12169.060000000001
900,0.900000,999,2614011,1252.01,-5404.73,12296.060000000001
901,0.900999,1000,2615010,-10227.99,-506.73,3189.0600000000004
902,0.902000,1001,2616011,-19586.99,3127.27,-5517.94
903,0.902999,1002,2617010,-23974.99,5861.27,-10443.939999999999
904,0.903999,1003,2618010,-22928.99,7008.27,-6777.94
905,0.904999,1004,2619010,-9759.99,4907.27,-2445.9399999999996
906,0.905999,1005,2620010,8298.01,3438.27,-1920.9399999999996
907,0.907000,1006,2621011,20963.01,230.27,3139.0600000000004
908,0.908000,1007,2622011,30267.01,-3564.73,8272.060000000001
909,0.909000,1008,2623011,27269.01,-3910.73,4966.06
910,0.910000,1009,2624011,13346.01,-322.73,-4736.94
911,0.911000,1010,2625011,-2098.99,2431.27,-10632.939999999999
912,0.912000,1011,2626011,-15957.99,1675.27,-12173.939999999999
913,0.913000,1012,2627011,-22916.99,113.27,-8706.939999999999
914,0.914000,1013,2628011,-14450.99,622.27,-5756.94
915,0.915000,1014,2629011,-1604.99,2122.27,-8742.939999999999
916,0.916000,1015,2630011,10674.01,1597.27,-10421.939999999999
917,0.917000,1016,2631011,19392.01,1414.27,-6088.94
918,0.918000,1017,2632011,17984.01,961.27,875.0600000000004
919,0.919000,1018,2633011,5458.01,-1360.73,6236.06
920,0.920000,1019,2634011,-3716.99,-4068.73,10121.060000000001
921,0.920999,1020,2635010,-8718.99,-3362.73,12837.060000000001
922,0.922000,1021,2636011,-9467.99,-954.73,10253.060000000001
923,0.923000,1022,2637011,-918.99,-1056.73,3109.0600000000004
924,0.924000,1023,2638011,6626.01,-2155.73,1247.0600000000004
925,0.924999,1024,2639010,9824.01,-4135.73,7863.06
926,0.925999,1025,2640010,4482.01,-5258.73,11210.060000000001
927,0.926999,1026,2641010,-3988.99,-3092.73,6871.06
928,0.928000,1027,2642011,-15769.99,691.27,-1244.9399999999996
929,0.929000,1028,2643011,-22807.99,3433.27,-7392.94
930,0.930000,1029,2644011,-23421.99,5465.27,-6452.94
931,0.930999,1030,2645010,-18313.99,5916.27,-4159.94
932,0.932000,1031,2646011,-6042.99,4347.27,-5130.94
933,0.933000,1032,2647011,10328.01,2407.27,-1389.9399999999996
934,0.934000,1033,2648011,25736.01,-1037.73,7980.06
935,0.935000,1034,2649011,30339.01,-3949.73,11165.060000000001
936,0.936000,1035,2650011,24878.01,-2273.73,1849.0600000000004
937,0.937000,1036,2651011,11166.01,1489.27,-10345.939999999999
938,0.938000,1037,2652011,-5285.99,2545.27,-12771.939999999999
939,0.939000,1038,2653011,-17196.99,761.27,-8389.939999999999
940,0.940000,1039,2654011,-22664.99,-381.73,-5468.94
941,0.941000,1040,2655011,-14301.99,245.27,-5696.94
942,0.942000,1041,2656011,704.01,1732.27,-9071.939999999999
943,0.943000,1042,2657011,12468.01,2144.27,-10205.939999999999
944,0.944000,1043,2658011,18188.01,1336.27,-4491.94
945,0.945000,1044,2659011,15928.01,47.269999999999996,1975.0600000000004
946,0.946000,1045,2660011,7895.01,-1605.73,6697.06
947,0.947000,1046,2661011,-4691.99,-2326.73,9114.060000000001
948,0.948000,1047,2662011,-8480.99,-1888.73,8821.060000000001
949,0.949000,1048,2663011,-7320.99,-1805.73,7176.06
950,0.949999,1049,2664010,-2832.99,-1697.73,3606.0600000000004
951,0.951000,1050,2665011,5103.01,-2081.73,4252.06
952,0.952000,1051,2666011,7734.01,-5046.73,9180.060000000001
953,0.953000,1052,2667011,7275.01,-5512.73,9625.060000000001
954,0.954000,1053,2668011,-4608.99,-2692.73,6338.06
955,0.955000,1054,2669011,-18323.99,281.27,2347.0600000000004
956,0.956000,1055,2670011,-20948.99,3670.27,-5158.94
957,0.957000,1056,2671011,-22564.99,7271.27,-11629.939999999999
958,0.957999,1057,2672010,-20071.99,8324.27,-11762.939999999999
959,0.959000,1058,2673011,-4044.99,4142.27,-4538.94
960,0.960000,1059,2674011,12307.01,286.27,5856.06
961,0.961000,1060,2675011,27770.01,-3430.73,13994.060000000001
962,0.961999,1061,2676010,32148.01,-4426.73,8253.060000000001
963,0.963000,1062,2677011,22070.01,-662.73,-5333.94
964,0.964000,1063,2678011,8893.01,699.27,-6577.94
965,0.965000,1064,2679011,-5114.99,1193.27,-5947.94
966,0.966000,1065,2680011,-17297.99,738.27,-7941.94
967,0.967000,1066,2681011,-18972.99,949.27,-9041.939999999999
968,0.968000,1067,2682011,-13466.99,3418.27,-11742.939999999999
969,0.969000,1068,2683011,-4300.99,2574.27,-13512.939999999999
970,0.970000,1069,2684011,10952.01,312.27,-7524.94
971,0.971000,1070,2685011,19291.01,-56.730000000000004,1187.0600000000004
972,0.972000,1071,2686011,18120.01,-320.73,3872.0600000000004
973,0.973000,1072,2687011,8720.01,-1817.73,6884.06
974,0.973999,1073,2688010,-3702.99,-3275.73,9925.060000000001
975,0.975000,1074,2689011,-10927.99,-2719.73,10095.060000000001
976,0.975999,1075,2690010,-8909.99,-2074.73,8844.060000000001
977,0.977000,1076,2691011,1253.01,-1250.73,6344.06
978,0.978000,1077,2692011,7737.01,-1306.73,570.0600000000004
979,0.979000,1078,2693011,5652.01,-3109.73,765.0600000000004
980,0.980000,1079,2694011,3835.01,-4700.73,8993.060000000001
981,0.981000,1080,2695011,-6542.99,-3267.73,9237.060000000001
982,0.982000,1081,2696011,-20450.99,381.27,-1127.9399999999996
983,0.983000,1082,2697011,-24856.99,4291.27,-8787.939999999999
984,0.984000,1083,2698011,-23014.99,6270.27,-5947.94
985,0.985000,1084,2699011,-16082.99,4851.27,-2631.9399999999996
986,0.985999,1085,2700010,1391.01,3610.27,-2224.9399999999996
987,0.987000,1086,2701011,17994.01,2095.27,1695.0600000000004
988,0.988000,1087,2702011,29593.01,-1930.73,8722.060000000001
989,0.988999,1088,2703010,32914.01,-4009.73,9281.060000000001
990,0.989999,1089,2704010,19377.01,-975.73,-2180.9399999999996
991,0.991000,1090,2705011,3732.01,2092.27,-11603.939999999999
992,0.991999,1091,2706010,-11091.99,1917.27,-11807.939999999999
993,0.992999,1092,2707010,-22699.99,85.27,-8716.939999999999
994,0.994000,1093,2708011,-20280.99,-723.73,-4913.94
995,0.995000,1094,2709011,-11191.99,569.27,-5391.94
996,0.996000,1095,2710011,4217.01,1437.27,-9873.939999999999
997,0.997000,1096,2711011,17688.01,1757.27,-9946.939999999999
998,0.997999,1097,2712010,21740.01,2261.27,-4586.94
999,0.999000,1098,2713011,14446.01,544.27,1562.0600000000004
1000,1.000000,1099,2714011,2187.01,-1939.73,8486.060000000001
1001,1.001000,1100,2715011,-5853.99,-2696.73,12311.060000000001
1002,1.002000,1101,2716011,-11701.99,-2009.73,8201.060000000001
1003,1.003000,1102,2717011,-7271.99,-1048.73,1427.0600000000004
1004,1.004000,1103,2718011,-1294.99,-924.73,643.0600000000004
1005,1.005000,1104,2719011,10249.01,-3339.73,7699.06
1006,1.006000,1105,2720011,6761.01,-6896.73,14218.060000000001
1007,1.007000,1106,2721011,1079.01,-6900.73,13167.060000000001
1008,1.008000,1107,2722011,-4469.99,-1873.73,6763.06
1009,1.009000,1108,2723011,-18537.99,3056.27,-3909.9399999999996
1010,1.010000,1109,2724011,-21459.99,5838.27,-10026.939999999999
1011,1.011000,1110,2725011,-24976.99,7561.27,-10178.939999999999
1012,1.012000,1111,2726011,-14545.99,5675.27,-4565.94
1013,1.013000,1112,2727011,287.01,2645.27,3102.0600000000004
1014,1.014000,1113,2728011,17144.01,246.27,4790.06
1015,1.015000,1114,2729011,32595.01,-2539.73,7013.06
1016,1.016000,1115,2730011,29314.01,-2900.73,2643.0600000000004
1017,1.017000,1116,2731011,18589.01,-116.73,-5638.94
1018,1.018000,1117,2732011,1015.01,1741.27,-8822.939999999999
1019,1.019000,1118,2733011,-13447.99,1193.27,-8657.939999999999
1020,1.020000,1119,2734011,-20927.99,-566.73,-7273.94
1021,1.021000,1120,2735011,-16520.99,81.27,-6740.94
1022,1.022000,1121,2736011,-7944.99,2477.27,-9422.939999999999
1023,1.023000,1122,2737011,6800.01,1723.27,-12726.939999999999
1024,1.024000,1123,2738011,21255.01,1009.27,-7947.94
1025,1.025000,1124,2739011,19386.01,1089.27,576.0600000000004
1026,1.026000,1125,2740011,11452.01,-945.73,5467.06
1027,1.027000,1126,2741011,-2933.99,-3128.73,7822.06
1028,1.028000,1127,2742011,-9312.99,-2314.73,9605.060000000001
1029,1.028999,1128,2743010,-10494.99,-1378.73,7869.06
1030,1.030000,1129,2744011,-7971.99,-1648.73,6698.06
1031,1.031000,1130,2745011,3961.01,-2076.73,8297.060000000001
1032,1.031999,1131,2746010,11263.01,-3130.73,6034.06
1033,1.033000,1132,2747011,10070.01,-3977.73,4420.06
1034,1.034000,1133,2748011,2466.01,-4121.73,8428.060000000001
1035,1.035000,1134,2749011,-14013.99,-1538.73,6770.06
1036,1.036000,1135,2750011,-22525.99,1352.27,-3185.9399999999996
1037,1.037000,1136,2751011,-25577.99,4888.27,-8850.939999999999
1038,1.038000,1137,2752011,-22599.99,6562.27,-5938.94
1039,1.039000,1138,2753011,-9163.99,4596.27,-2722.9399999999996
1040,1.040000,1139,2754011,7439.01,3190.27,-1747.9399999999996
1041,1.041000,1140,2755011,22777.01,980.27,1881.0600000000004
1042,1.041999,1141,2756010,30593.01,-2890.73,8124.06
1043,1.042999,1142,2757010,28192.01,-3821.73,7927.06
1044,1.044000,1143,2758011,14937.01,-14.73,-4661.94
1045,1.045000,1144,2759011,-1414.99,3262.27,-15022.939999999999
1046,1.046000,1145,2760011,-16479.99,2672.27,-14812.939999999999
1047,1.047000,1146,2761011,-22592.99,-263.73,-7951.94
1048,1.048000,1147,2762011,-16966.99,-443.73,-2631.9399999999996
1049,1.049000,1148,2763011,-6703.99,747.27,-5677.94
1050,1.050000,1149,2764011,9622.01,566.27,-9520.939999999999
1051,1.050999,1150,2765010,22645.01,1686.27,-6668.94
1052,1.052000,1151,2766011,19928.01,2034.27,-1934.9399999999996
1053,1.053000,1152,2767011,8853.01,-657.73,4441.06
1054,1.054000,1153,2768011,-1752.99,-3227.73,11491.060000000001
1055,1.055000,1154,2769011,-7508.99,-2755.73,10733.060000000001
1056,1.056000,1155,2770011,-12643.99,-647.73,3503.0600000000004
1057,1.057000,1156,2771011,-7653.99,-1159.73,2378.0600000000004
1058,1.058000,1157,2772011,6662.01,-2193.73,6469.06
1059,1.059000,1158,2773011,10096.01,-3676.73,7511.06
1060,1.060000,1159,2774011,6445.01,-6887.73,11780.060000000001
1061,1.061000,1160,2775011,-585.99,-5807.73,13442.060000000001
1062,1.062000,1161,2776011,-12820.99,-210.73,4773.06
1063,1.063000,1162,2777011,-19688.99,4358.27,-8596.939999999999
1064,1.064000,1163,2778011,-22959.99,7179.27,-13856.939999999999
1065,1.064999,1164,2779010,-21100.99,7560.27,-8978.939999999999
1066,1.065999,1165,2780010,-9823.99,3683.27,-865.9399999999996
1067,1.066999,1166,2781010,5153.01,937.27,4609.06
1068,1.068000,1167,2782011,24576.01,-791.73,6120.06
1069,1.068999,1168,2783010,33057.01,-3377.73,7009.06
1070,1.070000,1169,2784011,26568.01,-2793.73,730.0600000000004
1071,1.070999,1170,2785010,12183.01,698.27,-6919.94
1072,1.072000,1171,2786011,-3934.99,2872.27,-10529.939999999999
1073,1.072999,1172,2787010,-16822.99,1077.27,-10018.939999999999
1074,1.074000,1173,2788011,-21751.99,-871.73,-5957.94
1075,1.075000,1174,2789011,-15236.99,1279.27,-7240.94
1076,1.076000,1175,2790011,-2927.99,3164.27,-11861.939999999999
1077,1.077000,1176,2791011,13104.01,1751.27,-11262.939999999999
1078,1.077999,1177,2792010,21879.01,1045.27,-4552.94
1079,1.079000,1178,2793011,16170.01,174.27,2413.0600000000004
1080,1.080000,1179,2794011,5708.01,-1662.73,6563.06
1081,1.081000,1180,2795011,-3645.99,-3044.73,9941.060000000001
1082,1.082000,1181,2796011,-9573.99,-2096.73,9070.060000000001
1083,1.083000,1182,2797011,-8619.99,-1074.73,6782.06
1084,1.084000,1183,2798011,-5019.99,-1664.73,4311.06
1085,1.085000,1184,2799011,4887.01,-3420.73,7403.06
1086,1.085999,1185,2800010,10427.01,-6667.73,14716.060000000001
1087,1.087000,1186,2801011,8445.01,-5372.73,11786.060000000001
1088,1.088000,1187,2802011,-334.99,-1382.73,2395.0600000000004
1089,1.088999,1188,2803010,-15238.99,1542.27,-4181.94
1090,1.090000,1189,2804011,-22026.99,3833.27,-6052.94
1091,1.090999,1190,2805010,-25427.99,5687.27,-5154.94
1092,1.092000,1191,2806011,-21352.99,5957.27,-6007.94
1093,1.092999,1192,2807010,-7791.99,4642.27,-6331.94
1094,1.093999,1193,2808010,10178.01,3002.27,-1205.9399999999996
1095,1.095000,1194,2809011,26575.01,-1089.73,5585.06
1096,1.096000,1195,2810011,30204.01,-4841.73,10012.060000000001
1097,1.096999,1196,2811010,24927.01,-2958.73,3378.0600000000004
1098,1.098000,1197,2812011,12070.01,1579.27,-10578.939999999999
1099,1.099000,1198,2813011,-6435.99,2880.27,-13724.939999999999
1100,1.100000,1199,2814011,-17477.99,769.27,-8080.94
1101,1.100999,1200,2815010,-20950.99,-935.73,-5654.94
1102,1.101999,1201,2816010,-14441.99,1270.27,-5251.94
1103,1.103000,1202,2817011,319.01,1853.27,-7399.94
1104,1.104000,1203,2818011,13333.01,433.27,-8923.939999999999
1105,1.104999,1204,2819010,22916.01,1536.27,-3231.9399999999996
1106,1.106000,1205,2820011,17693.01,592.27,2541.0600000000004
1107,1.107000,1206,2821011,3633.01,-2124.73,7975.06
1108,1.108000,1207,2822011,-6366.99,-2459.73,9532.060000000001
1109,1.108999,1208,2823010,-11649.99,-1171.73,6528.06
1110,1.110000,1209,2824011,-11403.99,-536.73,2502.0600000000004
1111,1.111000,1210,2825011,-1849.99,-1717.73,1504.0600000000004
1112,1.112000,1211,2826011,7000.01,-2714.73,6498.06
1113,1.113000,1212,2827011,7942.01,-4583.73,9935.060000000001
1114,1.114000,1213,2828011,9329.01,-6439.73,11243.060000000001
1115,1.115000,1214,2829011,-3007.99,-3783.73,9311.060000000001
1116,1.116000,1215,2830011,-17637.99,361.27,2265.0600000000004
1117,1.117000,1216,2831011,-18069.99,3743.27,-6163.94
1118,1.118000,1217,2832011,-24083.99,7537.27,-10306.939999999999
1119,1.119000,1218,2833011,-20012.99,7654.27,-9506.939999999999
1120,1.120000,1219,2834011,-2805.99,3940.27,-2269.9399999999996
1121,1.121000,1220,2835011,10190.01,1001.27,4651.06
1122,1.122000,1221,2836011,27827.01,-2046.73,8361.060000000001
1123,1.123000,1222,2837011,31206.01,-3829.73,6524.06
1124,1.124000,1223,2838011,21049.01,-1958.73,-1730.9399999999996
1125,1.125000,1224,2839011,6313.01,1958.27,-8975.939999999999
1126,1.126000,1225,2840011,-7239.99,2919.27,-12304.939999999999
1127,1.127000,1226,2841011,-17595.99,-41.730000000000004,-8889.939999999999
1128,1.128000,1227,2842011,-20967.99,-512.73,-5366.94
1129,1.129000,1228,2843011,-13116.99,1184.27,-6869.94
1130,1.130000,1229,2844011,3462.01,1486.27,-10221.939999999999
1131,1.131000,1230,2845011,18719.01,1324.27,-9365.939999999999
1132,1.132000,1231,2846011,20664.01,1507.27,-3626.9399999999996
1133,1.133000,1232,2847011,14758.01,163.27,2386.0600000000004
1134,1.134000,1233,2848011,586.01,-2661.73,8137.06
1135,1.135000,1234,2849011,-7078.99,-2472.73,10988.060000000001
1136,1.136000,1235,2850011,-11130.99,-1046.73,7798.06
1137,1.137000,1236,2851011,-7609.99,-1248.73,5041.06
1138,1.138000,1237,2852011,-652.99,-2131.73,5118.06
1139,1.139000,1238,2853011,7239.01,-3707.73,7732.06
1140,1.140000,1239,2854011,10026.01,-5347.73,11973.060000000001
1141,1.141000,1240,2855011,6915.01,-5270.73,11232.060000000001
1142,1.142000,1241,2856011,-3447.99,-1736.73,4544.06
1143,1.143000,1242,2857011,-21414.99,2099.27,-5073.94
1144,1.144000,1243,2858011,-22137.99,4646.27,-9125.939999999999
1145,1.145000,1244,2859011,-23195.99,6673.27,-7605.94
1146,1.145999,1245,2860010,-19168.99,5684.27,-5524.94
1147,1.147000,1246,2861011,-2064.99,3389.27,-2507.9399999999996
1148,1.148000,1247,2862011,13011.01,1665.27,1408.0600000000004
1149,1.149000,1248,2863011,30697.01,-2158.73,8090.06
1150,1.149999,1249,2864010,30331.01,-4481.73,8185.06
1151,1.151000,1250,2865011,18633.01,-1499.73,-595.9399999999996
1152,1.152000,1251,2866011,9269.01,2585.27,-10559.939999999999
1153,1.153000,1252,2867011,-9398.99,2997.27,-13334.939999999999
1154,1.154000,1253,2868011,-20939.99,-301.73,-7937.94
1155,1.155000,1254,2869011,-17397.99,-1077.73,-4311.94
1156,1.156000,1255,2870011,-10197.99,1786.27,-5892.94
1157,1.156999,1256,2871010,3285.01,1981.27,-10863.939999999999
1158,1.158000,1257,2872011,16770.01,785.27,-9464.939999999999
1159,1.159000,1258,2873011,20060.01,1156.27,-1203.9399999999996
1160,1.160000,1259,2874011,13058.01,-31.73,3950.0600000000004
1161,1.161000,1260,2875011,-677.99,-2687.73,7775.06
1162,1.162000,1261,2876011,-7308.99,-2022.73,10727.060000000001
1163,1.163000,1262,2877011,-11281.99,-1363.73,6900.06
1164,1.164000,1263,2878011,-6581.99,-2411.73,5891.06
1165,1.165000,1264,2879011,2731.01,-1846.73,6386.06
1166,1.166000,1265,2880011,7374.01,-2024.73,3938.0600000000004
1167,1.167000,1266,2881011,10318.01,-4766.73,6596.06
1168,1.168000,1267,2882011,4973.01,-6339.73,13219.060000000001
1169,1.169000,1268,2883011,-7944.99,-2733.73,9588.060000000001
1170,1.170000,1269,2884011,-18781.99,2046.27,-4802.94
1171,1.171000,1270,2885011,-24556.99,5994.27,-13283.939999999999
1172,1.172000,1271,2886011,-24599.99,7982.27,-11192.939999999999
1173,1.172999,1272,2887010,-14906.99,5234.27,-2449.9399999999996
1174,1.174000,1273,2888011,685.01,1873.27,4445.06
1175,1.175000,1274,2889011,17965.01,418.27,4364.06
1176,1.175999,1275,2890010,32144.01,-1669.73,5042.06
1177,1.177000,1276,2891011,29590.01,-2875.73,4515.06
1178,1.178000,1277,2892011,17573.01,-1043.73,-2368.9399999999996
1179,1.179000,1278,2893011,2953.01,1788.27,-9136.939999999999
1180,1.179999,1279,2894010,-12215.99,2177.27,-11763.939999999999
1181,1.181000,1280,2895011,-21783.99,-155.73,-9182.939999999999
1182,1.182000,1281,2896011,-20304.99,-43.730000000000004,-5962.94
1183,1.183000,1282,2897011,-9020.99,2037.27,-8117.94
1184,1.184000,1283,2898011,7542.01,1075.27,-10252.939999999999
1185,1.185000,1284,2899011,19917.01,741.27,-6491.94
1186,1.186000,1285,2900011,21495.01,1366.27,-989.9399999999996
1187,1.187000,1286,2901011,13546.01,-322.73,3689.0600000000004
1188,1.188000,1287,2902011,-1577.99,-2172.73,8039.06
1189,1.189000,1288,2903011,-9984.99,-2796.73,10847.060000000001
1190,1.190000,1289,2904011,-11549.99,-1029.73,5524.06
1191,1.191000,1290,2905011,-7869.99,-162.73,2727.0600000000004
1192,1.192000,1291,2906011,3402.01,-2087.73,7625.06
1193,1.192999,1292,2907010,8739.01,-4698.73,9238.060000000001
1194,1.194000,1293,2908011,9101.01,-6542.73,9560.060000000001
1195,1.194999,1294,2909010,6715.01,-4973.73,10411.060000000001
1196,1.196000,1295,2910011,-11252.99,-789.73,4845.06
1197,1.197000,1296,2911011,-22023.99,2871.27,-5050.94
1198,1.198000,1297,2912011,-21952.99,5071.27,-9209.939999999999
1199,1.199000,1298,2913011,-23019.99,6616.27,-7830.94
1200,1.200000,1299,2914011,-14838.99,6489.27,-6415.94
1201,1.201000,1300,2915011,3022.01,3661.27,-2265.9399999999996
1202,1.202000,1301,2916011,19048.01,-628.73,5229.06
1203,1.203000,1302,2917011,31548.01,-4636.73,11641.060000000001
1204,1.204000,1303,2918011,27997.01,-3139.73,6588.06
1205,1.205000,1304,2919011,14272.01,1245.27,-7707.94
1206,1.206000,1305,2920011,3960.01,1696.27,-12441.939999999999
1207,1.207000,1306,2921011,-10172.99,791.27,-8452.939999999999
1208,1.208000,1307,2922011,-21215.99,-150.73,-5584.94
1209,1.209000,1308,2923011,-15509.99,1300.27,-8079.94
1210,1.210000,1309,2924011,-6592.99,3006.27,-11531.939999999999
1211,1.211000,1310,2925011,6354.01,996.27,-10351.939999999999
1212,1.212000,1311,2926011,17348.01,640.27,-4724.94
1213,1.213000,1312,2927011,16424.01,724.27,1786.0600000000004
1214,1.214000,1313,2928011,9675.01,-1880.73,5814.06
1215,1.215000,1314,2929011,-3175.99,-2946.73,8449.060000000001
1216,1.216000,1315,2930011,-7821.99,-2364.73,10546.060000000001
1217,1.217000,1316,2931011,-5903.99,-1835.73,10281.060000000001
1218,1.218000,1317,2932011,-3388.99,-1457.73,5513.06
1219,1.219000,1318,2933011,3856.01,-1079.73,2739.0600000000004
1220,1.220000,1319,2934011,9803.01,-1548.73,1029.0600000000004
1221,1.220999,1320,2935010,3784.01,-4288.73,3766.0600000000004
1222,1.221999,1321,2936010,-2881.99,-5228.73,12481.060000000001
1223,1.223000,1322,2937011,-10870.99,-2638.73,9302.060000000001
1224,1.223999,1323,2938010,-18754.99,1840.27,-3865.9399999999996
1225,1.224999,1324,2939010,-23827.99,6580.27,-13020.939999999999
1226,1.226000,1325,2940011,-23972.99,7352.27,-11015.939999999999
1227,1.227000,1326,2941011,-9846.99,5144.27,-2505.9399999999996
1228,1.227999,1327,2942010,7851.01,1896.27,3212.0600000000004
1229,1.229000,1328,2943011,22998.01,-1723.73,7876.06
1230,1.229999,1329,2944010,32303.01,-3549.73,10384.060000000001
1231,1.230999,1330,2945010,27611.01,-1936.73,1735.0600000000004
1232,1.231999,1331,2946010,14123.01,1171.27,-8718.939999999999
1233,1.233000,1332,2947011,-1469.99,1749.27,-9549.939999999999
1234,1.234000,1333,2948011,-16277.99,409.27,-7614.94
1235,1.235000,1334,2949011,-22369.99,-697.73,-4862.94
1236,1.236000,1335,2950011,-17167.99,504.27,-4653.94
1237,1.236999,1336,2951010,-5009.99,3556.27,-12118.939999999999
1238,1.237999,1337,2952010,10703.01,3455.27,-15643.939999999999
1239,1.239000,1338,2953011,17060.01,1050.27,-7745.94
1240,1.239999,1339,2954010,18023.01,210.27,2500.0600000000004
1241,1.241000,1340,2955011,9532.01,-1411.73,7497.06
1242,1.242000,1341,2956011,-2805.99,-3310.73,9158.060000000001
1243,1.243000,1342,2957011,-6372.99,-3069.73,10549.060000000001
1244,1.244000,1343,2958011,-8648.99,-1890.73,7790.06
1245,1.244999,1344,2959010,-4267.99,-1602.73,4141.06
1246,1.246000,1345,2960011,7367.01,-2692.73,6415.06
1247,1.247000,1346,2961011,11627.01,-4505.73,8717.060000000001
1248,1.248000,1347,2962011,3772.01,-4615.73,6665.06
1249,1.248999,1348,2963010,-2317.99,-2429.73,6328.06
1250,1.250000,1349,2964011,-13983.99,-30.73,1910.0600000000004
1251,1.251000,1350,2965011,-23626.99,3765.27,-7641.94
1252,1.252000,1351,2966011,-27149.99,6333.27,-10544.939999999999
1253,1.253000,1352,2967011,-23259.99,5693.27,-5849.94
1254,1.254000,1353,2968011,-5601.99,3495.27,-390.9399999999996
1255,1.255000,1354,2969011,11765.01,1042.27,3726.0600000000004
1256,1.256000,1355,2970011,25988.01,-1405.73,8934.060000000001
1257,1.256999,1356,2971010,33057.01,-3046.73,8100.06
1258,1.258000,1357,2972011,26366.01,-1465.73,-795.9399999999996
1259,1.259000,1358,2973011,11323.01,700.27,-6447.94
1260,1.260000,1359,2974011,-4738.99,1625.27,-7596.94
1261,1.260999,1360,2975010,-18971.99,1022.27,-9512.939999999999
1262,1.262000,1361,2976011,-20106.99,256.27,-9199.939999999999
1263,1.263000,1362,2977011,-15409.99,1736.27,-9256.939999999999
1264,1.264000,1363,2978011,-6319.99,2919.27,-12609.939999999999
1265,1.265000,1364,2979011,10862.01,1354.27,-10476.939999999999
1266,1.266000,1365,2980011,19357.01,216.27,-2220.9399999999996
1267,1.267000,1366,2981011,16785.01,-185.73,2785.0600000000004
1268,1.268000,1367,2982011,9400.01,-1419.73,5922.06
1269,1.269000,1368,2983011,-966.99,-2303.73,8938.060000000001
1270,1.269999,1369,2984010,-7068.99,-1881.73,8910.060000000001
1271,1.271000,1370,2985011,-7003.99,-1192.73,7407.06
1272,1.271999,1371,2986010,-3722.99,-1875.73,4713.06
1273,1.272999,1372,2987010,4877.01,-4075.73,8224.060000000001
1274,1.274000,1373,2988011,8148.01,-4967.73,10328.060000000001
1275,1.275000,1374,2989011,5242.01,-3515.73,3499.0600000000004
1276,1.276000,1375,2990011,-3108.99,-2032.73,3159.0600000000004
1277,1.277000,1376,2991011,-16458.99,-410.73,4379.06
1278,1.278000,1377,2992011,-22383.99,3229.27,-3903.9399999999996
1279,1.279000,1378,2993011,-24792.99,7326.27,-10809.939999999999
1280,1.280000,1379,2994011,-21407.99,7068.27,-9298.939999999999
1281,1.281000,1380,2995011,-6320.99,4056.27,-3992.9399999999996
1282,1.282000,1381,2996011,11137.01,1133.27,4567.06
1283,1.283000,1382,2997011,27463.01,-3395.73,13880.060000000001
1284,1.284000,1383,2998011,33057.01,-4179.73,9738.060000000001
1285,1.285000,1384,2999011,25835.01,-1164.73,-4405.94
1286,1.286000,1385,3000011,12310.01,1118.27,-8558.939999999999
1287,1.286999,1386,3001010,-5230.99,1682.27,-6722.94
1288,1.288000,1387,3002011,-19646.99,168.27,-8634.939999999999
1289,1.289000,1388,3003011,-21823.99,335.27,-8037.94
1290,1.290000,1389,3004011,-15639.99,2527.27,-10093.939999999999
1291,1.291000,1390,3005011,-4198.99,3247.27,-14983.939999999999
1292,1.291999,1391,3006010,9485.01,1031.27,-9208.939999999999
1293,1.293000,1392,3007011,19423.01,-50.730000000000004,491.0600000000004
1294,1.293999,1393,3008010,18687.01,-93.73,3236.0600000000004
1295,1.294999,1394,3009010,9557.01,-1305.73,5024.06
1296,1.296000,1395,3010011,-828.99,-2241.73,7728.06
1297,1.297000,1396,3011011,-9510.99,-2419.73,9032.060000000001
1298,1.297999,1397,3012010,-9108.99,-2325.73,9041.060000000001
1299,1.299000,1398,3013011,-2166.99,-1641.73,7458.06
1300,1.300000,1399,3014011,6280.01,-1240.73,2571.0600000000004
1301,1.300999,1400,3015010,8317.01,-4593.73,4936.06
1302,1.302000,1401,3016011,5139.01,-5601.73,11453.060000000001
1303,1.303000,1402,3017011,-4264.99,-2353.73,8037.06
1304,1.304000,1403,3018011,-17811.99,430.27,-612.9399999999996
1305,1.305000,1404,3019011,-23360.99,4181.27,-7188.94
1306,1.306000,1405,3020011,-24708.99,6687.27,-9012.939999999999
1307,1.307000,1406,3021011,-18919.99,6724.27,-7628.94
1308,1.308000,1407,3022011,-5013.99,3742.27,-2075.9399999999996
1309,1.309000,1408,3023011,14826.01,324.27,4366.06
1310,1.310000,1409,3024011,29362.01,-2714.73,11091.060000000001
1311,1.310999,1410,3025010,32273.01,-3332.73,7161.06
1312,1.312000,1411,3026011,24242.01,-638.73,-4167.94
1313,1.313000,1412,3027011,7224.01,709.27,-7740.94
1314,1.314000,1413,3028011,-7320.99,907.27,-6905.94
1315,1.315000,1414,3029011,-19540.99,214.27,-7969.94
1316,1.316000,1415,3030011,-20431.99,981.27,-9354.939999999999
1317,1.317000,1416,3031011,-12896.99,2962.27,-10928.939999999999
1318,1.318000,1417,3032011,-2992.99,2803.27,-14184.939999999999
1319,1.319000,1418,3033011,12673.01,873.27,-8439.939999999999
1320,1.320000,1419,3034011,20094.01,381.27,-623.9399999999996
1321,1.321000,1420,3035011,16488.01,-420.73,2456.0600000000004
1322,1.322000,1421,3036011,6620.01,-2524.73,8552.060000000001
1323,1.323000,1422,3037011,-3828.99,-3066.73,11654.060000000001
1324,1.323999,1423,3038010,-8881.99,-2134.73,9578.060000000001
1325,1.325000,1424,3039011,-5091.99,-1181.73,8282.060000000001
1326,1.326000,1425,3040011,-1038.99,-1546.73,4640.06
1327,1.326999,1426,3041010,5003.01,-3778.73,5946.06
1328,1.328000,1427,3042011,9681.01,-4968.73,11184.060000000001
1329,1.329000,1428,3043011,4657.01,-2924.73,4715.06
1330,1.330000,1429,3044011,-8982.99,-583.73,-375.9399999999996
1331,1.331000,1430,3045011,-20080.99,983.27,327.0600000000004
1332,1.332000,1431,3046011,-22556.99,3911.27,-4312.94
1333,1.333000,1432,3047011,-25953.99,6622.27,-10371.939999999999
1334,1.333999,1433,3048010,-17451.99,6305.27,-10889.939999999999
1335,1.335000,1434,3049011,-800.99,3410.27,-2145.9399999999996
1336,1.336000,1435,3050011,17108.01,-777.73,8552.060000000001
1337,1.336999,1436,3051010,32288.01,-4355.73,13831.060000000001
1338,1.338000,1437,3052011,31851.01,-3172.73,5484.06
1339,1.339000,1438,3053011,21532.01,-208.73,-4373.94
1340,1.340000,1439,3054011,7067.01,516.27,-4726.94
1341,1.341000,1440,3055011,-8749.99,1309.27,-7498.94
1342,1.342000,1441,3056011,-20664.99,1247.27,-10242.939999999999
1343,1.343000,1442,3057011,-21102.99,1818.27,-9741.939999999999
1344,1.344000,1443,3058011,-13619.99,3261.27,-12949.939999999999
1345,1.345000,1444,3059011,-133.99,2743.27,-13446.939999999999
1346,1.346000,1445,3060011,14289.01,1428.27,-6755.94
1347,1.347000,1446,3061011,17421.01,506.27,-1391.9399999999996
1348,1.347999,1447,3062010,14147.01,-1347.73,4208.06
1349,1.348999,1448,3063010,4106.01,-3411.73,10235.060000000001
1350,1.349999,1449,3064010,-1993.99,-3821.73,11180.060000000001
1351,1.351000,1450,3065011,-5302.99,-2152.73,9015.060000000001
1352,1.352000,1451,3066011,-6082.99,-1083.73,5318.06
1353,1.353000,1452,3067011,1952.01,-3396.73,8279.060000000001
1354,1.354000,1453,3068011,7592.01,-4799.73,12858.060000000001
1355,1.355000,1454,3069011,7404.01,-3131.73,5615.06
1356,1.355999,1455,3070010,3816.01,-1646.73,946.0600000000004
1357,1.357000,1456,3071011,-9258.99,-110.73,919.0600000000004
1358,1.358000,1457,3072011,-20401.99,2692.27,-4325.94
1359,1.359000,1458,3073011,-25739.99,5330.27,-8824.939999999999
1360,1.359999,1459,3074010,-30613.99,6178.27,-9097.939999999999
1361,1.361000,1460,3075011,-18440.99,4720.27,-4787.94
1362,1.362000,1461,3076011,1758.01,2021.27,1933.0600000000004
1363,1.363000,1462,3077011,20602.01,-1390.73,8202.060000000001
1364,1.364000,1463,3078011,33057.01,-4152.73,11505.060000000001
1365,1.365000,1464,3079011,33057.01,-3436.73,5616.06
1366,1.366000,1465,3080011,22972.01,-1296.73,-1298.9399999999996
1367,1.367000,1466,3081011,5254.01,835.27,-5080.94
1368,1.368000,1467,3082011,-12280.99,2365.27,-10073.939999999999
1369,1.369000,1468,3083011,-24964.99,2294.27,-12281.939999999999
1370,1.369999,1469,3084010,-22236.99,2269.27,-10140.939999999999
1371,1.370999,1470,3085010,-12392.99,3476.27,-12130.939999999999
1372,1.372000,1471,3086011,-577.99,2724.27,-14716.939999999999
1373,1.372999,1472,3087010,14748.01,679.27,-7793.94
1374,1.374000,1473,3088011,18750.01,-75.73,963.0600000000004
1375,1.375000,1474,3089011,13299.01,-1723.73,4834.06
1376,1.376000,1475,3090011,3307.01,-3374.73,8626.060000000001
1377,1.376999,1476,3091010,-2795.99,-3066.73,11961.060000000001
1378,1.378000,1477,3092011,-3899.99,-2198.73,10497.060000000001
1379,1.379000,1478,3093011,-1254.99,-1687.73,6942.06
1380,1.380000,1479,3094011,790.01,-2225.73,5490.06
1381,1.381000,1480,3095011,7462.01,-4818.73,10167.060000000001
1382,1.382000,1481,3096011,10511.01,-4895.73,10058.060000000001
1383,1.383000,1482,3097011,1469.01,-1572.73,1605.0600000000004
1384,1.383999,1483,3098010,-13590.99,707.27,-2688.9399999999996
1385,1.384999,1484,3099010,-22181.99,3178.27,-5338.94
1386,1.386000,1485,3100011,-28601.99,5673.27,-9118.939999999999
1387,1.387000,1486,3101011,-30740.99,5845.27,-8354.939999999999
1388,1.388000,1487,3102011,-15463.99,4143.27,-3012.9399999999996
1389,1.389000,1488,3103011,3443.01,2172.27,2649.0600000000004
1390,1.390000,1489,3104011,24302.01,-863.73,8299.060000000001
1391,1.390999,1490,3105010,33057.01,-4347.73,10897.060000000001
1392,1.392000,1491,3106011,33057.01,-3189.73,6198.06
1393,1.393000,1492,3107011,20787.01,-991.73,219.0600000000004
1394,1.394000,1493,3108011,4237.01,-1.7300000000000004,-4033.9399999999996
1395,1.394999,1494,3109010,-13268.99,2327.27,-11172.939999999999
1396,1.396000,1495,3110011,-24323.99,2534.27,-14490.939999999999
1397,1.396999,1496,3111010,-23649.99,2258.27,-12448.939999999999
1398,1.397999,1497,3112010,-11583.99,3425.27,-12438.939999999999
1399,1.399000,1498,3113011,2937.01,2239.27,-12063.939999999999
1400,1.400000,1499,3114011,11608.01,652.27,-7680.94
1401,1.401000,1500,3115011,19334.01,434.27,-1131.9399999999996
1402,1.402000,1501,3116011,14018.01,-1104.73,4756.06
1403,1.403000,1502,3117011,2036.01,-3238.73,10103.060000000001
1404,1.403999,1503,3118010,-2225.99,-3613.73,12281.060000000001
1405,1.405000,1504,3119011,-7504.99,-2045.73,8063.06
1406,1.406000,1505,3120011,-3111.99,-3030.73,10033.060000000001
1407,1.406999,1506,3121010,8328.01,-4364.73,14960.060000000001
1408,1.408000,1507,3122011,9813.01,-3261.73,7173.06
1409,1.409000,1508,3123011,6290.01,-3079.73,1723.0600000000004
1410,1.410000,1509,3124011,1679.01,-2042.73,2294.0600000000004
1411,1.411000,1510,3125011,-13388.99,1630.27,-2858.9399999999996
1412,1.412000,1511,3126011,-23644.99,4396.27,-6248.94
1413,1.412999,1512,3127010,-32012.99,4833.27,-8163.94
1414,1.414000,1513,3128011,-31862.99,4891.27,-7694.94
1415,1.415000,1514,3129011,-14294.99,3960.27,-3649.9399999999996
1416,1.416000,1515,3130011,5497.01,2129.27,1351.0600000000004
1417,1.417000,1516,3131011,27392.01,-1314.73,10038.060000000001
1418,1.418000,1517,3132011,33057.01,-3949.73,12816.060000000001
1419,1.419000,1518,3133011,33057.01,-2777.73,6015.06
1420,1.420000,1519,3134011,20175.01,-918.73,-1479.9399999999996
1421,1.421000,1520,3135011,1423.01,648.27,-5674.94
1422,1.421999,1521,3136010,-16779.99,2397.27,-11124.939999999999
1423,1.423000,1522,3137011,-23724.99,2689.27,-13130.939999999999
1424,1.423999,1523,3138010,-20392.99,1799.27,-10974.939999999999
1425,1.425000,1524,3139011,-13082.99,1703.27,-10365.939999999999
1426,1.426000,1525,3140011,3034.01,1559.27,-11786.939999999999
1427,1.427000,1526,3141011,15694.01,1421.27,-8309.939999999999
1428,1.428000,1527,3142011,16917.01,1356.27,-1498.9399999999996
1429,1.429000,1528,3143011,11800.01,-841.73,2457.0600000000004
1430,1.430000,1529,3144011,2454.01,-2382.73,7403.06
1431,1.431000,1530,3145011,-3008.99,-2706.73,11708.060000000001
1432,1.432000,1531,3146011,-4305.99,-2891.73,11922.060000000001
1433,1.433000,1532,3147011,-2435.99,-1926.73,6554.06
1434,1.434000,1533,3148011,2804.01,-3007.73,4698.06
1435,1.435000,1534,3149011,10843.01,-6347.73,14462.060000000001
1436,1.436000,1535,3150011,9056.01,-6119.73,14228.060000000001
1437,1.437000,1536,3151011,-128.99,-1904.73,350.0600000000004
1438,1.438000,1537,3152011,-13991.99,1506.27,-2841.9399999999996
1439,1.439000,1538,3153011,-24607.99,3685.27,-3344.9399999999996
1440,1.440000,1539,3154011,-27200.99,6364.27,-9261.939999999999
1441,1.441000,1540,3155011,-28661.99,7689.27,-13134.939999999999
1442,1.441999,1541,3156010,-14129.99,6422.27,-8721.939999999999
1443,1.443000,1542,3157011,5283.01,2098.27,2604.0600000000004
1444,1.444000,1543,3158011,25138.01,-3354.73,13709.060000000001
1445,1.445000,1544,3159011,33057.01,-4978.73,12775.060000000001
1446,1.446000,1545,3160011,30661.01,-2642.73,-316.9399999999996
1447,1.447000,1546,3161011,18685.01,-949.73,-1865.9399999999996
1448,1.448000,1547,3162011,3010.01,-999.73,-32.9399999999996
1449,1.449000,1548,3163011,-13629.99,782.27,-8689.939999999999
1450,1.450000,1549,3164011,-23786.99,2067.27,-13545.939999999999
1451,1.451000,1550,3165011,-17958.99,2101.27,-11570.939999999999
1452,1.452000,1551,3166011,-9400.99,2192.27,-8920.939999999999
1453,1.453000,1552,3167011,5786.01,2143.27,-9205.939999999999
1454,1.454000,1553,3168011,16374.01,2807.27,-9906.939999999999
1455,1.455000,1554,3169011,17098.01,2322.27,-4192.94
1456,1.456000,1555,3170011,10333.01,278.27,2331.0600000000004
1457,1.456999,1556,3171010,-4101.99,-2300.73,6200.06
1458,1.458000,1557,3172011,-9287.99,-3825.73,10708.060000000001
1459,1.459000,1558,3173011,-7761.99,-3669.73,11660.060000000001
1460,1.460000,1559,3174011,-395.99,-2733.73,8101.06
1461,1.461000,1560,3175011,7783.01,-2224.73,3835.0600000000004
1462,1.461999,1561,3176010,12254.01,-5353.73,9314.060000000001
1463,1.462999,1562,3177010,11263.01,-6518.73,15434.060000000001
1464,1.464000,1563,3178011,1479.01,-3152.73,7666.06
1465,1.465000,1564,3179011,-15236.99,843.27,-2045.9399999999996
1466,1.466000,1565,3180011,-25309.99,4283.27,-6526.94
1467,1.467000,1566,3181011,-26382.99,6407.27,-8280.939999999999
1468,1.468000,1567,3182011,-24936.99,7741.27,-11240.939999999999
1469,1.469000,1568,3183011,-14590.99,5913.27,-10178.939999999999
1470,1.470000,1569,3184011,4501.01,2532.27,1550.0600000000004
1471,1.471000,1570,3185011,22450.01,-1974.73,12697.060000000001
1472,1.471999,1571,3186010,33057.01,-5180.73,13105.060000000001
1473,1.473000,1572,3187011,29280.01,-2557.73,783.0600000000004
1474,1.473999,1573,3188010,17737.01,104.27,-4374.94
1475,1.475000,1574,3189011,3024.01,-282.73,-1835.9399999999996
1476,1.475999,1575,3190010,-12644.99,238.27,-7943.94
1477,1.477000,1576,3191011,-19656.99,1236.27,-11326.939999999999
1478,1.478000,1577,3192011,-18250.99,2241.27,-9700.939999999999
1479,1.479000,1578,3193011,-6710.99,2240.27,-8036.94
1480,1.479999,1579,3194010,6951.01,1624.27,-11789.939999999999
1481,1.481000,1580,3195011,14491.01,2298.27,-11077.939999999999
1482,1.482000,1581,3196011,14365.01,1973.27,-2140.9399999999996
1483,1.483000,1582,3197011,5888.01,-421.73,2614.0600000000004
1484,1.484000,1583,3198011,-3835.99,-2685.73,6914.06
1485,1.485000,1584,3199011,-6033.99,-3594.73,12504.060000000001
1486,1.485999,1585,3200010,-4184.99,-3360.73,11862.060000000001
1487,1.487000,1586,3201011,2375.01,-2354.73,6585.06
1488,1.488000,1587,3202011,6335.01,-1606.73,3577.0600000000004
1489,1.488999,1588,3203010,10290.01,-5200.73,11019.060000000001
1490,1.490000,1589,3204011,11161.01,-6392.73,13861.060000000001
1491,1.490999,1590,3205010,-902.99,-1981.73,4051.0600000000004
1492,1.491999,1591,3206010,-16273.99,902.27,-1814.9399999999996
1493,1.492999,1592,3207010,-25226.99,3273.27,-5007.94
1494,1.494000,1593,3208011,-26948.99,6362.27,-11107.939999999999
1495,1.495000,1594,3209011,-25144.99,7652.27,-12782.939999999999
1496,1.495999,1595,3210010,-13464.99,5211.27,-5874.94
1497,1.497000,1596,3211011,5250.01,1508.27,3633.0600000000004
1498,1.497999,1597,3212010,24427.01,-2125.73,12316.060000000001
1499,1.499000,1598,3213011,33057.01,-4182.73,11547.060000000001
1500,1.500000,1599,3214011,28940.01,-2848.73,1465.0600000000004
1501,1.501000,1600,3215011,17890.01,-711.73,-2206.9399999999996
1502,1.502000,1601,3216011,2371.01,265.27,-2863.9399999999996
1503,1.503000,1602,3217011,-12389.99,864.27,-8611.939999999999
1504,1.504000,1603,3218011,-19915.99,1460.27,-11370.939999999999
1505,1.504999,1604,3219010,-18491.99,1875.27,-9746.939999999999
1506,1.506000,1605,3220011,-7502.99,2751.27,-9117.939999999999
1507,1.507000,1606,3221011,3125.01,2639.27,-13915.939999999999
1508,1.508000,1607,3222011,13638.01,2013.27,-9787.939999999999
1509,1.509000,1608,3223011,15950.01,1991.27,-1649.9399999999996
1510,1.510000,1609,3224011,8451.01,-900.73,1909.0600000000004
1511,1.511000,1610,3225011,-1741.99,-3345.73,8561.060000000001
1512,1.511999,1611,3226010,-6187.99,-3392.73,12457.060000000001
1513,1.512999,1612,3227010,-1940.99,-2799.73,10012.060000000001
1514,1.514000,1613,3228011,-176.99,-1974.73,4993.06
1515,1.515000,1614,3229011,5012.01,-3924.73,8712.060000000001
1516,1.516000,1615,3230011,12347.01,-6610.73,16586.06
1517,1.517000,1616,3231011,7090.01,-4314.73,7305.06
1518,1.518000,1617,3232011,-3116.99,-762.73,-2346.9399999999996
1519,1.519000,1618,3233011,-14210.99,603.27,3215.0600000000004
1520,1.520000,1619,3234011,-23132.99,3088.27,-1639.9399999999996
1521,1.521000,1620,3235011,-26193.99,6731.27,-13380.939999999999
1522,1.522000,1621,3236011,-27386.99,7942.27,-14188.939999999999
1523,1.523000,1622,3237011,-14662.99,5601.27,-6438.94
1524,1.524000,1623,3238011,6844.01,1584.27,3973.0600000000004
1525,1.525000,1624,3239011,25300.01,-3140.73,13516.060000000001
1526,1.526000,1625,3240011,33057.01,-4577.73,13306.060000000001
1527,1.527000,1626,3241011,30022.01,-2578.73,1015.0600000000004
1528,1.527999,1627,3242010,18524.01,-1138.73,-3838.9399999999996
1529,1.529000,1628,3243011,2328.01,234.27,-3534.9399999999996
1530,1.530000,1629,3244011,-13398.99,1338.27,-9204.939999999999
1531,1.531000,1630,3245011,-20814.99,1733.27,-11799.939999999999
1532,1.531999,1631,3246010,-17309.99,2225.27,-9569.939999999999
1533,1.533000,1632,3247011,-10863.99,2657.27,-11138.939999999999
1534,1.534000,1633,3248011,667.01,2344.27,-13395.939999999999
1535,1.535000,1634,3249011,14486.01,2127.27,-8093.94
1536,1.535999,1635,3250010,17012.01,1372.27,-587.9399999999996
1537,1.536999,1636,3251010,12182.01,-1058.73,4944.06
1538,1.538000,1637,3252011,155.01,-3012.73,8935.060000000001
1539,1.539000,1638,3253011,-5165.99,-3325.73,11340.060000000001
1540,1.540000,1639,3254011,-3177.99,-2342.73,9641.060000000001
1541,1.541000,1640,3255011,-1202.99,-1434.73,4402.06
1542,1.542000,1641,3256011,2893.01,-3954.73,6484.06
1543,1.543000,1642,3257011,8110.01,-7328.73,16330.060000000001
1544,1.544000,1643,3258011,9207.01,-5451.73,13044.060000000001
1545,1.545000,1644,3259011,-1169.99,-623.73,-2582.9399999999996
1546,1.546000,1645,3260011,-15017.99,1674.27,-2965.9399999999996
1547,1.547000,1646,3261011,-24024.99,3458.27,-2223.9399999999996
1548,1.548000,1647,3262011,-25823.99,7202.27,-11343.939999999999
1549,1.549000,1648,3263011,-26597.99,7936.27,-13007.939999999999
1550,1.550000,1649,3264011,-14678.99,5180.27,-6252.94
1551,1.551000,1650,3265011,7761.01,1487.27,4441.06
1552,1.552000,1651,3266011,26409.01,-3471.73,13358.060000000001
1553,1.553000,1652,3267011,33057.01,-4064.73,9786.060000000001
1554,1.554000,1653,3268011,31327.01,-1836.73,-266.9399999999996
1555,1.555000,1654,3269011,18598.01,-1888.73,-754.9399999999996
1556,1.556000,1655,3270011,-661.99,-483.73,-2318.9399999999996
1557,1.557000,1656,3271011,-15280.99,740.27,-9511.939999999999
1558,1.558000,1657,3272011,-23713.99,1869.27,-13415.939999999999
1559,1.559000,1658,3273011,-20663.99,4061.27,-11563.939999999999
1560,1.560000,1659,3274011,-6020.99,3325.27,-8819.939999999999
1561,1.561000,1660,3275011,8276.01,1561.27,-11909.939999999999
1562,1.562000,1661,3276011,17362.01,1201.27,-8012.94
1563,1.563000,1662,3277011,15699.01,570.27,763.0600000000004
1564,1.564000,1663,3278011,8296.01,-690.73,3469.0600000000004
1565,1.565000,1664,3279011,-3096.99,-3040.73,7488.06
1566,1.566000,1665,3280011,-8034.99,-3041.73,11980.060000000001
1567,1.567000,1666,3281011,-5216.99,-1738.73,10595.060000000001
1568,1.568000,1667,3282011,-455.99,-2485.73,5258.06
1569,1.569000,1668,3283011,4885.01,-3785.73,5758.06
1570,1.570000,1669,3284011,12337.01,-6175.73,13417.060000000001
1571,1.571000,1670,3285011,12188.01,-6027.73,13452.060000000001
1572,1.572000,1671,3286011,-3781.99,-1440.73,2551.0600000000004
1573,1.572999,1672,3287010,-17813.99,1450.27,-1601.9399999999996
1574,1.574000,1673,3288011,-25297.99,4904.27,-7388.94
1575,1.575000,1674,3289011,-30593.99,8619.27,-16820.94
1576,1.576000,1675,3290011,-26326.99,7676.27,-12856.939999999999
1577,1.577000,1676,3291011,-9532.99,3857.27,-949.9399999999996
1578,1.578000,1677,3292011,10734.01,-351.73,8240.060000000001
1579,1.578999,1678,3293010,31377.01,-3996.73,13418.060000000001
1580,1.580000,1679,3294011,33057.01,-4168.73,7915.06
1581,1.581000,1680,3295011,29746.01,-1238.73,-1478.9399999999996
1582,1.582000,1681,3296011,14291.01,-415.73,-2129.9399999999996
1583,1.583000,1682,3297011,-5445.99,23.27,-4063.9399999999996
1584,1.584000,1683,3298011,-18102.99,665.27,-8934.939999999999
1585,1.585000,1684,3299011,-23313.99,1803.27,-11680.939999999999
1586,1.586000,1685,3300011,-14843.99,2450.27,-10704.939999999999
1587,1.587000,1686,3301011,-3093.99,2026.27,-11654.939999999999
1588,1.588000,1687,3302011,7544.01,2766.27,-13052.939999999999
1589,1.589000,1688,3303011,17100.01,2356.27,-6468.94
1590,1.590000,1689,3304011,16077.01,1140.27,55.0600000000004
1591,1.591000,1690,3305011,3591.01,-1259.73,4340.06
1592,1.591999,1691,3306010,-7149.99,-3517.73,9891.060000000001
1593,1.593000,1692,3307011,-6991.99,-3188.73,13322.060000000001
1594,1.593999,1693,3308010,-144.99,-1681.73,8655.060000000001
1595,1.595000,1694,3309011,1401.01,-1777.73,4021.0600000000004
1596,1.596000,1695,3310011,6989.01,-6136.73,13886.060000000001
1597,1.597000,1696,3311011,13505.01,-7090.73,17985.06
1598,1.597999,1697,3312010,6767.01,-2701.73,1282.0600000000004
1599,1.599000,1698,3313011,-5502.99,-278.73,-2971.9399999999996
1600,1.599999,1699,3314010,-19827.99,1420.27,-128.9399999999996
1601,1.601000,1700,3315011,-26728.99,5477.27,-7950.94
1602,1.602000,1701,3316011,-32477.99,7987.27,-11984.939999999999
1603,1.603000,1702,3317011,-26624.99,6418.27,-10559.939999999999
1604,1.603999,1703,3318010,-2428.99,3048.27,-1674.9399999999996
1605,1.605000,1704,3319011,15715.01,-107.73,6943.06
1606,1.605999,1705,3320010,33057.01,-4292.73,13592.060000000001
1607,1.607000,1706,3321011,33057.01,-4308.73,10653.060000000001
1608,1.608000,1707,3322011,26628.01,-1143.73,-1080.9399999999996
1609,1.609000,1708,3323011,11071.01,-579.73,-3421.9399999999996
1610,1.609999,1709,3324010,-6952.99,751.27,-5387.94
1611,1.611000,1710,3325011,-19941.99,1864.27,-11809.939999999999
1612,1.612000,1711,3326011,-21832.99,2143.27,-12322.939999999999
1613,1.613000,1712,3327011,-16882.99,3210.27,-11112.939999999999
1614,1.614000,1713,3328011,-3664.99,2836.27,-14564.939999999999
1615,1.615000,1714,3329011,10072.01,1475.27,-10106.939999999999
1616,1.615999,1715,3330010,14987.01,1715.27,-1935.9399999999996
1617,1.616999,1716,3331010,15582.01,-342.73,1467.0600000000004
1618,1.618000,1717,3332011,5645.01,-2732.73,6109.06
1619,1.619000,1718,3333011,-2889.99,-2831.73,10974.060000000001
1620,1.620000,1719,3334011,-4590.99,-2463.73,10442.060000000001
1621,1.621000,1720,3335011,-3191.99,-2308.73,8196.060000000001
1622,1.622000,1721,3336011,730.01,-2450.73,6876.06
1623,1.623000,1722,3337011,7517.01,-4365.73,9493.060000000001
1624,1.624000,1723,3338011,10465.01,-5730.73,11653.060000000001
1625,1.625000,1724,3339011,4359.01,-3508.73,5292.06
1626,1.626000,1725,3340011,-7771.99,-719.73,3181.0600000000004
1627,1.627000,1726,3341011,-21272.99,2809.27,-3179.9399999999996
1628,1.628000,1727,3342011,-27406.99,6022.27,-12704.939999999999
1629,1.629000,1728,3343011,-30792.99,7145.27,-12742.939999999999
1630,1.630000,1729,3344011,-21552.99,6223.27,-7635.94
1631,1.631000,1730,3345011,-1220.99,2634.27,1869.0600000000004
1632,1.632000,1731,3346011,20697.01,-1823.73,10803.060000000001
1633,1.632999,1732,3347010,33057.01,-4300.73,13068.060000000001
1634,1.633999,1733,3348010,33057.01,-2991.73,4389.06
1635,1.634999,1734,3349010,24843.01,-1030.73,-2269.9399999999996
1636,1.636000,1735,3350011,8434.01,-660.73,-1548.9399999999996
1637,1.636999,1736,3351010,-10430.99,665.27,-6669.94
1638,1.637999,1737,3352010,-22093.99,1954.27,-12378.939999999999
1639,1.639000,1738,3353011,-24836.99,2410.27,-11195.939999999999
1640,1.640000,1739,3354011,-15521.99,3585.27,-11101.939999999999
1641,1.641000,1740,3355011,1396.01,2372.27,-14345.939999999999
1642,1.642000,1741,3356011,14355.01,1303.27,-10218.939999999999
1643,1.643000,1742,3357011,19407.01,2114.27,-2357.9399999999996
1644,1.644000,1743,3358011,13075.01,83.27,1699.0600000000004
1645,1.645000,1744,3359011,1441.01,-2401.73,6197.06
1646,1.645999,1745,3360010,-4393.99,-3495.73,11219.060000000001
1647,1.647000,1746,3361011,-6950.99,-3059.73,11191.060000000001
1648,1.648000,1747,3362011,-3492.99,-1885.73,7092.06
1649,1.649000,1748,3363011,2452.01,-3047.73,7234.06
1650,1.650000,1749,3364011,11110.01,-6009.73,14593.060000000001
1651,1.650999,1750,3365010,11976.01,-5218.73,10778.060000000001
1652,1.652000,1751,3366011,1039.01,-2028.73,1968.0600000000004
1653,1.653000,1752,3367011,-12210.99,-577.73,808.0600000000004
1654,1.653999,1753,3368010,-21374.99,2603.27,-5149.94
1655,1.654999,1754,3369010,-27888.99,7437.27,-11452.939999999999
1656,1.656000,1755,3370011,-32477.99,7660.27,-11087.939999999999
1657,1.657000,1756,3371011,-18346.99,4587.27,-4882.94
1658,1.658000,1757,3372011,3416.01,1510.27,2794.0600000000004
1659,1.659000,1758,3373011,24126.01,-1872.73,9967.060000000001
1660,1.660000,1759,3374011,33057.01,-3848.73,12842.060000000001
1661,1.661000,1760,3375011,33057.01,-3698.73,5828.06
1662,1.662000,1761,3376011,23555.01,-1020.73,-2194.9399999999996
1663,1.663000,1762,3377011,4174.01,647.27,-5513.94
1664,1.664000,1763,3378011,-12657.99,1258.27,-9185.939999999999
1665,1.665000,1764,3379011,-23817.99,2170.27,-11881.939999999999
1666,1.666000,1765,3380011,-21800.99,2910.27,-12410.939999999999
1667,1.667000,1766,3381011,-11474.99,3540.27,-15090.939999999999
1668,1.668000,1767,3382011,1100.01,2129.27,-14373.939999999999
1669,1.669000,1768,3383011,12000.01,1131.27,-6288.94
1670,1.670000,1769,3384011,16333.01,591.27,-11.9399999999996
1671,1.671000,1770,3385011,13358.01,-1598.73,4342.06
1672,1.672000,1771,3386011,775.01,-3507.73,10072.060000000001
1673,1.673000,1772,3387011,-1616.99,-3112.73,13189.060000000001
1674,1.674000,1773,3388011,-1655.99,-1925.73,11024.060000000001
1675,1.675000,1774,3389011,-6417.99,-2355.73,6520.06
1676,1.676000,1775,3390011,4851.01,-4104.73,12580.060000000001
1677,1.677000,1776,3391011,12271.01,-4324.73,12452.060000000001
1678,1.678000,1777,3392011,6539.01,-1965.73,-1017.9399999999996
1679,1.679000,1778,3393011,-1502.99,-838.73,-1221.9399999999996
1680,1.680000,1779,3394011,-12554.99,477.27,-234.9399999999996
1681,1.681000,1780,3395011,-23942.99,3214.27,-4093.9399999999996
1682,1.682000,1781,3396011,-32477.99,4604.27,-7129.94
1683,1.683000,1782,3397011,-30009.99,5345.27,-8556.939999999999
1684,1.684000,1783,3398011,-10830.99,4114.27,-4186.94
1685,1.685000,1784,3399011,9384.01,1807.27,1680.0600000000004
1686,1.685999,1785,3400010,28850.01,-1672.73,9258.060000000001
1687,1.687000,1786,3401011,33057.01,-4788.73,13313.060000000001
1688,1.688000,1787,3402011,33057.01,-3059.73,6715.06
1689,1.689000,1788,3403011,19663.01,-404.73,-2558.9399999999996
1690,1.690000,1789,3404011,-0.9900000000000091,1501.27,-8145.94
1691,1.691000,1790,3405011,-18944.99,2841.27,-13084.939999999999
1692,1.692000,1791,3406011,-25777.99,2173.27,-10922.939999999999
1693,1.693000,1792,3407011,-23328.99,1607.27,-11101.939999999999
1694,1.694000,1793,3408011,-10828.99,3246.27,-14705.939999999999
1695,1.695000,1794,3409011,4196.01,2148.27,-10933.939999999999
1696,1.696000,1795,3410011,16054.01,596.27,-5290.94
1697,1.697000,1796,3411011,19041.01,379.27,225.0600000000004
1698,1.698000,1797,3412011,13135.01,-1425.73,4750.06
1699,1.699000,1798,3413011,2448.01,-3305.73,10725.060000000001
1700,1.699999,1799,3414010,-2230.99,-4230.73,13532.060000000001
1701,1.700999,1800,3415010,-3773.99,-2380.73,11178.060000000001
1702,1.702000,1801,3416011,-4801.99,-1510.73,7091.06
1703,1.703000,1802,3417011,4913.01,-3974.73,8665.060000000001
1704,1.704000,1803,3418011,8687.01,-5030.73,11277.060000000001
1705,1.705000,1804,3419011,8564.01,-2451.73,3840.0600000000004
1706,1.705999,1805,3420010,-2743.99,409.27,-4951.94
1707,1.707000,1806,3421011,-20284.99,2602.27,-6056.94
1708,1.708000,1807,3422011,-27969.99,3501.27,-4403.94
1709,1.709000,1808,3423011,-32477.99,3951.27,-4738.94
1710,1.710000,1809,3424011,-26705.99,4276.27,-4485.94
1711,1.711000,1810,3425011,-6492.99,3728.27,-2462.9399999999996
1712,1.712000,1811,3426011,15474.01,1702.27,2238.0600000000004
1713,1.713000,1812,3427011,33057.01,-2669.73,10986.060000000001
1714,1.714000,1813,3428011,33057.01,-5009.73,13478.060000000001
1715,1.715000,1814,3429011,29905.01,-3322.73,5294.06
1716,1.715999,1815,3430010,14145.01,-341.73,-2346.9399999999996
1717,1.717000,1816,3431011,-4868.99,2617.27,-10145.939999999999
1718,1.718000,1817,3432011,-23751.99,3640.27,-16553.94
1719,1.719000,1818,3433011,-25965.99,2992.27,-14580.939999999999
1720,1.719999,1819,3434010,-21533.99,2559.27,-12270.939999999999
1721,1.720999,1820,3435010,-9883.99,2326.27,-12928.939999999999
1722,1.722000,1821,3436011,6988.01,1444.27,-9360.939999999999
1723,1.723000,1822,3437011,17561.01,646.27,-3434.9399999999996
1724,1.724000,1823,3438011,21869.01,-252.73,1652.0600000000004
1725,1.725000,1824,3439011,13157.01,-2316.73,6740.06
1726,1.726000,1825,3440011,631.01,-3784.73,13469.060000000001
1727,1.727000,1826,3441011,-2140.99,-3391.73,13376.060000000001
1728,1.728000,1827,3442011,-3138.99,-1895.73,8913.060000000001
1729,1.729000,1828,3443011,-3867.99,-2346.73,7936.06
1730,1.730000,1829,3444011,3773.01,-4566.73,11245.060000000001
1731,1.731000,1830,3445011,8674.01,-4369.73,9596.060000000001
1732,1.732000,1831,3446011,6654.01,-973.73,-2424.9399999999996
1733,1.733000,1832,3447011,-7159.99,1687.27,-8528.939999999999
1734,1.734000,1833,3448011,-23379.99,2156.27,-5210.94
1735,1.735000,1834,3449011,-29131.99,2251.27,-1371.9399999999996
1736,1.736000,1835,3450011,-32477.99,3521.27,-2100.9399999999996
1737,1.737000,1836,3451011,-22796.99,4603.27,-3796.9399999999996
1738,1.737999,1837,3452010,-172.99,3715.27,-2519.9399999999996
1739,1.739000,1838,3453011,21619.01,1439.27,1937.0600000000004
1740,1.740000,1839,3454011,33057.01,-3173.73,11699.060000000001
1741,1.741000,1840,3455011,33057.01,-5410.73,14179.060000000001
1742,1.741999,1841,3456010,27383.01,-3199.73,6443.06
1743,1.743000,1842,3457011,9590.01,317.27,-3770.9399999999996
1744,1.744000,1843,3458011,-10018.99,3780.27,-15487.939999999999
1745,1.745000,1844,3459011,-25822.99,4118.27,-18305.94
1746,1.746000,1845,3460011,-26954.99,2046.27,-11778.939999999999
1747,1.747000,1846,3461011,-19065.99,840.27,-6153.94
1748,1.748000,1847,3462011,-4871.99,1346.27,-10333.939999999999
1749,1.749000,1848,3463011,13226.01,1829.27,-12538.939999999999
1750,1.749999,1849,3464010,20936.01,2033.27,-6316.94
1751,1.751000,1850,3465011,19370.01,948.27,203.0600000000004
1752,1.752000,1851,3466011,5928.01,-2173.73,6175.06
1753,1.753000,1852,3467011,-5259.99,-3765.73,11307.060000000001
1754,1.754000,1853,3468011,-4481.99,-3882.73,15738.060000000001
1755,1.755000,1854,3469011,-1604.99,-3239.73,12873.060000000001
1756,1.755999,1855,3470010,3492.01,-1178.73,2461.0600000000004
1757,1.757000,1856,3471011,6381.01,-2862.73,2009.0600000000004
1758,1.757999,1857,3472010,7443.01,-6190.73,15007.060000000001
1759,1.759000,1858,3473011,4779.01,-4108.73,11314.060000000001
1760,1.760000,1859,3474011,-10555.99,325.27,-2673.9399999999996
1761,1.761000,1860,3475011,-24821.99,3441.27,-8049.94
1762,1.762000,1861,3476011,-29247.99,5898.27,-9562.939999999999
1763,1.763000,1862,3477011,-30228.99,6422.27,-8799.939999999999
1764,1.764000,1863,3478011,-18796.99,4539.27,-5061.94
1765,1.765000,1864,3479011,1613.01,1977.27,2107.0600000000004
1766,1.765999,1865,3480010,23738.01,-1114.73,9920.060000000001
1767,1.767000,1866,3481011,33057.01,-3864.73,12379.060000000001
1768,1.767999,1867,3482010,33057.01,-3992.73,6382.06
1769,1.769000,1868,3483011,24117.01,-1782.73,284.0600000000004
1770,1.770000,1869,3484011,6167.01,927.27,-5437.94
1771,1.770999,1870,3485010,-11541.99,2382.27,-11057.939999999999
1772,1.771999,1871,3486010,-23798.99,2215.27,-12866.939999999999
1773,1.773000,1872,3487011,-21965.99,2355.27,-11755.939999999999
1774,1.774000,1873,3488011,-14561.99,3320.27,-13131.939999999999
1775,1.775000,1874,3489011,-2408.99,3006.27,-14837.939999999999
1776,1.776000,1875,3490011,12123.01,1216.27,-9553.939999999999
1777,1.777000,1876,3491011,18523.01,381.27,-767.9399999999996
1778,1.778000,1877,3492011,14746.01,-878.73,4624.06
1779,1.779000,1878,3493011,5001.01,-3376.73,9731.060000000001
1780,1.780000,1879,3494011,596.01,-4305.73,14097.060000000001
1781,1.781000,1880,3495011,-3239.99,-1953.73,10448.060000000001
1782,1.782000,1881,3496011,-5836.99,-1170.73,5865.06
1783,1.783000,1882,3497011,1496.01,-4065.73,11214.060000000001
1784,1.783999,1883,3498010,10049.01,-4792.73,13842.060000000001
1785,1.785000,1884,3499011,8020.01,-2787.73,4101.06
1786,1.786000,1885,3500011,1701.01,-51.730000000000004,-4665.94
1787,1.787000,1886,3501011,-10392.99,1119.27,-5892.94
1788,1.788000,1887,3502011,-25219.99,1967.27,-3315.9399999999996
1789,1.788999,1888,3503010,-32419.99,2892.27,-1663.9399999999996
1790,1.790000,1889,3504011,-32164.99,4157.27,-3552.9399999999996
1791,1.791000,1890,3505011,-17726.99,4814.27,-5403.94
1792,1.792000,1891,3506011,7580.01,3179.27,-2424.9399999999996
1793,1.793000,1892,3507011,25285.01,458.27,4327.06
1794,1.794000,1893,3508011,33057.01,-4048.73,14171.060000000001
1795,1.795000,1894,3509011,33057.01,-5439.73,13845.060000000001
1796,1.796000,1895,3510011,23487.01,-2133.73,1312.0600000000004
1797,1.796999,1896,3511010,5440.01,1847.27,-7582.94
1798,1.798000,1897,3512011,-15047.99,3214.27,-14953.939999999999
1799,1.799000,1898,3513011,-24370.99,2594.27,-14985.939999999999
1800,1.800000,1899,3514011,-26666.99,1973.27,-8874.939999999999
1801,1.801000,1900,3515011,-14328.99,1534.27,-8223.939999999999
1802,1.802000,1901,3516011,856.01,2102.27,-13217.939999999999
1803,1.803000,1902,3517011,12269.01,2059.27,-12078.939999999999
1804,1.804000,1903,3518011,21126.01,1699.27,-3592.9399999999996
1805,1.805000,1904,3519011,15660.01,-144.73,3339.0600000000004
1806,1.806000,1905,3520011,2955.01,-3141.73,8991.060000000001
1807,1.807000,1906,3521011,-5416.99,-3824.73,12256.060000000001
1808,1.808000,1907,3522011,-2567.99,-2605.73,11359.060000000001
1809,1.809000,1908,3523011,-2151.99,-1620.73,7692.06
1810,1.810000,1909,3524011,5105.01,-3303.73,9546.060000000001
1811,1.811000,1910,3525011,9263.01,-5231.73,10134.060000000001
1812,1.812000,1911,3526011,5619.01,-4403.73,6535.06
1813,1.813000,1912,3527011,1748.01,-1995.73,3710.0600000000004
1814,1.814000,1913,3528011,-13905.99,567.27,-2317.9399999999996
1815,1.814999,1914,3529010,-23911.99,3802.27,-6358.94
1816,1.816000,1915,3530011,-30757.99,5916.27,-8740.939999999999
1817,1.817000,1916,3531011,-31726.99,6195.27,-8896.939999999999
1818,1.818000,1917,3532011,-14870.99,4208.27,-2194.9399999999996
1819,1.819000,1918,3533011,7385.01,1241.27,4253.06
1820,1.820000,1919,3534011,27141.01,-1835.73,9869.060000000001
1821,1.821000,1920,3535011,33057.01,-4160.73,11249.060000000001
1822,1.822000,1921,3536011,33057.01,-3329.73,5332.06
1823,1.823000,1922,3537011,21637.01,-1118.73,-23.9399999999996
1824,1.824000,1923,3538011,2504.01,1040.27,-6160.94
1825,1.825000,1924,3539011,-16821.99,2484.27,-13771.939999999999
1826,1.826000,1925,3540011,-24034.99,2346.27,-13235.939999999999
1827,1.826999,1926,3541010,-23690.99,2507.27,-10999.939999999999
1828,1.828000,1927,3542011,-15054.99,3430.27,-14426.939999999999
1829,1.829000,1928,3543011,3092.01,2083.27,-13760.939999999999
1830,1.829999,1929,3544010,13958.01,1235.27,-7933.94
1831,1.831000,1930,3545011,20318.01,821.27,508.0600000000004
1832,1.831999,1931,3546010,13786.01,-2401.73,7374.06
1833,1.833000,1932,3547011,1669.01,-4017.73,10861.060000000001
1834,1.834000,1933,3548011,1414.01,-2649.73,11246.060000000001
1835,1.835000,1934,3549011,-5443.99,-1552.73,8403.060000000001
1836,1.836000,1935,3550011,-4476.99,-2712.73,10282.060000000001
1837,1.837000,1936,3551011,3799.01,-4368.73,12995.060000000001
1838,1.838000,1937,3552011,8318.01,-3969.73,9322.060000000001
1839,1.839000,1938,3553011,9745.01,-2841.73,1804.0600000000004
1840,1.839999,1939,3554010,543.01,-869.73,-3614.9399999999996
1841,1.841000,1940,3555011,-14565.99,1911.27,-4204.94
1842,1.842000,1941,3556011,-28074.99,2943.27,-2930.9399999999996
1843,1.843000,1942,3557011,-32477.99,3580.27,-2911.9399999999996
1844,1.843999,1943,3558010,-29589.99,4645.27,-4728.94
1845,1.844999,1944,3559010,-12805.99,4325.27,-5636.94
1846,1.846000,1945,3560011,10295.01,2788.27,-1572.9399999999996
1847,1.847000,1946,3561011,29018.01,-1109.73,7722.06
1848,1.848000,1947,3562011,33057.01,-5108.73,15166.060000000001
1849,1.849000,1948,3563011,33057.01,-3772.73,9580.060000000001
1850,1.849999,1949,3564010,20405.01,-606.73,-1912.9399999999996
1851,1.850999,1950,3565010,-709.99,1721.27,-9184.939999999999
1852,1.852000,1951,3566011,-20549.99,2954.27,-14209.939999999999
1853,1.853000,1952,3567011,-26740.99,2117.27,-12810.939999999999
1854,1.854000,1953,3568011,-21800.99,1466.27,-7675.94
1855,1.855000,1954,3569011,-11496.99,2202.27,-11001.939999999999
1856,1.855999,1955,3570010,4175.01,2821.27,-15440.939999999999
1857,1.857000,1956,3571011,16099.01,2042.27,-8575.939999999999
1858,1.857999,1957,3572010,21186.01,543.27,313.0600000000004
1859,1.859000,1958,3573011,12816.01,-1794.73,5033.06
1860,1.859999,1959,3574010,-1479.99,-3270.73,8994.060000000001
1861,1.861000,1960,3575011,-2763.99,-2936.73,13163.060000000001
1862,1.861999,1961,3576010,-4879.99,-1781.73,7922.06
1863,1.862999,1962,3577010,-2064.99,-2636.73,7636.06
1864,1.864000,1963,3578011,7179.01,-3967.73,12943.060000000001
1865,1.865000,1964,3579011,8368.01,-4918.73,9849.060000000001
1866,1.866000,1965,3580011,9295.01,-4387.73,5967.06
1867,1.867000,1966,3581011,-1190.99,-692.73,-188.9399999999996
1868,1.868000,1967,3582011,-18184.99,2313.27,-5182.94
1869,1.869000,1968,3583011,-27312.99,4223.27,-6201.94
1870,1.870000,1969,3584011,-32477.99,5607.27,-7083.94
1871,1.870999,1970,3585010,-28513.99,5279.27,-6058.94
1872,1.872000,1971,3586011,-9106.99,3507.27,-1975.9399999999996
1873,1.873000,1972,3587011,12875.01,1309.27,2757.0600000000004
1874,1.874000,1973,3588011,32439.01,-2753.73,10393.060000000001
1875,1.874999,1974,3589010,33057.01,-5056.73,13173.060000000001
1876,1.876000,1975,3590011,33057.01,-2838.73,5275.06
1877,1.876999,1976,3591010,16944.01,-206.73,-2473.9399999999996
1878,1.878000,1977,3592011,-3145.99,1749.27,-8812.939999999999
1879,1.879000,1978,3593011,-21299.99,2270.27,-14522.939999999999
1880,1.880000,1979,3594011,-25050.99,2493.27,-13114.939999999999
1881,1.881000,1980,3595011,-21623.99,2270.27,-9643.939999999999
1882,1.882000,1981,3596011,-11210.99,2622.27,-13155.939999999999
1883,1.883000,1982,3597011,6928.01,2417.27,-13758.939999999999
1884,1.884000,1983,3598011,16765.01,1694.27,-7461.94
1885,1.885000,1984,3599011,21312.01,468.27,1467.0600000000004
1886,1.886000,1985,3600011,10414.01,-3170.73,8758.060000000001
1887,1.887000,1986,3601011,-3322.99,-3893.73,11672.060000000001
1888,1.888000,1987,3602011,-560.99,-1864.73,10315.060000000001
1889,1.889000,1988,3603011,-4549.99,-1561.73,7194.06
1890,1.890000,1989,3604011,-2343.99,-3798.73,11639.060000000001
1891,1.891000,1990,3605011,7466.01,-4587.73,12570.060000000001
1892,1.891999,1991,3606010,8986.01,-3691.73,7690.06
1893,1.893000,1992,3607011,8010.01,-2263.73,1184.0600000000004
1894,1.894000,1993,3608011,-2604.99,353.27,-4685.94
1895,1.895000,1994,3609011,-20496.99,1921.27,-3774.9399999999996
1896,1.895999,1995,3610010,-29676.99,2941.27,-2416.9399999999996
1897,1.897000,1996,3611011,-31980.99,3688.27,-2725.9399999999996
1898,1.898000,1997,3612011,-26572.99,4080.27,-4805.94
1899,1.899000,1998,3613011,-6802.99,4412.27,-4605.94
1900,1.900000,1999,3614011,16487.01,2718.27,181.0600000000004
1901,1.901000,2000,3615011,33057.01,-2184.73,9309.060000000001
1902,1.901999,2001,3616010,33057.01,-5621.73,15033.060000000001
1903,1.902999,2002,3617010,31203.01,-3768.73,7194.06
1904,1.904000,2003,3618011,13115.01,131.27,-3276.9399999999996
1905,1.905000,2004,3619011,-5675.99,2776.27,-11206.939999999999
1906,1.906000,2005,3620011,-22453.99,3063.27,-15938.939999999999
1907,1.907000,2006,3621011,-26198.99,2490.27,-12417.939999999999
1908,1.908000,2007,3622011,-20086.99,1497.27,-6931.94
1909,1.908999,2008,3623010,-6375.99,2089.27,-11629.939999999999
1910,1.910000,2009,3624011,9911.01,2504.27,-14129.939999999999
1911,1.911000,2010,3625011,15840.01,1603.27,-7595.94
1912,1.912000,2011,3626011,19164.01,712.27,244.0600000000004
1913,1.913000,2012,3627011,8863.01,-2578.73,7995.06
1914,1.914000,2013,3628011,-4396.99,-4392.73,12199.060000000001
1915,1.915000,2014,3629011,-3087.99,-2811.73,11092.060000000001
1916,1.915999,2015,3630010,-5094.99,-1417.73,6342.06
1917,1.917000,2016,3631011,3806.01,-3252.73,11242.060000000001
1918,1.917999,2017,3632010,9921.01,-4239.73,11477.060000000001
1919,1.919000,2018,3633011,5754.01,-3977.73,6523.06
1920,1.920000,2019,3634011,6291.01,-3362.73,5067.06
1921,1.921000,2020,3635011,-4474.99,-89.73,-1430.9399999999996
1922,1.922000,2021,3636011,-19111.99,2959.27,-5036.94
1923,1.923000,2022,3637011,-30801.99,4692.27,-5310.94
1924,1.924000,2023,3638011,-32477.99,4416.27,-6077.94
1925,1.924999,2024,3639010,-24284.99,4433.27,-5475.94
1926,1.926000,2025,3640011,-3871.99,3560.27,-826.9399999999996
1927,1.927000,2026,3641011,19113.01,462.27,3775.0600000000004
1928,1.928000,2027,3642011,33057.01,-2960.73,10156.060000000001
1929,1.929000,2028,3643011,33057.01,-4838.73,12230.060000000001
1930,1.930000,2029,3644011,28128.01,-2846.73,3223.0600000000004
1931,1.930999,2030,3645010,10773.01,1109.27,-5165.94
1932,1.931999,2031,3646010,-8212.99,2643.27,-10341.939999999999
1933,1.933000,2032,3647011,-24122.99,1994.27,-13148.939999999999
1934,1.933999,2033,3648010,-23139.99,2083.27,-10127.939999999999
1935,1.935000,2034,3649011,-19087.99,3042.27,-11300.939999999999
1936,1.936000,2035,3650011,-4512.99,3380.27,-15739.939999999999
1937,1.937000,2036,3651011,12452.01,1377.27,-11977.939999999999
1938,1.938000,2037,3652011,15869.01,689.27,-4440.94
1939,1.939000,2038,3653011,16904.01,-77.73,3610.0600000000004
1940,1.940000,2039,3654011,5462.01,-3667.73,9792.060000000001
1941,1.941000,2040,3655011,-2167.99,-3667.73,11291.060000000001
1942,1.941999,2041,3656010,-2578.99,-1728.73,7873.06
1943,1.943000,2042,3657011,-4244.99,-2133.73,8926.060000000001
1944,1.944000,2043,3658011,4502.01,-3514.73,14317.060000000001
1945,1.945000,2044,3659011,9517.01,-4866.73,11061.060000000001
1946,1.946000,2045,3660011,7409.01,-3530.73,4603.06
1947,1.947000,2046,3661011,5294.01,-1293.73,-237.9399999999996
1948,1.948000,2047,3662011,-8310.99,653.27,-4038.9399999999996
1949,1.948999,2048,3663010,-21476.99,2543.27,-3853.9399999999996
1950,1.950000,2049,3664011,-30344.99,3249.27,-2413.9399999999996
1951,1.951000,2050,3665011,-32477.99,4370.27,-4567.94
1952,1.952000,2051,3666011,-22796.99,4879.27,-5587.94
1953,1.953000,2052,3667011,983.01,3494.27,-2509.9399999999996
1954,1.954000,2053,3668011,21190.01,909.27,2368.0600000000004
1955,1.955000,2054,3669011,33057.01,-3375.73,11700.060000000001
1956,1.956000,2055,3670011,33057.01,-5180.73,13451.060000000001
1957,1.957000,2056,3671011,26607.01,-2439.73,3082.0600000000004
1958,1.958000,2057,3672011,8336.01,768.27,-4914.94
1959,1.959000,2058,3673011,-9806.99,2608.27,-11460.939999999999
1960,1.960000,2059,3674011,-23566.99,2624.27,-14100.939999999999
1961,1.961000,2060,3675011,-24983.99,1457.27,-9834.939999999999
1962,1.962000,2061,3676011,-17994.99,2137.27,-11110.939999999999
1963,1.963000,2062,3677011,-2622.99,3657.27,-14980.939999999999
1964,1.964000,2063,3678011,11058.01,2139.27,-11679.939999999999
1965,1.965000,2064,3679011,16679.01,920.27,-4555.94
1966,1.966000,2065,3680011,16463.01,-619.73,3772.0600000000004
1967,1.967000,2066,3681011,5351.01,-3481.73,9773.060000000001
1968,1.968000,2067,3682011,-2267.99,-3445.73,12691.060000000001
1969,1.969000,2068,3683011,-1855.99,-2003.73,9434.060000000001
1970,1.970000,2069,3684011,-2845.99,-2662.73,9278.060000000001
1971,1.971000,2070,3685011,5356.01,-3575.73,13349.060000000001
1972,1.972000,2071,3686011,10280.01,-3711.73,8257.060000000001
1973,1.973000,2072,3687011,6855.01,-3422.73,4160.06
1974,1.973999,2073,3688010,3536.01,-1617.73,1366.0600000000004
1975,1.974999,2074,3689010,-11144.99,468.27,-3768.9399999999996
1976,1.976000,2075,3690011,-26513.99,2619.27,-4807.94
1977,1.976999,2076,3691010,-32477.99,3751.27,-5190.94
1978,1.977999,2077,3692010,-31471.99,3942.27,-4393.94
1979,1.979000,2078,3693011,-19255.99,3983.27,-2741.9399999999996
1980,1.980000,2079,3694011,4278.01,3488.27,-1155.9399999999996
1981,1.981000,2080,3695011,24234.01,826.27,3425.0600000000004
1982,1.982000,2081,3696011,33057.01,-3472.73,11832.060000000001
1983,1.983000,2082,3697011,33057.01,-4746.73,12623.060000000001
1984,1.984000,2083,3698011,23895.01,-1866.73,1440.0600000000004
1985,1.985000,2084,3699011,5475.01,1594.27,-6914.94
1986,1.986000,2085,3700011,-13857.99,2307.27,-12284.939999999999
1987,1.986999,2086,3701010,-24584.99,1898.27,-12778.939999999999
1988,1.988000,2087,3702011,-23696.99,1830.27,-8557.939999999999
1989,1.989000,2088,3703011,-15183.99,2742.27,-12098.939999999999
1990,1.990000,2089,3704011,-1164.99,3222.27,-16350.939999999999
1991,1.991000,2090,3705011,11433.01,1943.27,-12291.939999999999
1992,1.992000,2091,3706011,18930.01,991.27,-3576.9399999999996
1993,1.993000,2092,3707011,14806.01,-1108.73,5890.06
1994,1.993999,2093,3708010,2371.01,-4341.73,11608.060000000001
1995,1.995000,2094,3709011,43.00999999999999,-3895.73,12365.060000000001
1996,1.996000,2095,3710011,-3515.99,-1630.73,8356.060000000001
1997,1.997000,2096,3711011,-2060.99,-2539.73,9968.060000000001
1998,1.998000,2097,3712011,8173.01,-3368.73,13054.060000000001
1999,1.998999,2098,3713010,8312.01,-3567.73,7350.06
2000,2.000000,2099,3714011,7583.01,-3575.73,4604.06
2001,2.001000,2100,3715011,726.01,-1237.73,614.0600000000004
