row,seconds,esp32_index,micros,ax,ay,az
0,0.000000,2250,3864993,-8961.33,824.68,2366.1899999999996
1,0.001000,2251,3865993,-9296.33,358.68,4310.19
2,0.002000,2252,3866993,-1589.33,-540.32,3388.1899999999996
3,0.003000,2253,3867993,4339.67,-1137.32,3622.1899999999996
4,0.004000,2254,3868993,3910.67,-267.32,3059.1899999999996
5,0.005000,2255,3869993,-2765.33,53.68,675.1899999999996
6,0.006000,2256,3870993,-10508.33,-338.32,1178.1899999999996
7,0.007000,2257,3871993,-20210.33,-962.32,3317.1899999999996
8,0.008000,2258,3872993,-21700.33,-784.32,2534.1899999999996
9,0.009000,2259,3873993,-17032.33,133.68,1644.1899999999996
10,0.010000,2260,3874993,-7042.33,-235.32,3021.1899999999996
11,0.011000,2261,3875993,3563.67,162.68,2270.1899999999996
12,0.012000,2262,3876993,5800.67,-8.32,27.1899999999996
13,0.012999,2263,3877992,5036.67,31.68,-623.8100000000004
14,0.014000,2264,3878993,3606.67,968.68,-2123.8100000000004
15,0.014999,2265,3879992,6252.67,997.68,-3481.8100000000004
16,0.016000,2266,3880993,7755.67,246.68,-3277.8100000000004
17,0.017000,2267,3881993,7020.67,-714.32,-2418.8100000000004
18,0.018000,2268,3882993,1012.67,-206.32,-2709.8100000000004
19,0.019000,2269,3883993,-3827.33,359.68,-3978.8100000000004
20,0.020000,2270,3884993,1985.67,296.68,-4708.81
21,0.020999,2271,3885992,12389.67,64.68,-4871.81
22,0.022000,2272,3886993,19861.67,-274.32,-2076.8100000000004
23,0.023000,2273,3887993,17295.67,-46.32,37.1899999999996
24,0.024000,2274,3888993,2736.67,1004.68,-658.8100000000004
25,0.025000,2275,3889993,-8404.33,989.68,1777.1899999999996
26,0.026000,2276,3890993,-8856.33,-178.32,4401.19
27,0.027000,2277,3891993,-3320.33,98.68,3636.1899999999996
28,0.028000,2278,3892993,3681.67,-872.32,3674.1899999999996
29,0.029000,2279,3893993,4097.67,-1008.32,3046.1899999999996
30,0.030000,2280,3894993,-2285.33,312.68,766.1899999999996
31,0.031000,2281,3895993,-9294.33,-425.32,1255.1899999999996
32,0.032000,2282,3896993,-18372.33,-1239.32,3186.1899999999996
33,0.033000,2283,3897993,-21401.33,-555.32,2671.1899999999996
34,0.034000,2284,3898993,-19019.33,5.68,1226.1899999999996
35,0.035000,2285,3899993,-9553.33,-125.32,2612.1899999999996
36,0.036000,2286,3900993,2961.67,183.68,2715.1899999999996
37,0.037000,2287,3901993,6643.67,-123.32,256.1899999999996
38,0.037999,2288,3902992,5631.67,287.68,-489.8100000000004
39,0.039000,2289,3903993,4017.67,734.68,-1706.8100000000004
40,0.040000,2290,3904993,5915.67,1027.68,-3399.8100000000004
41,0.041000,2291,3905993,7638.67,640.68,-3383.8100000000004
42,0.041999,2292,3906992,7383.67,-682.32,-2313.8100000000004
43,0.043000,2293,3907993,1939.67,-304.32,-2766.8100000000004
44,0.044000,2294,3908993,-3994.33,309.68,-3980.8100000000004
45,0.045003,2295,3909996,720.67,156.68,-4255.81
46,0.046000,2296,3910993,11112.67,199.68,-4995.81
47,0.047000,2297,3911993,19084.67,-277.32,-2727.8100000000004
48,0.048000,2298,3912993,17444.67,-172.32,-42.8100000000004
49,0.049000,2299,3913993,4935.67,701.68,-679.8100000000004
50,0.050000,2300,3914993,-7670.33,1161.68,1217.1899999999996
51,0.051000,2301,3915993,-9318.33,281.68,4538.19
52,0.052000,2302,3916993,-3803.33,-318.32,3542.1899999999996
53,0.052999,2303,3917992,2556.67,-454.32,3214.1899999999996
54,0.054000,2304,3918993,5124.67,-1046.32,4004.1899999999996
55,0.055000,2305,3919993,-804.33,-73.32,1145.1899999999996
56,0.056000,2306,3920993,-7719.33,92.68,692.1899999999996
57,0.057000,2307,3921993,-17414.33,-1092.32,2947.1899999999996
58,0.058000,2308,3922993,-21822.33,-876.32,2830.1899999999996
59,0.058999,2309,3923992,-18960.33,70.68,1508.1899999999996
60,0.060000,2310,3924993,-10670.33,-167.32,2092.1899999999996
61,0.061000,2311,3925993,1126.67,-25.32,2532.1899999999996
62,0.062000,2312,3926993,6145.67,-123.32,575.1899999999996
63,0.063000,2313,3927993,5730.67,27.68,-821.8100000000004
64,0.064000,2314,3928993,3113.67,866.68,-1685.8100000000004
65,0.065000,2315,3929993,5071.67,999.68,-2978.8100000000004
66,0.066000,2316,3930993,8419.67,535.68,-3222.8100000000004
67,0.067000,2317,3931993,7752.67,-422.32,-2341.8100000000004
68,0.068000,2318,3932993,2573.67,-384.32,-2550.8100000000004
69,0.069000,2319,3933993,-4502.33,398.68,-3645.8100000000004
70,0.070000,2320,3934993,309.67,115.68,-3736.8100000000004
71,0.071000,2321,3935993,10034.67,116.68,-5017.81
72,0.072000,2322,3936993,17762.67,183.68,-3601.8100000000004
73,0.073000,2323,3937993,18824.67,-215.32,-91.8100000000004
74,0.074000,2324,3938993,7262.67,423.68,-403.8100000000004
75,0.074999,2325,3939992,-5618.33,1110.68,688.1899999999996
76,0.076000,2326,3940993,-9880.33,377.68,3940.1899999999996
77,0.077000,2327,3941993,-5292.33,-287.32,3865.1899999999996
78,0.078000,2328,3942993,1388.67,-648.32,3175.1899999999996
79,0.079000,2329,3943993,4984.67,-1022.32,3583.1899999999996
80,0.080000,2330,3944993,703.67,-113.32,1385.1899999999996
81,0.081000,2331,3945993,-5385.33,-71.32,519.1899999999996
82,0.082000,2332,3946993,-16338.33,-731.32,2598.1899999999996
83,0.083000,2333,3947993,-22710.33,-859.32,2934.1899999999996
84,0.084000,2334,3948993,-19574.33,-118.32,1698.1899999999996
85,0.085000,2335,3949993,-12434.33,5.68,2384.1899999999996
86,0.086000,2336,3950993,-547.33,-71.32,3241.1899999999996
87,0.087000,2337,3951993,5981.67,-54.32,1023.1899999999996
88,0.088000,2338,3952993,6785.67,-79.32,-448.8100000000004
89,0.089000,2339,3953993,3476.67,765.68,-1331.8100000000004
90,0.089999,2340,3954992,4222.67,1113.68,-2936.8100000000004
91,0.091000,2341,3955993,7784.67,585.68,-3443.8100000000004
92,0.092000,2342,3956993,7945.67,-432.32,-2808.8100000000004
93,0.093000,2343,3957993,3363.67,-443.32,-2431.8100000000004
94,0.094000,2344,3958993,-4312.33,183.68,-3482.8100000000004
95,0.095000,2345,3959993,-579.33,172.68,-4092.8100000000004
96,0.096000,2346,3960993,8931.67,273.68,-5141.81
97,0.097000,2347,3961993,17382.67,78.68,-3677.8100000000004
98,0.098000,2348,3962993,19767.67,-220.32,-213.8100000000004
99,0.099000,2349,3963993,9053.67,432.68,-462.8100000000004
100,0.100000,2350,3964993,-4343.33,1016.68,428.1899999999996
101,0.101000,2351,3965993,-9811.33,561.68,3859.1899999999996
102,0.101999,2352,3966992,-5830.33,-105.32,3995.1899999999996
103,0.103000,2353,3967993,380.67,-601.32,3000.1899999999996
104,0.104000,2354,3968993,5157.67,-929.32,3814.1899999999996
105,0.104999,2355,3969992,1764.67,-411.32,1995.1899999999996
106,0.106000,2356,3970993,-4511.33,-5.32,113.1899999999996
107,0.107000,2357,3971993,-15448.33,-485.32,2266.1899999999996
108,0.108000,2358,3972993,-23943.33,-1124.32,2964.1899999999996
109,0.109000,2359,3973993,-19665.33,-247.32,1678.1899999999996
110,0.110000,2360,3974993,-13333.33,-68.32,2128.1899999999996
111,0.111000,2361,3975993,-2232.33,-36.32,3051.1899999999996
112,0.111999,2362,3976992,5724.67,97.68,1565.1899999999996
113,0.113000,2363,3977993,6943.67,-211.32,-137.8100000000004
114,0.114000,2364,3978993,3884.67,742.68,-1081.8100000000004
115,0.115000,2365,3979993,4247.67,1108.68,-2507.8100000000004
116,0.116000,2366,3980993,7943.67,700.68,-3417.8100000000004
117,0.117000,2367,3981993,8212.67,-217.32,-2954.8100000000004
118,0.118000,2368,3982993,3731.67,-473.32,-2453.8100000000004
119,0.119000,2369,3983993,-3533.33,-113.32,-3430.8100000000004
120,0.120000,2370,3984993,-1803.33,177.68,-4111.81
121,0.120999,2371,3985992,7251.67,397.68,-5201.81
122,0.122000,2372,3986993,16906.67,-145.32,-4128.81
123,0.123000,2373,3987993,19758.67,-125.32,-618.8100000000004
124,0.124000,2374,3988993,11303.67,383.68,-404.8100000000004
125,0.125000,2375,3989993,-2665.33,1013.68,-143.8100000000004
126,0.125999,2376,3990992,-9927.33,723.68,3488.1899999999996
127,0.127000,2377,3991993,-7244.33,-162.32,4374.19
128,0.128000,2378,3992993,-188.32999999999998,-544.32,3114.1899999999996
129,0.129000,2379,3993993,4848.67,-979.32,3800.1899999999996
130,0.130000,2380,3994993,2560.67,-359.32,2399.1899999999996
131,0.131000,2381,3995993,-3699.33,171.68,160.1899999999996
132,0.132000,2382,3996993,-14029.33,-275.32,1863.1899999999996
133,0.133000,2383,3997993,-23068.33,-1158.32,3509.1899999999996
134,0.134000,2384,3998993,-20229.33,-615.32,2123.1899999999996
135,0.135000,2385,3999993,-13948.33,45.68,1623.1899999999996
136,0.136000,2386,4000993,-3995.33,-150.32,3278.1899999999996
137,0.137000,2387,4001993,4714.67,230.68,1776.1899999999996
138,0.138000,2388,4002993,6550.67,40.68,-385.8100000000004
139,0.139000,2389,4003993,4597.67,230.68,-855.8100000000004
140,0.140000,2390,4004993,4102.67,1017.68,-2495.8100000000004
141,0.141000,2391,4005993,7320.67,995.68,-3373.8100000000004
142,0.142000,2392,4006993,7941.67,-144.32,-2984.8100000000004
143,0.143000,2393,4007993,4992.67,-613.32,-2498.8100000000004
144,0.144000,2394,4008993,-1860.33,-84.32,-3226.8100000000004
145,0.145000,2395,4009993,-2804.33,217.68,-3922.8100000000004
146,0.146000,2396,4010993,5273.67,362.68,-5026.81
147,0.147000,2397,4011993,15582.67,-74.32,-4747.81
148,0.148000,2398,4012993,20061.67,-150.32,-1226.8100000000004
149,0.149000,2399,4013993,12907.67,257.68,-56.8100000000004
150,0.150000,2400,4014993,-515.33,774.68,-99.8100000000004
151,0.151000,2401,4015993,-9717.33,1235.68,2792.1899999999996
152,0.152000,2402,4016993,-7795.33,-141.32,4503.19
153,0.153000,2403,4017993,-1170.33,-770.32,3230.1899999999996
154,0.154000,2404,4018993,4446.67,-337.32,3694.1899999999996
155,0.155000,2405,4019993,4302.67,-843.32,3075.1899999999996
156,0.156000,2406,4020993,-4001.33,60.68,189.1899999999996
157,0.157000,2407,4021993,-12319.33,-47.32,1554.1899999999996
158,0.157999,2408,4022992,-21667.33,-1533.32,3440.1899999999996
159,0.159000,2409,4023993,-21838.33,-407.32,2092.1899999999996
160,0.159999,2410,4024992,-14953.33,14.68,1709.1899999999996
161,0.161000,2411,4025993,-4998.33,-374.32,2936.1899999999996
162,0.162000,2412,4026993,3966.67,392.68,1780.1899999999996
163,0.163000,2413,4027993,6265.67,-161.32,74.1899999999996
164,0.164000,2414,4028993,4611.67,265.68,-724.8100000000004
165,0.165000,2415,4029993,3788.67,1174.68,-2189.8100000000004
166,0.165999,2416,4030992,7706.67,752.68,-3303.8100000000004
167,0.167000,2417,4031993,8016.67,266.68,-3320.8100000000004
168,0.168000,2418,4032993,5839.67,-553.32,-2094.8100000000004
169,0.168999,2419,4033992,-325.33,-565.32,-2932.8100000000004
170,0.170000,2420,4034993,-4307.33,716.68,-4499.81
171,0.171000,2421,4035993,3951.67,265.68,-4700.81
172,0.172000,2422,4036993,13828.67,-388.32,-4704.81
173,0.173000,2423,4037993,20390.67,111.68,-1592.8100000000004
174,0.174000,2424,4038993,15576.67,104.68,39.1899999999996
175,0.175000,2425,4039993,517.67,783.68,-620.8100000000004
176,0.176000,2426,4040993,-9501.33,984.68,2571.1899999999996
177,0.177000,2427,4041993,-9024.33,143.68,4507.19
178,0.178000,2428,4042993,-1476.33,-485.32,3287.1899999999996
179,0.178999,2429,4043992,4164.67,-921.32,3578.1899999999996
180,0.180000,2430,4044993,3997.67,-402.32,3016.1899999999996
181,0.181000,2431,4045993,-2848.33,98.68,501.1899999999996
182,0.182000,2432,4046993,-10719.33,-329.32,1364.1899999999996
183,0.183000,2433,4047993,-20546.33,-1023.32,3450.1899999999996
184,0.184000,2434,4048993,-21190.33,-699.32,2581.1899999999996
185,0.185000,2435,4049993,-16800.33,23.68,1652.1899999999996
186,0.186000,2436,4050993,-7132.33,-182.32,2666.1899999999996
187,0.187000,2437,4051993,3849.67,159.68,2251.1899999999996
188,0.188000,2438,4052993,5860.67,-155.32,33.1899999999996
189,0.189000,2439,4053993,5266.67,98.68,-938.8100000000004
190,0.190000,2440,4054993,3207.67,1126.68,-2373.8100000000004
191,0.191000,2441,4055993,6843.67,804.68,-3349.8100000000004
192,0.192000,2442,4056993,7684.67,286.68,-3101.8100000000004
193,0.193000,2443,4057993,6642.67,-633.32,-2457.8100000000004
194,0.194000,2444,4058993,1174.67,-288.32,-2775.8100000000004
195,0.195000,2445,4059993,-4348.33,535.68,-3692.8100000000004
196,0.195999,2446,4060992,2459.67,272.68,-4608.81
197,0.197000,2447,4061993,12767.67,116.68,-5121.81
198,0.198000,2448,4062993,20145.67,-292.32,-1648.8100000000004
199,0.199000,2449,4063993,16662.67,27.68,231.1899999999996
200,0.200000,2450,4064993,2393.67,939.68,-837.8100000000004
201,0.201000,2451,4065993,-8813.33,925.68,1872.1899999999996
202,0.202000,2452,4066993,-9265.33,18.68,4555.19
203,0.203000,2453,4067993,-2876.33,-238.32,3408.1899999999996
204,0.204000,2454,4068993,4023.67,-823.32,3402.1899999999996
205,0.205000,2455,4069993,4301.67,-908.32,3125.1899999999996
206,0.206000,2456,4070993,-2121.33,98.68,553.1899999999996
207,0.207000,2457,4071993,-9644.33,-187.32,970.1899999999996
208,0.208000,2458,4072993,-19253.33,-1221.32,3204.1899999999996
209,0.208999,2459,4073992,-21488.33,-520.32,2609.1899999999996
210,0.210000,2460,4074993,-18549.33,127.68,1515.1899999999996
211,0.211000,2461,4075993,-8206.33,-313.32,3002.1899999999996
212,0.212000,2462,4076993,3593.67,214.68,2689.1899999999996
213,0.213000,2463,4077993,6180.67,68.68,428.1899999999996
214,0.213999,2464,4078992,5460.67,37.68,-364.8100000000004
215,0.214999,2465,4079992,3508.67,796.68,-2049.8100000000004
216,0.215999,2466,4080992,5705.67,1078.68,-3613.8100000000004
217,0.217000,2467,4081993,7525.67,302.68,-3263.8100000000004
218,0.217999,2468,4082992,7037.67,-694.32,-2330.8100000000004
219,0.219000,2469,4083993,1794.67,-286.32,-3036.8100000000004
220,0.220000,2470,4084993,-4505.33,437.68,-4113.81
221,0.221000,2471,4085993,1244.67,68.68,-4123.81
222,0.222000,2472,4086993,11488.67,194.68,-5105.81
223,0.223000,2473,4087993,19863.67,-199.32,-2547.8100000000004
224,0.224000,2474,4088993,17976.67,-263.32,226.1899999999996
225,0.225000,2475,4089993,4665.67,1009.68,-668.8100000000004
226,0.226000,2476,4090993,-7450.33,900.68,1585.1899999999996
227,0.227000,2477,4091993,-10649.33,250.68,4324.19
228,0.228000,2478,4092993,-3541.33,-108.32,3654.1899999999996
229,0.229000,2479,4093993,3368.67,-919.32,3545.1899999999996
230,0.230000,2480,4094993,4248.67,-722.32,3273.1899999999996
231,0.231000,2481,4095993,-1142.33,23.68,1101.1899999999996
232,0.231999,2482,4096992,-7651.33,-229.32,960.1899999999996
233,0.233000,2483,4097993,-17693.33,-982.32,3005.1899999999996
234,0.234000,2484,4098993,-21821.33,-912.32,2903.1899999999996
235,0.235000,2485,4099993,-19832.33,11.68,1228.1899999999996
236,0.236000,2486,4100993,-10972.33,-64.32,2335.1899999999996
237,0.237000,2487,4101993,1847.67,15.68,2687.1899999999996
238,0.238000,2488,4102993,6441.67,137.68,354.1899999999996
239,0.239000,2489,4103993,6713.67,-96.32,-294.8100000000004
240,0.240000,2490,4104993,3499.67,611.68,-1445.8100000000004
241,0.241000,2491,4105993,4858.67,1450.68,-3243.8100000000004
242,0.242000,2492,4106993,8241.67,457.68,-3144.8100000000004
243,0.243000,2493,4107993,7598.67,-641.32,-2421.8100000000004
244,0.244000,2494,4108993,2346.67,-87.32,-2806.8100000000004
245,0.245000,2495,4109993,-4328.33,189.68,-3652.8100000000004
246,0.246000,2496,4110993,402.67,74.68,-4054.8100000000004
247,0.247000,2497,4111993,10469.67,332.68,-5335.81
248,0.248000,2498,4112993,18907.67,-280.32,-3152.8100000000004
249,0.249000,2499,4113993,18641.67,-155.32,-14.8100000000004
250,0.250000,2500,4114993,6300.67,617.68,-721.8100000000004
251,0.251000,2501,4115993,-6847.33,1035.68,895.1899999999996
252,0.252000,2502,4116993,-9728.33,490.68,4385.19
253,0.253000,2503,4117993,-4460.33,-367.32,3755.1899999999996
254,0.254000,2504,4118993,1985.67,-681.32,3144.1899999999996
255,0.255000,2505,4119993,5104.67,-954.32,3719.1899999999996
256,0.256000,2506,4120993,-178.32999999999998,-136.32,1263.1899999999996
257,0.257000,2507,4121993,-7040.33,-29.32,751.1899999999996
258,0.258000,2508,4122993,-17689.33,-924.32,2730.1899999999996
259,0.259000,2509,4123993,-22541.33,-826.32,2657.1899999999996
260,0.260000,2510,4124993,-19578.33,-1.3200000000000003,1782.1899999999996
261,0.261000,2511,4125993,-11319.33,-103.32,2618.1899999999996
262,0.262000,2512,4126993,988.67,27.68,2898.1899999999996
263,0.263000,2513,4127993,6264.67,-4.32,880.1899999999996
264,0.264000,2514,4128993,6295.67,-71.32,-300.8100000000004
265,0.265000,2515,4129993,3356.67,907.68,-1451.8100000000004
266,0.266000,2516,4130993,4670.67,1088.68,-3116.8100000000004
267,0.267000,2517,4131993,8203.67,468.68,-3417.8100000000004
268,0.268000,2518,4132993,8018.67,-420.32,-2643.8100000000004
269,0.269000,2519,4133993,2980.67,-493.32,-2698.8100000000004
270,0.270000,2520,4134993,-4430.33,175.68,-3801.8100000000004
271,0.271000,2521,4135993,-181.32999999999998,88.68,-4194.81
272,0.272000,2522,4136993,9612.67,298.68,-5211.81
273,0.273000,2523,4137993,17827.67,-17.32,-3432.8100000000004
274,0.274000,2524,4138993,19202.67,-175.32,-199.8100000000004
275,0.274999,2525,4139992,7913.67,736.68,-621.8100000000004
276,0.276000,2526,4140993,-4801.33,854.68,902.1899999999996
277,0.276999,2527,4141992,-9804.33,481.68,4215.19
278,0.278000,2528,4142993,-5689.33,105.68,3911.1899999999996
279,0.278999,2529,4143992,1210.67,-867.32,3386.1899999999996
280,0.280000,2530,4144993,4197.67,-916.32,3607.1899999999996
281,0.280999,2531,4145992,929.67,-9.32,1595.1899999999996
282,0.282000,2532,4146993,-4472.33,-112.32,475.1899999999996
283,0.283000,2533,4147993,-16549.33,-624.32,2395.1899999999996
284,0.284000,2534,4148993,-22739.33,-1167.32,3175.1899999999996
285,0.285000,2535,4149993,-19697.33,-187.32,1502.1899999999996
286,0.286000,2536,4150993,-13360.33,123.68,2002.1899999999996
287,0.287000,2537,4151993,-1242.33,-103.32,3005.1899999999996
288,0.287999,2538,4152992,5914.67,9.68,1153.1899999999996
289,0.289000,2539,4153993,7557.67,-227.32,-286.8100000000004
290,0.290000,2540,4154993,3800.67,728.68,-1351.8100000000004
291,0.291000,2541,4155993,4306.67,1156.68,-2586.8100000000004
292,0.292000,2542,4156993,7472.67,717.68,-3317.8100000000004
293,0.293000,2543,4157993,7889.67,-317.32,-2938.8100000000004
294,0.294000,2544,4158993,3828.67,-550.32,-2408.8100000000004
295,0.294999,2545,4159992,-4081.33,275.68,-3350.8100000000004
296,0.295999,2546,4160992,-230.32999999999998,-23.32,-3943.8100000000004
297,0.297000,2547,4161993,8318.67,238.68,-5474.81
298,0.298000,2548,4162993,16468.67,79.68,-3991.8100000000004
299,0.299000,2549,4163993,19851.67,-418.32,-96.8100000000004
300,0.300000,2550,4164993,9398.67,523.68,-667.8100000000004
301,0.301000,2551,4165993,-4207.33,1086.68,10.1899999999996
302,0.302000,2552,4166993,-9340.33,593.68,3952.1899999999996
303,0.302999,2553,4167992,-6308.33,-190.32,4247.19
304,0.304000,2554,4168993,308.67,-329.32,2947.1899999999996
305,0.305000,2555,4169993,5608.67,-1063.32,3994.1899999999996
306,0.306000,2556,4170993,2135.67,-436.32,2423.1899999999996
307,0.307000,2557,4171993,-4601.33,281.68,203.1899999999996
308,0.308000,2558,4172993,-15567.33,-624.32,2071.1899999999996
309,0.309000,2559,4173993,-23619.33,-1006.32,3115.1899999999996
310,0.310000,2560,4174993,-19831.33,-354.32,2067.1899999999996
311,0.311000,2561,4175993,-13010.33,-49.32,1942.1899999999996
312,0.311999,2562,4176992,-2519.33,-105.32,2846.1899999999996
313,0.313000,2563,4177993,5146.67,-53.32,1482.1899999999996
314,0.314000,2564,4178993,6273.67,-90.32,-282.8100000000004
315,0.315000,2565,4179993,3732.67,682.68,-1056.8100000000004
316,0.316000,2566,4180993,4380.67,1009.68,-2659.8100000000004
317,0.317000,2567,4181993,7577.67,759.68,-3380.8100000000004
318,0.318000,2568,4182993,8309.67,-138.32,-2807.8100000000004
319,0.318999,2569,4183992,4773.67,-591.32,-2372.8100000000004
320,0.320000,2570,4184993,-2647.33,65.68,-3360.8100000000004
321,0.321000,2571,4185993,-2136.33,303.68,-3993.8100000000004
322,0.322000,2572,4186993,6659.67,260.68,-5058.81
323,0.323000,2573,4187993,16141.67,-69.32,-4356.81
324,0.324000,2574,4188993,19839.67,-136.32,-736.8100000000004
325,0.325000,2575,4189993,11865.67,304.68,-342.8100000000004
326,0.326000,2576,4190993,-2426.33,1012.68,-221.8100000000004
327,0.327000,2577,4191993,-9552.33,590.68,3314.1899999999996
328,0.327999,2578,4192992,-8094.33,8.68,4067.1899999999996
329,0.329000,2579,4193993,-692.33,-363.32,3062.1899999999996
330,0.330000,2580,4194993,5488.67,-1281.32,4013.1899999999996
331,0.331000,2581,4195993,3060.67,-140.32,2325.1899999999996
332,0.331999,2582,4196992,-3790.33,282.68,225.1899999999996
333,0.333000,2583,4197993,-13112.33,-803.32,2248.1899999999996
334,0.334000,2584,4198993,-23092.33,-790.32,3342.1899999999996
335,0.334999,2585,4199992,-21113.33,-430.32,2182.1899999999996
336,0.336000,2586,4200993,-13948.33,-223.32,1890.1899999999996
337,0.337000,2587,4201993,-4291.33,29.68,3005.1899999999996
338,0.338000,2588,4202993,5170.67,-84.32,1983.1899999999996
339,0.338999,2589,4203992,6244.67,-102.32,-302.8100000000004
340,0.339999,2590,4204992,4396.67,548.68,-1203.8100000000004
341,0.341000,2591,4205993,4260.67,844.68,-2566.8100000000004
342,0.341999,2592,4206992,6542.67,958.68,-3551.8100000000004
343,0.343000,2593,4207993,7952.67,-78.32,-3108.8100000000004
344,0.344000,2594,4208993,5664.67,-684.32,-2317.8100000000004
345,0.345000,2595,4209993,-1555.33,16.68,-2899.8100000000004
346,0.346000,2596,4210993,-2634.33,173.68,-3830.8100000000004
347,0.347000,2597,4211993,4897.67,489.68,-5154.81
348,0.348000,2598,4212993,15293.67,43.68,-4395.81
349,0.349000,2599,4213993,20405.67,-371.32,-760.8100000000004
350,0.350000,2600,4214993,13033.67,453.68,-461.8100000000004
351,0.351000,2601,4215993,-618.33,862.68,-502.8100000000004
352,0.352000,2602,4216993,-9657.33,616.68,3204.1899999999996
353,0.353000,2603,4217993,-8474.33,306.68,4319.19
354,0.354000,2604,4218993,-657.33,-603.32,3013.1899999999996
355,0.355000,2605,4219993,4617.67,-1100.32,3640.1899999999996
356,0.356000,2606,4220993,3283.67,-227.32,2682.1899999999996
357,0.357000,2607,4221993,-3266.33,73.68,209.1899999999996
358,0.358000,2608,4222993,-11707.33,-463.32,1604.1899999999996
359,0.359000,2609,4223993,-22274.33,-900.32,3446.1899999999996
360,0.360000,2610,4224993,-21210.33,-607.32,2320.1899999999996
361,0.360999,2611,4225992,-14702.33,-103.32,1770.1899999999996
362,0.362000,2612,4226993,-5638.33,-120.32,3125.1899999999996
363,0.363000,2613,4227993,4496.67,157.68,2230.1899999999996
364,0.364000,2614,4228993,6322.67,-63.32,-47.8100000000004
365,0.365000,2615,4229993,4379.67,291.68,-902.8100000000004
366,0.366000,2616,4230993,3613.67,1026.68,-2379.8100000000004
367,0.367000,2617,4231993,6724.67,879.68,-3412.8100000000004
368,0.368000,2618,4232993,7734.67,102.68,-3211.8100000000004
369,0.369000,2619,4233993,6054.67,-603.32,-2415.8100000000004
370,0.370000,2620,4234993,-210.32999999999998,-272.32,-2933.8100000000004
371,0.371000,2621,4235993,-3481.33,320.68,-4016.8100000000004
372,0.372000,2622,4236993,3327.67,486.68,-4951.81
373,0.372999,2623,4237992,14150.67,-35.32,-4749.81
374,0.374000,2624,4238993,20408.67,-253.32,-1385.8100000000004
375,0.375000,2625,4239993,15469.67,200.68,-122.8100000000004
376,0.376000,2626,4240993,982.67,928.68,-518.8100000000004
377,0.377000,2627,4241993,-9281.33,893.68,2671.1899999999996
378,0.378000,2628,4242993,-8872.33,36.68,4587.19
379,0.379000,2629,4243993,-2416.33,-320.32,3123.1899999999996
380,0.380000,2630,4244993,4352.67,-977.32,3607.1899999999996
381,0.381000,2631,4245993,3908.67,-675.32,3059.1899999999996
382,0.382000,2632,4246993,-2781.33,213.68,290.1899999999996
383,0.383000,2633,4247993,-10011.33,-296.32,1187.1899999999996
384,0.384000,2634,4248993,-20212.33,-1237.32,3350.1899999999996
385,0.385000,2635,4249993,-21816.33,-522.32,2474.1899999999996
386,0.386000,2636,4250993,-17415.33,59.68,1497.1899999999996
387,0.387000,2637,4251993,-7334.33,-225.32,2928.1899999999996
388,0.388000,2638,4252993,3954.67,282.68,2461.1899999999996
389,0.389000,2639,4253993,6336.67,-40.32,256.1899999999996
390,0.390000,2640,4254993,5586.67,89.68,-524.8100000000004
391,0.391000,2641,4255993,3669.67,955.68,-1999.8100000000004
392,0.392000,2642,4256993,6124.67,968.68,-3468.8100000000004
393,0.393000,2643,4257993,7800.67,351.68,-3309.8100000000004
394,0.394000,2644,4258993,6570.67,-678.32,-2392.8100000000004
395,0.395000,2645,4259993,785.67,-304.32,-2938.8100000000004
396,0.396000,2646,4260993,-4055.33,303.68,-3843.8100000000004
397,0.397000,2647,4261993,1701.67,274.68,-4794.81
398,0.398000,2648,4262993,12537.67,292.68,-5095.81
399,0.399000,2649,4263993,20808.67,-713.32,-1550.8100000000004
400,0.399999,2650,4264992,16464.67,109.68,-269.8100000000004
401,0.401000,2651,4265993,2687.67,1381.68,-936.8100000000004
402,0.402000,2652,4266993,-8157.33,524.68,2390.1899999999996
403,0.403000,2653,4267993,-9762.33,406.68,4269.19
404,0.404000,2654,4268993,-2479.33,11.68,3361.1899999999996
405,0.405000,2655,4269993,4229.67,-1338.32,3876.1899999999996
406,0.406000,2656,4270993,4501.67,-480.32,3360.1899999999996
407,0.407000,2657,4271993,-2308.33,130.68,954.1899999999996
408,0.408000,2658,4272993,-9577.33,-415.32,913.1899999999996
409,0.409000,2659,4273993,-19362.33,-964.32,2881.1899999999996
410,0.410000,2660,4274993,-21436.33,-915.32,2848.1899999999996
411,0.411000,2661,4275993,-18535.33,98.68,1415.1899999999996
412,0.412000,2662,4276993,-9007.33,-185.32,2317.1899999999996
413,0.413000,2663,4277993,3298.67,-40.32,2487.1899999999996
414,0.414000,2664,4278993,5483.67,243.68,350.1899999999996
415,0.415000,2665,4279993,5852.67,-2.3200000000000003,-366.8100000000004
416,0.416000,2666,4280993,3343.67,852.68,-1903.8100000000004
417,0.417000,2667,4281993,6112.67,1174.68,-3236.8100000000004
418,0.418000,2668,4282993,8419.67,254.68,-2905.8100000000004
419,0.419000,2669,4283993,7472.67,-473.32,-2376.8100000000004
420,0.420000,2670,4284993,1756.67,-208.32,-2847.8100000000004
421,0.421000,2671,4285993,-4931.33,386.68,-3945.8100000000004
422,0.422000,2672,4286993,1203.67,253.68,-4285.81
423,0.423000,2673,4287993,11560.67,5.68,-5132.81
424,0.423999,2674,4288992,19538.67,-142.32,-2757.8100000000004
425,0.425000,2675,4289993,18106.67,-68.32,93.1899999999996
426,0.425999,2676,4290992,4887.67,492.68,-716.8100000000004
427,0.427000,2677,4291993,-8252.33,1210.68,1103.1899999999996
428,0.427999,2678,4292992,-9629.33,177.68,4460.19
429,0.428999,2679,4293992,-3786.33,-430.32,3664.1899999999996
430,0.429999,2680,4294992,2643.67,-491.32,3238.1899999999996
431,0.431000,2681,4295993,4959.67,-1096.32,3560.1899999999996
432,0.432000,2682,4296993,-1113.33,121.68,1070.1899999999996
433,0.433000,2683,4297993,-8268.33,7.68,997.1899999999996
434,0.434000,2684,4298993,-17299.33,-1321.32,3106.1899999999996
435,0.434999,2685,4299992,-21773.33,-533.32,2705.1899999999996
436,0.436000,2686,4300993,-19917.33,69.68,1759.1899999999996
437,0.437000,2687,4301993,-10200.33,-200.32,2654.1899999999996
438,0.438000,2688,4302993,1734.67,255.68,2590.1899999999996
439,0.439000,2689,4303993,6337.67,-205.32,540.1899999999996
440,0.439999,2690,4304992,6377.67,-38.32,-505.8100000000004
441,0.440999,2691,4305992,3354.67,896.68,-1761.8100000000004
442,0.442000,2692,4306993,5110.67,930.68,-3313.8100000000004
443,0.443000,2693,4307993,7607.67,500.68,-3409.8100000000004
444,0.444000,2694,4308993,7366.67,-535.32,-2569.8100000000004
445,0.445000,2695,4309993,2770.67,-407.32,-2671.8100000000004
446,0.446000,2696,4310993,-4322.33,397.68,-3786.8100000000004
447,0.447000,2697,4311993,946.67,101.68,-4039.8100000000004
448,0.448000,2698,4312993,10396.67,298.68,-5033.81
449,0.449000,2699,4313993,18541.67,-55.32,-3016.8100000000004
450,0.450000,2700,4314993,18815.67,-248.32,62.1899999999996
451,0.451000,2701,4315993,5747.67,773.68,-688.8100000000004
452,0.452000,2702,4316993,-6344.33,1007.68,1109.1899999999996
453,0.453000,2703,4317993,-9438.33,290.68,4414.19
454,0.454000,2704,4318993,-4715.33,-137.32,3691.1899999999996
455,0.454999,2705,4319992,2166.67,-748.32,3167.1899999999996
456,0.456000,2706,4320993,4683.67,-1011.32,3606.1899999999996
457,0.457000,2707,4321993,-165.32999999999998,-46.32,1301.1899999999996
458,0.458000,2708,4322993,-6361.33,-162.32,591.1899999999996
459,0.459000,2709,4323993,-17321.33,-927.32,2624.1899999999996
460,0.460000,2710,4324993,-22750.33,-792.32,2756.1899999999996
461,0.461000,2711,4325993,-19708.33,46.68,1569.1899999999996
462,0.462000,2712,4326993,-11940.33,-37.32,2389.1899999999996
463,0.463000,2713,4327993,807.67,25.68,3076.1899999999996
464,0.464000,2714,4328993,6578.67,-21.32,1092.1899999999996
465,0.465000,2715,4329993,6730.67,-76.32,-216.8100000000004
466,0.466000,2716,4330993,3689.67,833.68,-1347.8100000000004
467,0.467000,2717,4331993,4221.67,1140.68,-3170.8100000000004
468,0.468000,2718,4332993,8152.67,510.68,-3444.8100000000004
469,0.469000,2719,4333993,7714.67,-454.32,-2615.8100000000004
470,0.470000,2720,4334993,2682.67,-473.32,-2735.8100000000004
471,0.471000,2721,4335993,-4372.33,198.68,-3769.8100000000004
472,0.472000,2722,4336993,-67.33,18.68,-4086.8100000000004
473,0.473000,2723,4337993,9704.67,239.68,-5400.81
474,0.474000,2724,4338993,17680.67,95.68,-3617.8100000000004
475,0.475000,2725,4339993,19240.67,-274.32,-146.8100000000004
476,0.475999,2726,4340992,8013.67,690.68,-746.8100000000004
477,0.477000,2727,4341993,-4970.33,978.68,777.1899999999996
478,0.478000,2728,4342993,-9754.33,390.68,4369.19
479,0.478999,2729,4343992,-5349.33,15.68,3939.1899999999996
480,0.480000,2730,4344993,1233.67,-701.32,3277.1899999999996
481,0.481000,2731,4345993,4560.67,-962.32,3778.1899999999996
482,0.482000,2732,4346993,924.67,-75.32,1588.1899999999996
483,0.483000,2733,4347993,-4913.33,-67.32,498.1899999999996
484,0.484000,2734,4348993,-16211.33,-670.32,2428.1899999999996
485,0.485000,2735,4349993,-23301.33,-1081.32,3001.1899999999996
486,0.486000,2736,4350993,-19589.33,-309.32,1650.1899999999996
487,0.487000,2737,4351993,-13132.33,18.68,1973.1899999999996
488,0.487999,2738,4352992,-1730.33,48.68,2905.1899999999996
489,0.489000,2739,4353993,6090.67,-54.32,1190.1899999999996
490,0.490000,2740,4354993,7111.67,-161.32,-322.8100000000004
491,0.491000,2741,4355993,4169.67,772.68,-1207.8100000000004
492,0.491999,2742,4356992,4493.67,1104.68,-2646.8100000000004
493,0.493000,2743,4357993,7777.67,660.68,-3259.8100000000004
494,0.494000,2744,4358993,7822.67,-258.32,-2754.8100000000004
495,0.495000,2745,4359993,3624.67,-417.32,-2495.8100000000004
496,0.496000,2746,4360993,-3971.33,12.68,-3493.8100000000004
497,0.497000,2747,4361993,-671.33,125.68,-4046.8100000000004
498,0.498000,2748,4362993,8627.67,396.68,-5372.81
499,0.499000,2749,4363993,16912.67,-89.32,-4022.8100000000004
500,0.499999,2750,4364992,19609.67,-251.32,-416.8100000000004
501,0.501000,2751,4365993,9252.67,501.68,-636.8100000000004
502,0.501999,2752,4366992,-3939.33,919.68,262.1899999999996
503,0.503000,2753,4367993,-9570.33,656.68,3945.1899999999996
504,0.504000,2754,4368993,-6205.33,-29.32,4059.1899999999996
505,0.505000,2755,4369993,532.67,-648.32,3086.1899999999996
506,0.505999,2756,4370992,5351.67,-1027.32,4082.1899999999996
507,0.507000,2757,4371993,2034.67,-250.32,2033.1899999999996
508,0.508000,2758,4372993,-4589.33,143.68,172.1899999999996
509,0.509000,2759,4373993,-15546.33,-607.32,2268.1899999999996
510,0.509999,2760,4374992,-23742.33,-1103.32,2974.1899999999996
511,0.511000,2761,4375993,-19820.33,-317.32,1894.1899999999996
512,0.512000,2762,4376993,-13084.33,-151.32,2105.1899999999996
513,0.513000,2763,4377993,-2475.33,-56.32,2953.1899999999996
514,0.514000,2764,4378993,5085.67,74.68,1426.1899999999996
515,0.515000,2765,4379993,6534.67,-191.32,-295.8100000000004
516,0.516000,2766,4380993,4143.67,698.68,-990.8100000000004
517,0.517000,2767,4381993,4278.67,1068.68,-2547.8100000000004
518,0.518000,2768,4382993,7780.67,675.68,-3386.8100000000004
519,0.519000,2769,4383993,7799.67,-127.32,-2810.8100000000004
520,0.520000,2770,4384993,4575.67,-554.32,-2344.8100000000004
521,0.521000,2771,4385993,-2848.33,-49.32,-3297.8100000000004
522,0.522000,2772,4386993,-1972.33,225.68,-4100.81
523,0.523000,2773,4387993,6964.67,313.68,-5309.81
524,0.523999,2774,4388992,16119.67,-52.32,-4280.81
525,0.525000,2775,4389993,19820.67,-215.32,-790.8100000000004
526,0.526000,2776,4390993,11391.67,439.68,-481.8100000000004
527,0.527000,2777,4391993,-2191.33,901.68,73.1899999999996
528,0.527999,2778,4392992,-9893.33,719.68,3378.1899999999996
529,0.529000,2779,4393993,-7395.33,79.68,4076.1899999999996
530,0.530000,2780,4394993,-241.32999999999998,-623.32,3256.1899999999996
531,0.531000,2781,4395993,4884.67,-855.32,3885.1899999999996
532,0.532000,2782,4396993,3085.67,-312.32,2375.1899999999996
533,0.532999,2783,4397992,-3641.33,56.68,275.1899999999996
534,0.533999,2784,4398992,-13486.33,-403.32,1924.1899999999996
535,0.535000,2785,4399993,-22975.33,-1078.32,3360.1899999999996
536,0.536000,2786,4400993,-20771.33,-564.32,2088.1899999999996
537,0.537000,2787,4401993,-14309.33,-45.32,1694.1899999999996
538,0.538000,2788,4402993,-4347.33,-23.32,3023.1899999999996
539,0.539000,2789,4403993,4598.67,88.68,1694.1899999999996
540,0.540000,2790,4404993,6549.67,-67.32,-326.8100000000004
541,0.541000,2791,4405993,4612.67,380.68,-899.8100000000004
542,0.542000,2792,4406993,4181.67,1028.68,-2371.8100000000004
543,0.543000,2793,4407993,7481.67,836.68,-3268.8100000000004
544,0.544000,2794,4408993,7577.67,-19.32,-2936.8100000000004
545,0.544999,2795,4409992,4974.67,-513.32,-2283.8100000000004
546,0.546000,2796,4410993,-1734.33,-230.32,-3093.8100000000004
547,0.547000,2797,4411993,-2582.33,352.68,-4064.8100000000004
548,0.548000,2798,4412993,5514.67,334.68,-5054.81
549,0.549000,2799,4413993,15396.67,-188.32,-4566.81
550,0.550000,2800,4414993,19936.67,-58.32,-1160.8100000000004
551,0.551000,2801,4415993,12931.67,224.68,-436.8100000000004
552,0.552000,2802,4416993,-1024.33,862.68,-361.8100000000004
553,0.553000,2803,4417993,-9498.33,933.68,3099.1899999999996
554,0.554000,2804,4418993,-7527.33,-63.32,4344.19
555,0.555000,2805,4419993,-1371.33,-289.32,2994.1899999999996
556,0.556000,2806,4420993,5189.67,-1020.32,3933.1899999999996
557,0.557000,2807,4421993,3681.67,-475.32,2832.1899999999996
558,0.558000,2808,4422993,-4211.33,394.68,183.1899999999996
559,0.558999,2809,4423992,-11407.33,-688.32,1798.1899999999996
560,0.560000,2810,4424993,-21775.33,-1050.32,3334.1899999999996
561,0.561000,2811,4425993,-21457.33,-424.32,2441.1899999999996
562,0.562000,2812,4426993,-15071.33,-188.32,1704.1899999999996
563,0.563000,2813,4427993,-5622.33,-108.32,2673.1899999999996
564,0.564000,2814,4428993,3789.67,43.68,2077.1899999999996
565,0.565000,2815,4429993,5872.67,-162.32,-56.8100000000004
566,0.566000,2816,4430993,4453.67,489.68,-923.8100000000004
567,0.567000,2817,4431993,3804.67,947.68,-2236.8100000000004
568,0.568000,2818,4432993,7227.67,806.68,-3422.8100000000004
569,0.569000,2819,4433993,7920.67,305.68,-3122.8100000000004
570,0.570000,2820,4434993,6764.67,-653.32,-2028.8100000000004
571,0.571000,2821,4435993,-56.33,-325.32,-2777.8100000000004
572,0.572000,2822,4436993,-4122.33,567.68,-4039.8100000000004
573,0.573000,2823,4437993,3533.67,135.68,-4971.81
574,0.574000,2824,4438993,13614.67,-56.32,-4919.81
575,0.575000,2825,4439993,20360.67,-119.32,-1307.8100000000004
576,0.576000,2826,4440993,15875.67,-116.32,-230.8100000000004
577,0.577000,2827,4441993,557.67,1136.68,-1069.8100000000004
578,0.578000,2828,4442993,-9386.33,841.68,2613.1899999999996
579,0.579000,2829,4443993,-9239.33,45.68,4578.19
580,0.579999,2830,4444992,-2352.33,0.6799999999999997,3126.1899999999996
581,0.581000,2831,4445993,5143.67,-1204.32,3810.1899999999996
582,0.582000,2832,4446993,4405.67,-561.32,3139.1899999999996
583,0.583000,2833,4447993,-2975.33,444.68,590.1899999999996
584,0.584000,2834,4448993,-9840.33,-579.32,1598.1899999999996
585,0.585000,2835,4449993,-20501.33,-985.32,3372.1899999999996
586,0.586000,2836,4450993,-21971.33,-520.32,2504.1899999999996
587,0.587000,2837,4451993,-16792.33,-248.32,1536.1899999999996
588,0.588000,2838,4452993,-7663.33,-96.32,2608.1899999999996
589,0.589000,2839,4453993,3711.67,177.68,2328.1899999999996
590,0.589999,2840,4454992,6123.67,-30.32,132.1899999999996
591,0.591000,2841,4455993,5263.67,-0.3200000000000003,-817.8100000000004
592,0.592000,2842,4456993,3179.67,955.68,-2328.8100000000004
593,0.593000,2843,4457993,6170.67,1166.68,-3268.8100000000004
594,0.594000,2844,4458993,8174.67,11.68,-3113.8100000000004
595,0.595000,2845,4459993,6715.67,-512.32,-2700.8100000000004
596,0.596000,2846,4460993,1124.67,-234.32,-2615.8100000000004
597,0.597000,2847,4461993,-4054.33,209.68,-3562.8100000000004
598,0.598000,2848,4462993,2217.67,642.68,-4666.81
599,0.598999,2849,4463992,12888.67,69.68,-5062.81
600,0.600000,2850,4464993,20294.67,-445.32,-1969.8100000000004
601,0.601000,2851,4465993,16567.67,160.68,87.1899999999996
602,0.602000,2852,4466993,2707.67,763.68,-596.8100000000004
603,0.603000,2853,4467993,-8978.33,1076.68,1798.1899999999996
604,0.604000,2854,4468993,-9483.33,113.68,4537.19
605,0.605000,2855,4469993,-2657.33,-586.32,3277.1899999999996
606,0.606000,2856,4470993,3694.67,-663.32,3189.1899999999996
607,0.607000,2857,4471993,4675.67,-795.32,3466.1899999999996
608,0.608000,2858,4472993,-1944.33,-13.32,647.1899999999996
609,0.609000,2859,4473993,-9652.33,52.68,780.1899999999996
610,0.610000,2860,4474993,-18848.33,-1464.32,3383.1899999999996
611,0.611000,2861,4475993,-21677.33,-708.32,2862.1899999999996
612,0.612000,2862,4476993,-18601.33,445.68,1587.1899999999996
613,0.613000,2863,4477993,-8243.33,-415.32,2889.1899999999996
614,0.614000,2864,4478993,3080.67,216.68,2489.1899999999996
615,0.615000,2865,4479993,6192.67,16.68,418.1899999999996
616,0.616000,2866,4480993,5292.67,-106.32,-408.8100000000004
617,0.617000,2867,4481993,3068.67,1017.68,-1929.8100000000004
618,0.617999,2868,4482992,5657.67,924.68,-3515.8100000000004
619,0.619000,2869,4483993,7921.67,256.68,-3533.8100000000004
620,0.620000,2870,4484993,7163.67,-682.32,-2322.8100000000004
621,0.621000,2871,4485993,1805.67,-353.32,-2790.8100000000004
622,0.622000,2872,4486993,-4027.33,616.68,-4110.81
623,0.623000,2873,4487993,1345.67,44.68,-4333.81
624,0.624000,2874,4488993,11401.67,49.68,-5017.81
625,0.625000,2875,4489993,19690.67,11.68,-2475.8100000000004
626,0.626000,2876,4490993,18096.67,-142.32,20.1899999999996
627,0.627000,2877,4491993,4346.67,828.68,-609.8100000000004
628,0.628000,2878,4492993,-7815.33,974.68,1649.1899999999996
629,0.628999,2879,4493992,-9263.33,65.68,4481.19
630,0.630000,2880,4494993,-4111.33,-42.32,3548.1899999999996
631,0.630999,2881,4495992,2552.67,-755.32,3492.1899999999996
632,0.632000,2882,4496993,4755.67,-919.32,3429.1899999999996
633,0.633000,2883,4497993,-1142.33,161.68,812.1899999999996
634,0.634000,2884,4498993,-7286.33,-407.32,998.1899999999996
635,0.635000,2885,4499993,-17427.33,-1114.32,3035.1899999999996
636,0.636000,2886,4500993,-22189.33,-595.32,2628.1899999999996
637,0.637000,2887,4501993,-20226.33,32.68,1331.1899999999996
638,0.638000,2888,4502993,-11195.33,-26.32,2432.1899999999996
639,0.639000,2889,4503993,2413.67,10.68,2866.1899999999996
640,0.640000,2890,4504993,6827.67,-66.32,748.1899999999996
641,0.641000,2891,4505993,6502.67,97.68,-344.8100000000004
642,0.642000,2892,4506993,3534.67,699.68,-1708.8100000000004
643,0.643000,2893,4507993,4823.67,1099.68,-3222.8100000000004
644,0.644000,2894,4508993,7832.67,518.68,-3170.8100000000004
645,0.645000,2895,4509993,7166.67,-664.32,-2568.8100000000004
646,0.645999,2896,4510992,2148.67,-219.32,-2862.8100000000004
647,0.647000,2897,4511993,-4272.33,399.68,-3746.8100000000004
648,0.648000,2898,4512993,1357.67,-68.32,-4101.81
649,0.649000,2899,4513993,10560.67,272.68,-5258.81
650,0.650000,2900,4514993,18885.67,17.68,-2879.8100000000004
651,0.651000,2901,4515993,18443.67,-296.32,-24.8100000000004
652,0.652000,2902,4516993,5763.67,633.68,-793.8100000000004
653,0.653000,2903,4517993,-6569.33,1018.68,1127.1899999999996
654,0.654000,2904,4518993,-9705.33,335.68,4340.19
655,0.655000,2905,4519993,-4409.33,-129.32,3687.1899999999996
656,0.656000,2906,4520993,2110.67,-731.32,3139.1899999999996
657,0.656999,2907,4521992,5152.67,-890.32,3581.1899999999996
658,0.658000,2908,4522993,-489.33,-14.32,1120.1899999999996
659,0.659000,2909,4523993,-6456.33,-213.32,893.1899999999996
660,0.660000,2910,4524993,-17213.33,-787.32,2971.1899999999996
661,0.661000,2911,4525993,-22876.33,-892.32,2754.1899999999996
662,0.662000,2912,4526993,-19252.33,-95.32,1666.1899999999996
663,0.663000,2913,4527993,-11702.33,89.68,2354.1899999999996
664,0.664000,2914,4528993,806.67,-104.32,2983.1899999999996
665,0.664999,2915,4529992,6246.67,-77.32,952.1899999999996
666,0.666000,2916,4530993,6388.67,-3.3200000000000003,-411.8100000000004
667,0.667000,2917,4531993,3191.67,719.68,-1430.8100000000004
668,0.668000,2918,4532993,4568.67,1120.68,-2949.8100000000004
669,0.668999,2919,4533992,8156.67,632.68,-3528.8100000000004
670,0.670000,2920,4534993,7752.67,-522.32,-2774.8100000000004
671,0.671000,2921,4535993,2896.67,-346.32,-2565.8100000000004
672,0.671999,2922,4536992,-4068.33,166.68,-3714.8100000000004
673,0.673000,2923,4537993,484.67,-35.32,-4017.8100000000004
674,0.674000,2924,4538993,9285.67,302.68,-5082.81
675,0.675000,2925,4539993,17633.67,24.68,-3517.8100000000004
676,0.676000,2926,4540993,18775.67,-116.32,-310.8100000000004
677,0.677000,2927,4541993,7813.67,581.68,-391.8100000000004
678,0.678000,2928,4542993,-4033.33,834.68,902.1899999999996
679,0.678999,2929,4543992,-10038.33,649.68,3884.1899999999996
680,0.680000,2930,4544993,-5938.33,-65.32,3973.1899999999996
681,0.681000,2931,4545993,609.67,-769.32,3226.1899999999996
682,0.682000,2932,4546993,4463.67,-750.32,3430.1899999999996
683,0.683000,2933,4547993,1969.67,-446.32,1756.1899999999996
684,0.684000,2934,4548993,-4727.33,-117.32,533.1899999999996
685,0.685000,2935,4549993,-16045.33,-436.32,2401.1899999999996
686,0.686000,2936,4550993,-23479.33,-1037.32,2861.1899999999996
687,0.687000,2937,4551993,-19643.33,-216.32,1664.1899999999996
688,0.688000,2938,4552993,-12794.33,52.68,2393.1899999999996
689,0.689000,2939,4553993,-1352.33,-45.32,3064.1899999999996
690,0.690000,2940,4554993,6127.67,-51.32,1344.1899999999996
691,0.690999,2941,4555992,7047.67,-70.32,-244.8100000000004
692,0.692000,2942,4556993,4002.67,713.68,-1293.8100000000004
693,0.693000,2943,4557993,4040.67,1017.68,-2699.8100000000004
694,0.693999,2944,4558992,7481.67,670.68,-3480.8100000000004
695,0.695000,2945,4559993,7260.67,-235.32,-3001.8100000000004
696,0.696000,2946,4560993,3959.67,-596.32,-2354.8100000000004
697,0.697000,2947,4561993,-3346.33,-16.32,-3367.8100000000004
698,0.698000,2948,4562993,-1070.33,228.68,-4122.81
699,0.699000,2949,4563993,8339.67,275.68,-5094.81
700,0.700000,2950,4564993,16256.67,-25.32,-4082.8100000000004
701,0.701000,2951,4565993,19253.67,-157.32,-575.8100000000004
702,0.702000,2952,4566993,9972.67,475.68,-456.8100000000004
703,0.703000,2953,4567993,-3049.33,903.68,197.1899999999996
704,0.703999,2954,4568992,-9410.33,637.68,3782.1899999999996
705,0.705000,2955,4569993,-6534.33,-35.32,4182.19
706,0.706000,2956,4570993,181.67000000000002,-578.32,3029.1899999999996
707,0.707000,2957,4571993,4934.67,-953.32,3696.1899999999996
708,0.708000,2958,4572993,2091.67,-364.32,2321.1899999999996
709,0.709000,2959,4573993,-3693.33,88.68,202.1899999999996
710,0.710000,2960,4574993,-14257.33,-492.32,1885.1899999999996
711,0.711000,2961,4575993,-23176.33,-1117.32,3340.1899999999996
712,0.712000,2962,4576993,-19791.33,-364.32,1937.1899999999996
713,0.712999,2963,4577992,-13831.33,-63.32,1805.1899999999996
714,0.714000,2964,4578993,-3631.33,-96.32,3147.1899999999996
715,0.715000,2965,4579993,4828.67,156.68,1745.1899999999996
716,0.716000,2966,4580993,6708.67,-114.32,-44.8100000000004
717,0.717000,2967,4581993,4102.67,609.68,-884.8100000000004
718,0.718000,2968,4582993,4322.67,1071.68,-2539.8100000000004
719,0.719000,2969,4583993,7189.67,864.68,-3283.8100000000004
720,0.720000,2970,4584993,7639.67,-246.32,-2850.8100000000004
721,0.721000,2971,4585993,4776.67,-520.32,-2554.8100000000004
722,0.722000,2972,4586993,-2010.33,-48.32,-3211.8100000000004
723,0.723000,2973,4587993,-2440.33,30.68,-3964.8100000000004
724,0.724000,2974,4588993,5252.67,361.68,-5300.81
725,0.725000,2975,4589993,15448.67,56.68,-4728.81
726,0.726000,2976,4590993,20016.67,-251.32,-1067.8100000000004
727,0.727000,2977,4591993,12845.67,234.68,-212.8100000000004
728,0.728000,2978,4592993,-722.33,951.68,-289.8100000000004
729,0.729000,2979,4593993,-9733.33,875.68,2989.1899999999996
730,0.730000,2980,4594993,-7955.33,10.68,4608.19
731,0.730999,2981,4595992,-1046.33,-542.32,3376.1899999999996
732,0.732000,2982,4596993,4731.67,-677.32,3682.1899999999996
733,0.733000,2983,4597993,3597.67,-568.32,2816.1899999999996
734,0.734000,2984,4598993,-3493.33,-4.32,379.1899999999996
735,0.735000,2985,4599993,-11390.33,-248.32,1669.1899999999996
736,0.736000,2986,4600993,-21958.33,-1132.32,3308.1899999999996
737,0.737000,2987,4601993,-21205.33,-570.32,2254.1899999999996
738,0.738000,2988,4602993,-15497.33,-45.32,1689.1899999999996
739,0.739000,2989,4603993,-5592.33,-206.32,2961.1899999999996
740,0.740000,2990,4604993,4302.67,247.68,2001.1899999999996
741,0.741000,2991,4605993,6272.67,36.68,-84.8100000000004
742,0.742000,2992,4606993,5322.67,183.68,-691.8100000000004
743,0.743000,2993,4607993,3861.67,921.68,-2247.8100000000004
744,0.744000,2994,4608993,6640.67,957.68,-3501.8100000000004
745,0.745000,2995,4609993,7333.67,224.68,-3105.8100000000004
746,0.746000,2996,4610993,5939.67,-632.32,-2196.8100000000004
747,0.747000,2997,4611993,-93.33,-282.32,-3067.8100000000004
748,0.748000,2998,4612993,-3593.33,354.68,-4117.81
749,0.748999,2999,4613992,3751.67,253.68,-4691.81
750,0.750000,3000,4614993,13878.67,43.68,-4695.81
751,0.751000,3001,4615993,19566.67,-352.32,-1584.8100000000004
752,0.752000,3002,4616993,14942.67,-45.32,-155.8100000000004
753,0.753000,3003,4617993,831.67,1133.68,-712.8100000000004
754,0.754000,3004,4618993,-8905.33,976.68,2446.1899999999996
755,0.755000,3005,4619993,-8852.33,-104.32,4541.19
756,0.756000,3006,4620993,-2070.33,-165.32,3269.1899999999996
757,0.757000,3007,4621993,4678.67,-958.32,3742.1899999999996
758,0.758000,3008,4622993,4402.67,-738.32,3291.1899999999996
759,0.759000,3009,4623993,-3310.33,341.68,818.1899999999996
760,0.760000,3010,4624993,-10176.33,-392.32,1225.1899999999996
761,0.761000,3011,4625993,-19343.33,-1053.32,2922.1899999999996
762,0.762000,3012,4626993,-21137.33,-647.32,2796.1899999999996
763,0.763000,3013,4627993,-16912.33,-39.32,1891.1899999999996
764,0.764000,3014,4628993,-7629.33,-134.32,2535.1899999999996
765,0.765000,3015,4629993,3284.67,42.68,2231.1899999999996
766,0.766000,3016,4630993,5544.67,-147.32,238.1899999999996
767,0.767000,3017,4631993,5483.67,188.68,-692.8100000000004
768,0.768000,3018,4632993,3190.67,959.68,-2354.8100000000004
769,0.769000,3019,4633993,6186.67,930.68,-3542.8100000000004
770,0.770000,3020,4634993,7478.67,358.68,-3040.8100000000004
771,0.771000,3021,4635993,6718.67,-651.32,-2136.8100000000004
772,0.772000,3022,4636993,1742.67,-250.32,-2857.8100000000004
773,0.773000,3023,4637993,-4204.33,539.68,-4000.8100000000004
774,0.774000,3024,4638993,2176.67,219.68,-3993.8100000000004
775,0.775000,3025,4639993,11874.67,109.68,-4955.81
776,0.776000,3026,4640993,19704.67,-194.32,-2568.8100000000004
777,0.777000,3027,4641993,16874.67,-24.32,7.1899999999996
778,0.777999,3028,4642992,3410.67,803.68,-570.8100000000004
779,0.779000,3029,4643993,-7909.33,871.68,1623.1899999999996
780,0.780000,3030,4644993,-9575.33,164.68,4306.19
781,0.781000,3031,4645993,-3327.33,-235.32,3619.1899999999996
782,0.782000,3032,4646993,2853.67,-819.32,3268.1899999999996
783,0.782999,3033,4647992,4630.67,-681.32,3331.1899999999996
784,0.784000,3034,4648993,-1190.33,0.6799999999999997,1058.1899999999996
785,0.785000,3035,4649993,-7987.33,-265.32,844.1899999999996
786,0.786000,3036,4650993,-17512.33,-1077.32,3026.1899999999996
787,0.787000,3037,4651993,-21844.33,-647.32,2827.1899999999996
788,0.788000,3038,4652993,-19381.33,332.68,1596.1899999999996
789,0.789000,3039,4653993,-9955.33,-244.32,2652.1899999999996
790,0.790000,3040,4654993,2662.67,20.68,2776.1899999999996
791,0.791000,3041,4655993,6539.67,3.6799999999999997,652.1899999999996
792,0.792000,3042,4656993,6201.67,-18.32,-364.8100000000004
793,0.793000,3043,4657993,3333.67,883.68,-1814.8100000000004
794,0.794000,3044,4658993,4484.67,1018.68,-3480.8100000000004
795,0.795000,3045,4659993,7555.67,356.68,-3375.8100000000004
796,0.796000,3046,4660993,6838.67,-613.32,-2525.8100000000004
797,0.797000,3047,4661993,2292.67,-351.32,-2738.8100000000004
798,0.798000,3048,4662993,-3842.33,313.68,-3816.8100000000004
799,0.799000,3049,4663993,837.67,116.68,-4253.81
800,0.800000,3050,4664993,10813.67,194.68,-5106.81
801,0.801000,3051,4665993,18580.67,-50.32,-2929.8100000000004
802,0.802000,3052,4666993,18204.67,23.68,-135.8100000000004
803,0.803000,3053,4667993,5915.67,506.68,-741.8100000000004
804,0.804000,3054,4668993,-6522.33,1007.68,1311.1899999999996
805,0.805000,3055,4669993,-9216.33,455.68,4614.19
806,0.806000,3056,4670993,-4054.33,-389.32,3745.1899999999996
807,0.807000,3057,4671993,1069.67,-395.32,3019.1899999999996
808,0.808000,3058,4672993,4581.67,-938.32,3708.1899999999996
809,0.808999,3059,4673992,323.67,-185.32,1248.1899999999996
810,0.810000,3060,4674993,-6695.33,35.68,378.1899999999996
811,0.811000,3061,4675993,-16083.33,-1151.32,2917.1899999999996
812,0.812000,3062,4676993,-21949.33,-777.32,2895.1899999999996
813,0.813000,3063,4677993,-19819.33,39.68,1510.1899999999996
814,0.814000,3064,4678993,-11794.33,-215.32,2261.1899999999996
815,0.815000,3065,4679993,-161.32999999999998,130.68,2856.1899999999996
816,0.816000,3066,4680993,6166.67,-111.32,1301.1899999999996
817,0.817000,3067,4681993,6966.67,-161.32,-208.8100000000004
818,0.818000,3068,4682993,3127.67,1091.68,-1579.8100000000004
819,0.819000,3069,4683993,4817.67,894.68,-2715.8100000000004
820,0.820000,3070,4684993,7534.67,611.68,-3317.8100000000004
821,0.821000,3071,4685993,7251.67,-251.32,-2889.8100000000004
822,0.821999,3072,4686992,3145.67,-546.32,-2470.8100000000004
823,0.822999,3073,4687992,-4336.33,268.68,-3517.8100000000004
824,0.824000,3074,4688993,202.67000000000002,-44.32,-4150.81
825,0.824999,3075,4689992,9236.67,477.68,-5476.81
826,0.826000,3076,4690993,17524.67,-6.32,-3620.8100000000004
827,0.827000,3077,4691993,19179.67,-498.32,-83.8100000000004
828,0.828000,3078,4692993,8243.67,746.68,-661.8100000000004
829,0.829000,3079,4693993,-4171.33,866.68,503.1899999999996
830,0.830000,3080,4694993,-10206.33,435.68,3933.1899999999996
831,0.831000,3081,4695993,-6143.33,122.68,4097.19
832,0.832000,3082,4696993,981.67,-650.32,3115.1899999999996
833,0.832999,3083,4697992,4655.67,-843.32,3460.1899999999996
834,0.834000,3084,4698993,1988.67,-339.32,2133.1899999999996
835,0.835000,3085,4699993,-3822.33,-38.32,461.1899999999996
836,0.836000,3086,4700993,-15910.33,-336.32,2065.1899999999996
837,0.836999,3087,4701992,-23278.33,-1237.32,3177.1899999999996
838,0.838000,3088,4702993,-19683.33,-265.32,1723.1899999999996
839,0.839000,3089,4703993,-13318.33,121.68,2206.1899999999996
840,0.840000,3090,4704993,-1772.33,-258.32,3158.1899999999996
841,0.841000,3091,4705993,5557.67,247.68,1171.1899999999996
842,0.842000,3092,4706993,6965.67,-109.32,-59.8100000000004
843,0.843000,3093,4707993,4044.67,310.68,-1032.8100000000004
844,0.844000,3094,4708993,3675.67,1297.68,-2917.8100000000004
845,0.845000,3095,4709993,7322.67,647.68,-3299.8100000000004
846,0.846000,3096,4710993,7479.67,-299.32,-2857.8100000000004
847,0.847000,3097,4711993,4027.67,-266.32,-2620.8100000000004
848,0.848000,3098,4712993,-2709.33,-295.32,-3339.8100000000004
849,0.849000,3099,4713993,-1474.33,306.68,-3994.8100000000004
850,0.850000,3100,4714993,7622.67,443.68,-4918.81
851,0.850999,3101,4715992,16263.67,-341.32,-4243.81
852,0.851999,3102,4716992,18901.67,-23.32,-987.8100000000004
853,0.852999,3103,4717992,10945.67,437.68,-279.8100000000004
854,0.854000,3104,4718993,-2169.33,786.68,144.1899999999996
855,0.855000,3105,4719993,-9646.33,880.68,3334.1899999999996
856,0.856000,3106,4720993,-6853.33,0.6799999999999997,4216.19
857,0.857000,3107,4721993,-547.33,-650.32,3115.1899999999996
858,0.858000,3108,4722993,4884.67,-840.32,3776.1899999999996
859,0.859000,3109,4723993,2650.67,-417.32,2567.1899999999996
860,0.860000,3110,4724993,-3778.33,205.68,83.1899999999996
861,0.861000,3111,4725993,-12889.33,-411.32,1649.1899999999996
862,0.862000,3112,4726993,-22548.33,-1297.32,3519.1899999999996
863,0.863000,3113,4727993,-20405.33,-371.32,2220.1899999999996
864,0.864000,3114,4728993,-14148.33,-173.32,1776.1899999999996
865,0.864999,3115,4729992,-4337.33,-62.32,2986.1899999999996
866,0.866000,3116,4730993,4302.67,343.68,1685.1899999999996
867,0.867000,3117,4731993,6764.67,-318.32,107.1899999999996
868,0.868000,3118,4732993,4420.67,325.68,-911.8100000000004
869,0.869000,3119,4733993,3753.67,1306.68,-2775.8100000000004
870,0.870000,3120,4734993,7101.67,596.68,-3108.8100000000004
871,0.871000,3121,4735993,6815.67,-31.32,-3071.8100000000004
872,0.872000,3122,4736993,5616.67,-317.32,-2601.8100000000004
873,0.873000,3123,4737993,-850.33,-483.32,-2875.8100000000004
874,0.874000,3124,4738993,-2801.33,479.68,-3924.8100000000004
875,0.875000,3125,4739993,5136.67,308.68,-4971.81
876,0.876000,3126,4740993,14415.67,-189.32,-4787.81
877,0.877000,3127,4741993,19768.67,-41.32,-1118.8100000000004
878,0.878000,3128,4742993,13687.67,171.68,-11.8100000000004
879,0.879000,3129,4743993,-15.329999999999998,901.68,-580.8100000000004
880,0.880000,3130,4744993,-9632.33,836.68,2651.1899999999996
881,0.881000,3131,4745993,-8099.33,19.68,4474.19
882,0.882000,3132,4746993,-1502.33,-458.32,3192.1899999999996
883,0.882999,3133,4747992,4061.67,-802.32,3458.1899999999996
884,0.883999,3134,4748992,4141.67,-546.32,3098.1899999999996
885,0.885000,3135,4749993,-2908.33,166.68,435.1899999999996
886,0.886000,3136,4750993,-10372.33,-364.32,1341.1899999999996
887,0.887000,3137,4751993,-20992.33,-1125.32,3525.1899999999996
888,0.887999,3138,4752992,-21549.33,-526.32,2434.1899999999996
889,0.888999,3139,4753992,-16148.33,-131.32,1775.1899999999996
890,0.889999,3140,4754992,-6542.33,-109.32,2855.1899999999996
891,0.891000,3141,4755993,4155.67,206.68,1985.1899999999996
892,0.892000,3142,4756993,6395.67,-181.32,181.1899999999996
893,0.893000,3143,4757993,4981.67,235.68,-788.8100000000004
894,0.894000,3144,4758993,3412.67,1034.68,-2378.8100000000004
895,0.895000,3145,4759993,6343.67,762.68,-3270.8100000000004
896,0.896000,3146,4760993,7007.67,212.68,-3045.8100000000004
897,0.897000,3147,4761993,6175.67,-484.32,-2386.8100000000004
898,0.898000,3148,4762993,640.67,-265.32,-2923.8100000000004
899,0.898999,3149,4763992,-3163.33,248.68,-3710.8100000000004
900,0.899999,3150,4764992,2501.67,365.68,-4745.81
901,0.900999,3151,4765992,13364.67,137.68,-4913.81
902,0.901999,3152,4766992,20172.67,-513.32,-1612.8100000000004
903,0.903000,3153,4767993,15119.67,216.68,-489.8100000000004
904,0.904000,3154,4768993,2311.67,993.68,-804.8100000000004
905,0.905000,3155,4769993,-8673.33,724.68,2301.1899999999996
906,0.906000,3156,4770993,-8919.33,198.68,4476.19
907,0.907000,3157,4771993,-2799.33,-250.32,3167.1899999999996
908,0.908000,3158,4772993,3857.67,-916.32,3493.1899999999996
909,0.908999,3159,4773992,4519.67,-701.32,3499.1899999999996
910,0.910000,3160,4774993,-2347.33,166.68,674.1899999999996
911,0.911000,3161,4775993,-8937.33,-268.32,1001.1899999999996
912,0.912000,3162,4776993,-18506.33,-1195.32,3119.1899999999996
913,0.913000,3163,4777993,-21147.33,-660.32,2807.1899999999996
914,0.914000,3164,4778993,-18461.33,233.68,1705.1899999999996
915,0.915000,3165,4779993,-8849.33,-295.32,2610.1899999999996
916,0.916000,3166,4780993,3162.67,76.68,2513.1899999999996
917,0.916999,3167,4781992,5688.67,95.68,478.1899999999996
918,0.918000,3168,4782993,5691.67,-39.32,-489.8100000000004
919,0.919000,3169,4783993,3279.67,920.68,-2114.8100000000004
920,0.920000,3170,4784993,5178.67,935.68,-3409.8100000000004
921,0.921000,3171,4785993,7699.67,367.68,-3169.8100000000004
922,0.922000,3172,4786993,7117.67,-533.32,-2415.8100000000004
923,0.923000,3173,4787993,1822.67,-355.32,-2837.8100000000004
924,0.924000,3174,4788993,-4203.33,503.68,-3837.8100000000004
925,0.925000,3175,4789993,1336.67,144.68,-4163.81
926,0.926000,3176,4790993,11511.67,118.68,-4936.81
927,0.927000,3177,4791993,19494.67,-231.32,-2550.8100000000004
928,0.928000,3178,4792993,17829.67,-173.32,-187.8100000000004
929,0.929000,3179,4793993,4133.67,901.68,-848.8100000000004
930,0.929999,3180,4794992,-7749.33,847.68,1445.1899999999996
931,0.931000,3181,4795993,-9590.33,195.68,4315.19
932,0.932000,3182,4796993,-3856.33,-103.32,3441.1899999999996
933,0.933000,3183,4797993,2941.67,-971.32,3304.1899999999996
934,0.933999,3184,4798992,5006.67,-595.32,3627.1899999999996
935,0.935000,3185,4799993,-442.33,61.68,1346.1899999999996
936,0.936000,3186,4800993,-7150.33,-494.32,890.1899999999996
937,0.937000,3187,4801993,-17376.33,-704.32,2639.1899999999996
938,0.938000,3188,4802993,-22040.33,-895.32,2954.1899999999996
939,0.939000,3189,4803993,-19412.33,108.68,1806.1899999999996
940,0.940000,3190,4804993,-11081.33,51.68,2262.1899999999996
941,0.941000,3191,4805993,1731.67,-221.32,2670.1899999999996
942,0.942000,3192,4806993,6087.67,-10.32,794.1899999999996
943,0.942999,3193,4807992,6109.67,68.68,-342.8100000000004
944,0.943999,3194,4808992,3181.67,773.68,-1720.8100000000004
945,0.945000,3195,4809993,4144.67,927.68,-3171.8100000000004
946,0.946000,3196,4810993,8069.67,529.68,-3319.8100000000004
947,0.947000,3197,4811993,7489.67,-409.32,-2497.8100000000004
948,0.948000,3198,4812993,2367.67,-265.32,-2473.8100000000004
949,0.949000,3199,4813993,-3893.33,143.68,-3738.8100000000004
950,0.950000,3200,4814993,581.67,134.68,-4172.81
951,0.950999,3201,4815992,10458.67,360.68,-4889.81
952,0.952000,3202,4816993,17762.67,-258.32,-3281.8100000000004
953,0.953000,3203,4817993,18706.67,-123.32,-420.8100000000004
954,0.954000,3204,4818993,7374.67,785.68,-649.8100000000004
955,0.954999,3205,4819992,-5596.33,640.68,828.1899999999996
956,0.956000,3206,4820993,-10520.33,591.68,3920.1899999999996
957,0.957000,3207,4821993,-5245.33,-123.32,3802.1899999999996
958,0.958000,3208,4822993,1635.67,-767.32,3108.1899999999996
959,0.958999,3209,4823992,4303.67,-762.32,3653.1899999999996
960,0.960000,3210,4824993,1445.67,-406.32,1916.1899999999996
961,0.961000,3211,4825993,-4797.33,120.68,403.1899999999996
962,0.962000,3212,4826993,-16446.33,-602.32,2461.1899999999996
963,0.963000,3213,4827993,-22481.33,-1030.32,3230.1899999999996
964,0.964000,3214,4828993,-18790.33,12.68,1712.1899999999996
965,0.964999,3215,4829992,-12774.33,-207.32,2342.1899999999996
966,0.966000,3216,4830993,-1161.33,-93.32,2972.1899999999996
967,0.967000,3217,4831993,5182.67,252.68,963.1899999999996
968,0.968000,3218,4832993,7086.67,-380.32,53.1899999999996
969,0.968999,3219,4833992,3476.67,751.68,-1455.8100000000004
970,0.970000,3220,4834993,3989.67,1130.68,-3190.8100000000004
971,0.971000,3221,4835993,7994.67,439.68,-3148.8100000000004
972,0.972000,3222,4836993,7015.67,-219.32,-2872.8100000000004
973,0.973000,3223,4837993,3810.67,-367.32,-2607.8100000000004
974,0.974000,3224,4838993,-3855.33,-53.32,-3465.8100000000004
975,0.975000,3225,4839993,-541.33,64.68,-3875.8100000000004
976,0.976000,3226,4840993,8723.67,338.68,-4903.81
977,0.977000,3227,4841993,16250.67,181.68,-4105.81
978,0.978000,3228,4842993,19374.67,-173.32,-552.8100000000004
979,0.979000,3229,4843993,9943.67,297.68,-299.8100000000004
980,0.980000,3230,4844993,-3675.33,1211.68,53.1899999999996
981,0.981000,3231,4845993,-9789.33,540.68,3669.1899999999996
982,0.982000,3232,4846993,-6467.33,-240.32,4519.19
983,0.983000,3233,4847993,-53.33,-391.32,3009.1899999999996
984,0.984000,3234,4848993,5103.67,-1007.32,3477.1899999999996
985,0.985000,3235,4849993,2218.67,-451.32,2223.1899999999996
986,0.986000,3236,4850993,-3631.33,206.68,221.1899999999996
987,0.987000,3237,4851993,-13377.33,-513.32,1867.1899999999996
988,0.988000,3238,4852993,-23093.33,-1206.32,3122.1899999999996
989,0.989000,3239,4853993,-20041.33,-335.32,2023.1899999999996
990,0.989999,3240,4854992,-13815.33,-43.32,1993.1899999999996
991,0.991000,3241,4855993,-3725.33,-118.32,3009.1899999999996
992,0.992000,3242,4856993,5187.67,235.68,1650.1899999999996
993,0.993000,3243,4857993,6764.67,-187.32,37.1899999999996
994,0.994000,3244,4858993,4840.67,376.68,-886.8100000000004
995,0.995000,3245,4859993,3652.67,1110.68,-2629.8100000000004
996,0.996000,3246,4860993,6445.67,921.68,-3422.8100000000004
997,0.997000,3247,4861993,7502.67,-46.32,-2800.8100000000004
998,0.998000,3248,4862993,4675.67,-653.32,-2202.8100000000004
999,0.999000,3249,4863993,-1827.33,-110.32,-3076.8100000000004
1000,1.000000,3250,4864993,-2453.33,356.68,-3938.8100000000004
1001,1.001000,3251,4865993,5797.67,285.68,-4882.81
1002,1.002000,3252,4866993,15120.67,-57.32,-4527.81
1003,1.003000,3253,4867993,19464.67,-115.32,-1224.8100000000004
1004,1.004000,3254,4868993,12632.67,305.68,-245.8100000000004
1005,1.004999,3255,4869992,-932.33,783.68,-267.8100000000004
1006,1.006000,3256,4870993,-9334.33,875.68,3035.1899999999996
1007,1.006999,3257,4871992,-7869.33,6.68,4361.19
1008,1.008000,3258,4872993,-905.33,-643.32,2987.1899999999996
1009,1.009000,3259,4873993,4590.67,-869.32,3617.1899999999996
1010,1.010000,3260,4874993,3346.67,-479.32,2722.1899999999996
1011,1.011000,3261,4875993,-3366.33,194.68,26.1899999999996
1012,1.012000,3262,4876993,-10707.33,-482.32,1390.1899999999996
1013,1.012999,3263,4877992,-20730.33,-1159.32,3360.1899999999996
1014,1.014000,3264,4878993,-20856.33,-406.32,2334.1899999999996
1015,1.015000,3265,4879993,-15492.33,-97.32,1706.1899999999996
1016,1.016000,3266,4880993,-6063.33,-97.32,2957.1899999999996
1017,1.017000,3267,4881993,3867.67,316.68,2144.1899999999996
1018,1.018000,3268,4882993,6072.67,-224.32,205.1899999999996
1019,1.019000,3269,4883993,5118.67,300.68,-690.8100000000004
1020,1.020000,3270,4884993,3534.67,1075.68,-2176.8100000000004
1021,1.021000,3271,4885993,6471.67,835.68,-3101.8100000000004
1022,1.022000,3272,4886993,7097.67,212.68,-3048.8100000000004
1023,1.022999,3273,4887992,5688.67,-643.32,-2271.8100000000004
1024,1.024000,3274,4888993,-60.33,-323.32,-2821.8100000000004
1025,1.025000,3275,4889993,-3809.33,423.68,-4036.8100000000004
1026,1.026000,3276,4890993,3235.67,292.68,-4783.81
1027,1.026999,3277,4891992,13494.67,5.68,-4974.81
1028,1.028000,3278,4892993,20001.67,-306.32,-1874.8100000000004
1029,1.029000,3279,4893993,15468.67,151.68,-309.8100000000004
1030,1.030000,3280,4894993,1439.67,949.68,-745.8100000000004
1031,1.031000,3281,4895993,-8486.33,728.68,2535.1899999999996
1032,1.032000,3282,4896993,-8571.33,88.68,4648.19
1033,1.033000,3283,4897993,-2487.33,-299.32,3240.1899999999996
1034,1.034000,3284,4898993,3954.67,-810.32,3593.1899999999996
1035,1.035000,3285,4899993,4296.67,-588.32,3194.1899999999996
1036,1.036000,3286,4900993,-2059.33,80.68,511.1899999999996
1037,1.037000,3287,4901993,-8895.33,-369.32,1035.1899999999996
1038,1.038000,3288,4902993,-18570.33,-1254.32,3163.1899999999996
1039,1.039000,3289,4903993,-21339.33,-684.32,2658.1899999999996
1040,1.040000,3290,4904993,-18824.33,120.68,1360.1899999999996
1041,1.041000,3291,4905993,-9119.33,-222.32,2415.1899999999996
1042,1.042000,3292,4906993,3146.67,117.68,2364.1899999999996
1043,1.043000,3293,4907993,6267.67,-15.32,439.1899999999996
1044,1.044000,3294,4908993,5768.67,115.68,-376.8100000000004
1045,1.044999,3295,4909992,3466.67,932.68,-1819.8100000000004
1046,1.046000,3296,4910993,5645.67,1074.68,-3135.8100000000004
1047,1.047000,3297,4911993,7565.67,386.68,-2916.8100000000004
1048,1.048000,3298,4912993,6636.67,-469.32,-2188.8100000000004
1049,1.049000,3299,4913993,1602.67,-263.32,-2628.8100000000004
1050,1.050000,3300,4914993,-4017.33,359.68,-3772.8100000000004
1051,1.051000,3301,4915993,1394.67,293.68,-4405.81
1052,1.052000,3302,4916993,11390.67,116.68,-5122.81
1053,1.053000,3303,4917993,19376.67,-272.32,-2640.8100000000004
1054,1.054000,3304,4918993,17306.67,-36.32,-405.8100000000004
1055,1.055000,3305,4919993,4223.67,777.68,-925.8100000000004
1056,1.056000,3306,4920993,-7408.33,963.68,1713.1899999999996
1057,1.057000,3307,4921993,-9320.33,253.68,4450.19
1058,1.058000,3308,4922993,-3379.33,-289.32,3497.1899999999996
1059,1.059000,3309,4923993,2518.67,-745.32,3443.1899999999996
1060,1.060000,3310,4924993,4951.67,-881.32,3626.1899999999996
1061,1.061000,3311,4925993,-558.33,2.6799999999999997,915.1899999999996
1062,1.061999,3312,4926992,-7391.33,-226.32,658.1899999999996
1063,1.063000,3313,4927993,-17019.33,-1009.32,2793.1899999999996
1064,1.064000,3314,4928993,-21668.33,-731.32,2751.1899999999996
1065,1.065000,3315,4929993,-19219.33,-46.32,1718.1899999999996
1066,1.066000,3316,4930993,-11398.33,-169.32,2243.1899999999996
1067,1.067000,3317,4931993,1360.67,53.68,2742.1899999999996
1068,1.068000,3318,4932993,6101.67,-94.32,922.1899999999996
1069,1.068999,3319,4933992,6061.67,62.68,-466.8100000000004
1070,1.070000,3320,4934993,3464.67,943.68,-1672.8100000000004
1071,1.071000,3321,4935993,4717.67,974.68,-3048.8100000000004
1072,1.071999,3322,4936992,8054.67,540.68,-3045.8100000000004
1073,1.073000,3323,4937993,7185.67,-371.32,-2342.8100000000004
1074,1.074000,3324,4938993,2359.67,-374.32,-2550.8100000000004
1075,1.075000,3325,4939993,-4539.33,326.68,-3639.8100000000004
1076,1.076000,3326,4940993,673.67,-17.32,-4019.8100000000004
1077,1.077000,3327,4941993,10198.67,301.68,-5294.81
1078,1.078000,3328,4942993,17877.67,85.68,-3308.8100000000004
1079,1.079000,3329,4943993,19047.67,-468.32,-241.8100000000004
1080,1.080000,3330,4944993,6851.67,609.68,-1037.8100000000004
1081,1.081000,3331,4945993,-6412.33,1181.68,859.1899999999996
1082,1.082000,3332,4946993,-9374.33,205.68,4344.19
1083,1.083000,3333,4947993,-4855.33,-246.32,3502.1899999999996
1084,1.084000,3334,4948993,1352.67,-392.32,3116.1899999999996
1085,1.085000,3335,4949993,5683.67,-1021.32,4050.1899999999996
1086,1.086000,3336,4950993,992.67,-159.32,1501.1899999999996
1087,1.087000,3337,4951993,-4989.33,3.6799999999999997,649.1899999999996
1088,1.088000,3338,4952993,-16379.33,-839.32,2622.1899999999996
1089,1.089000,3339,4953993,-23281.33,-880.32,2877.1899999999996
1090,1.090000,3340,4954993,-19580.33,-205.32,1828.1899999999996
1091,1.091000,3341,4955993,-13117.33,-51.32,2079.1899999999996
1092,1.091999,3342,4956992,-907.33,-45.32,2821.1899999999996
1093,1.093000,3343,4957993,6127.67,-162.32,1108.1899999999996
1094,1.094000,3344,4958993,6545.67,-50.32,-382.8100000000004
1095,1.095000,3345,4959993,3454.67,803.68,-1255.8100000000004
1096,1.095999,3346,4960992,4132.67,1042.68,-2856.8100000000004
1097,1.097000,3347,4961993,7782.67,701.68,-3364.8100000000004
1098,1.098000,3348,4962993,7723.67,-286.32,-2482.8100000000004
1099,1.099000,3349,4963993,3576.67,-424.32,-2325.8100000000004
1100,1.100000,3350,4964993,-3788.33,222.68,-3547.8100000000004
1101,1.101000,3351,4965993,15.670000000000002,124.68,-4060.8100000000004
1102,1.102000,3352,4966993,9075.67,314.68,-5254.81
1103,1.103000,3353,4967993,17221.67,31.68,-3826.8100000000004
1104,1.104000,3354,4968993,19520.67,-288.32,-575.8100000000004
1105,1.105000,3355,4969993,8801.67,527.68,-891.8100000000004
1106,1.106000,3356,4970993,-4014.33,870.68,385.1899999999996
1107,1.107000,3357,4971993,-9929.33,491.68,3797.1899999999996
1108,1.108000,3358,4972993,-6326.33,-5.32,3769.1899999999996
1109,1.109000,3359,4973993,355.67,-663.32,3084.1899999999996
1110,1.110000,3360,4974993,4930.67,-987.32,3953.1899999999996
1111,1.111000,3361,4975993,2091.67,-253.32,2081.1899999999996
1112,1.112000,3362,4976993,-4102.33,63.68,292.1899999999996
1113,1.112999,3363,4977992,-15309.33,-497.32,2234.1899999999996
1114,1.114000,3364,4978993,-23624.33,-994.32,3231.1899999999996
1115,1.115000,3365,4979993,-19803.33,-293.32,2088.1899999999996
1116,1.116000,3366,4980993,-13442.33,-45.32,2203.1899999999996
1117,1.117000,3367,4981993,-2457.33,-44.32,3257.1899999999996
1118,1.117999,3368,4982992,5424.67,-5.32,1722.1899999999996
1119,1.119000,3369,4983993,6871.67,-187.32,-238.8100000000004
1120,1.120000,3370,4984993,4163.67,601.68,-1250.8100000000004
1121,1.121000,3371,4985993,3800.67,1070.68,-2926.8100000000004
1122,1.122000,3372,4986993,7535.67,665.68,-3640.8100000000004
1123,1.123000,3373,4987993,7704.67,-184.32,-3033.8100000000004
1124,1.124000,3374,4988993,4099.67,-562.32,-2540.8100000000004
1125,1.125000,3375,4989993,-3159.33,-13.32,-3420.8100000000004
1126,1.126000,3376,4990993,-1196.33,198.68,-3957.8100000000004
1127,1.127000,3377,4991993,7757.67,208.68,-5049.81
1128,1.128000,3378,4992993,16199.67,115.68,-4177.81
1129,1.128999,3379,4993992,20103.67,-261.32,-611.8100000000004
1130,1.130000,3380,4994993,10709.67,408.68,-575.8100000000004
1131,1.130999,3381,4995992,-2801.33,1097.68,-28.8100000000004
1132,1.132000,3382,4996993,-9559.33,579.68,3525.1899999999996
1133,1.133000,3383,4997993,-7409.33,-13.32,4103.19
1134,1.134000,3384,4998993,-86.33,-514.32,3196.1899999999996
1135,1.135000,3385,4999993,5041.67,-865.32,3888.1899999999996
1136,1.136000,3386,5000993,3015.67,-487.32,2544.1899999999996
1137,1.137000,3387,5001993,-3294.33,45.68,99.1899999999996
1138,1.138000,3388,5002993,-13529.33,-220.32,1859.1899999999996
1139,1.139000,3389,5003993,-23355.33,-1203.32,3445.1899999999996
1140,1.140000,3390,5004993,-20609.33,-435.32,1995.1899999999996
1141,1.140999,3391,5005992,-14519.33,0.6799999999999997,1776.1899999999996
1142,1.141999,3392,5006992,-4347.33,-190.32,3100.1899999999996
1143,1.143000,3393,5007993,5251.67,182.68,1999.1899999999996
1144,1.144000,3394,5008993,6936.67,-166.32,-32.8100000000004
1145,1.145000,3395,5009993,4682.67,347.68,-898.8100000000004
1146,1.146000,3396,5010993,3659.67,1134.68,-2632.8100000000004
1147,1.147000,3397,5011993,7014.67,779.68,-3530.8100000000004
1148,1.148000,3398,5012993,6988.67,63.68,-3028.8100000000004
1149,1.149000,3399,5013993,4854.67,-584.32,-2336.8100000000004
1150,1.150000,3400,5014993,-1448.33,-220.32,-3197.8100000000004
1151,1.151000,3401,5015993,-2393.33,318.68,-4042.8100000000004
1152,1.152000,3402,5016993,5967.67,254.68,-4938.81
1153,1.153000,3403,5017993,15347.67,-1.3200000000000003,-4795.81
1154,1.153999,3404,5018992,19777.67,-128.32,-1131.8100000000004
1155,1.154999,3405,5019992,13032.67,258.68,-157.8100000000004
1156,1.155999,3406,5020992,-428.33,871.68,-482.8100000000004
1157,1.157000,3407,5021993,-9778.33,956.68,2884.1899999999996
1158,1.158000,3408,5022993,-7981.33,81.68,4442.19
1159,1.159000,3409,5023993,-882.33,-515.32,3301.1899999999996
1160,1.160000,3410,5024993,4396.67,-922.32,3731.1899999999996
1161,1.161000,3411,5025993,3654.67,-473.32,3072.1899999999996
1162,1.162000,3412,5026993,-3122.33,85.68,439.1899999999996
1163,1.163000,3413,5027993,-11632.33,-266.32,1447.1899999999996
1164,1.164000,3414,5028993,-21729.33,-1159.32,3548.1899999999996
1165,1.165000,3415,5029993,-21688.33,-691.32,2303.1899999999996
1166,1.166000,3416,5030993,-16073.33,-9.32,1521.1899999999996
1167,1.167000,3417,5031993,-5908.33,-191.32,2939.1899999999996
1168,1.168000,3418,5032993,4242.67,341.68,2086.1899999999996
1169,1.168999,3419,5033992,6341.67,13.68,131.1899999999996
1170,1.169999,3420,5034992,5333.67,-105.32,-783.8100000000004
1171,1.171000,3421,5035993,3828.67,1149.68,-2555.8100000000004
1172,1.172000,3422,5036993,6741.67,1155.68,-3069.8100000000004
1173,1.173000,3423,5037993,7472.67,-218.32,-3072.8100000000004
1174,1.174000,3424,5038993,5669.67,-267.32,-2927.8100000000004
1175,1.175000,3425,5039993,153.67000000000002,-399.32,-2814.8100000000004
1176,1.176000,3426,5040993,-2973.33,-7.32,-3612.8100000000004
1177,1.177000,3427,5041993,3781.67,804.68,-5095.81
1178,1.178000,3428,5042993,14517.67,-221.32,-5162.81
1179,1.179000,3429,5043993,19684.67,-334.32,-1570.8100000000004
1180,1.180000,3430,5044993,14656.67,331.68,-27.8100000000004
1181,1.181000,3431,5045993,1427.67,754.68,-697.8100000000004
1182,1.182000,3432,5046993,-9782.33,1103.68,2292.1899999999996
1183,1.183000,3433,5047993,-8326.33,-104.32,4851.19
1184,1.184000,3434,5048993,-2225.33,-365.32,3186.1899999999996
1185,1.185000,3435,5049993,4402.67,-623.32,3614.1899999999996
1186,1.186000,3436,5050993,4289.67,-947.32,3363.1899999999996
1187,1.187000,3437,5051993,-3058.33,432.68,356.1899999999996
1188,1.187999,3438,5052992,-9826.33,-139.32,1578.1899999999996
1189,1.189000,3439,5053993,-20526.33,-1569.32,3450.1899999999996
1190,1.190000,3440,5054993,-21974.33,-185.32,2312.1899999999996
1191,1.191000,3441,5055993,-17442.33,-36.32,1663.1899999999996
1192,1.192000,3442,5056993,-7281.33,-489.32,2957.1899999999996
1193,1.193000,3443,5057993,3713.67,548.68,2094.1899999999996
1194,1.194000,3444,5058993,6749.67,-332.32,170.1899999999996
1195,1.195000,3445,5059993,5265.67,27.68,-605.8100000000004
1196,1.195999,3446,5060992,3516.67,1145.68,-2290.8100000000004
1197,1.196999,3447,5061992,6192.67,874.68,-3622.8100000000004
1198,1.197999,3448,5062992,7295.67,368.68,-3244.8100000000004
1199,1.199000,3449,5063993,6664.67,-640.32,-2173.8100000000004
1200,1.200000,3450,5064993,1012.67,-386.32,-3103.8100000000004
1201,1.201000,3451,5065993,-3388.33,579.68,-3985.8100000000004
1202,1.202000,3452,5066993,2381.67,152.68,-4293.81
1203,1.202999,3453,5067992,12554.67,104.68,-4959.81
1204,1.204000,3454,5068993,20474.67,-224.32,-2019.8100000000004
1205,1.205000,3455,5069993,16298.67,-82.32,-196.8100000000004
1206,1.206000,3456,5070993,2219.67,1073.68,-795.8100000000004
1207,1.207000,3457,5071993,-8523.33,1083.68,2161.1899999999996
1208,1.208000,3458,5072993,-8763.33,-150.32,4572.19
1209,1.209000,3459,5073993,-2868.33,-328.32,3184.1899999999996
1210,1.210000,3460,5074993,3036.67,-605.32,3631.1899999999996
1211,1.211000,3461,5075993,4939.67,-973.32,3685.1899999999996
1212,1.212000,3462,5076993,-2427.33,254.68,456.1899999999996
1213,1.212999,3463,5077992,-9313.33,-215.32,870.1899999999996
1214,1.214000,3464,5078993,-18341.33,-1380.32,3284.1899999999996
1215,1.215000,3465,5079993,-21572.33,-541.32,2914.1899999999996
1216,1.216000,3466,5080993,-18895.33,227.68,1633.1899999999996
1217,1.217000,3467,5081993,-9261.33,-147.32,2455.1899999999996
1218,1.218000,3468,5082993,3134.67,82.68,2714.1899999999996
1219,1.219000,3469,5083993,6491.67,-133.32,719.1899999999996
1220,1.220000,3470,5084993,5592.67,138.68,-601.8100000000004
1221,1.220999,3471,5085992,3444.67,873.68,-2066.8100000000004
1222,1.222000,3472,5086993,5410.67,964.68,-3527.8100000000004
1223,1.223000,3473,5087993,7584.67,376.68,-3376.8100000000004
1224,1.224000,3474,5088993,7141.67,-633.32,-2386.8100000000004
1225,1.225000,3475,5089993,1720.67,-290.32,-2912.8100000000004
1226,1.226000,3476,5090993,-3839.33,449.68,-3915.8100000000004
1227,1.227000,3477,5091993,1756.67,279.68,-4211.81
1228,1.227999,3478,5092992,11705.67,91.68,-5229.81
1229,1.229000,3479,5093993,19444.67,-223.32,-2576.8100000000004
1230,1.230000,3480,5094993,17462.67,-57.32,199.1899999999996
1231,1.231000,3481,5095993,4409.67,776.68,-833.8100000000004
1232,1.232000,3482,5096993,-7512.33,951.68,1349.1899999999996
1233,1.233000,3483,5097993,-9961.33,209.68,4484.19
1234,1.234000,3484,5098993,-3310.33,-180.32,3585.1899999999996
1235,1.235000,3485,5099993,2709.67,-722.32,3278.1899999999996
1236,1.236000,3486,5100993,4829.67,-877.32,3623.1899999999996
1237,1.237000,3487,5101993,-552.33,-21.32,1218.1899999999996
1238,1.238000,3488,5102993,-8386.33,-92.32,779.1899999999996
1239,1.239000,3489,5103993,-17627.33,-1176.32,3087.1899999999996
1240,1.240000,3490,5104993,-22278.33,-703.32,2876.1899999999996
1241,1.241000,3491,5105993,-20202.33,270.68,1390.1899999999996
1242,1.242000,3492,5106993,-10496.33,-263.32,2609.1899999999996
1243,1.242999,3493,5107992,2185.67,71.68,2803.1899999999996
1244,1.244000,3494,5108993,6721.67,27.68,673.1899999999996
1245,1.244999,3495,5109992,6344.67,-34.32,-173.8100000000004
1246,1.246000,3496,5110993,3472.67,770.68,-1718.8100000000004
1247,1.247000,3497,5111993,4985.67,1064.68,-3434.8100000000004
1248,1.248000,3498,5112993,7725.67,572.68,-3399.8100000000004
1249,1.249000,3499,5113993,7265.67,-493.32,-2484.8100000000004
1250,1.250000,3500,5114993,2449.67,-490.32,-2832.8100000000004
1251,1.251000,3501,5115993,-3956.33,262.68,-4025.8100000000004
1252,1.252000,3502,5116993,825.67,157.68,-4026.8100000000004
1253,1.253000,3503,5117993,10839.67,171.68,-5029.81
1254,1.254000,3504,5118993,18311.67,-1.3200000000000003,-3411.8100000000004
1255,1.255000,3505,5119993,18550.67,-344.32,-212.8100000000004
1256,1.256000,3506,5120993,6425.67,606.68,-439.8100000000004
1257,1.257000,3507,5121993,-6422.33,1406.68,1087.1899999999996
1258,1.258000,3508,5122993,-9220.33,86.68,4388.19
1259,1.259000,3509,5123993,-5606.33,-132.32,3557.1899999999996
1260,1.260000,3510,5124993,1907.67,-516.32,3347.1899999999996
1261,1.261000,3511,5125993,5371.67,-1086.32,3871.1899999999996
1262,1.261999,3512,5126992,-704.33,84.68,1335.1899999999996
1263,1.263000,3513,5127993,-5907.33,-284.32,1065.1899999999996
1264,1.264000,3514,5128993,-16904.33,-839.32,2506.1899999999996
1265,1.265000,3515,5129993,-23111.33,-779.32,2945.1899999999996
1266,1.266000,3516,5130993,-19597.33,-146.32,1813.1899999999996
1267,1.266999,3517,5131992,-12131.33,183.68,2005.1899999999996
1268,1.268000,3518,5132993,243.67000000000002,-159.32,3033.1899999999996
1269,1.268999,3519,5133992,6521.67,-293.32,901.1899999999996
1270,1.270000,3520,5134993,6428.67,323.68,-533.8100000000004
1271,1.271000,3521,5135993,3548.67,624.68,-1231.8100000000004
1272,1.271999,3522,5136992,4625.67,948.68,-3194.8100000000004
1273,1.273000,3523,5137993,8078.67,834.68,-3735.8100000000004
1274,1.273999,3524,5138992,8154.67,-654.32,-2265.8100000000004
1275,1.275000,3525,5139993,2724.67,-467.32,-2579.8100000000004
1276,1.276000,3526,5140993,-4422.33,446.68,-4151.81
1277,1.277000,3527,5141993,677.67,-45.32,-4034.8100000000004
1278,1.278000,3528,5142993,9750.67,97.68,-4938.81
1279,1.278999,3529,5143992,18135.67,96.68,-3635.8100000000004
1280,1.280000,3530,5144993,18884.67,-120.32,-470.8100000000004
1281,1.281000,3531,5145993,6951.67,511.68,-493.8100000000004
1282,1.282000,3532,5146993,-5114.33,909.68,702.1899999999996
1283,1.283000,3533,5147993,-10160.33,815.68,3942.1899999999996
1284,1.284000,3534,5148993,-4740.33,-274.32,4086.1899999999996
1285,1.285000,3535,5149993,1381.67,-786.32,3255.1899999999996
1286,1.286000,3536,5150993,5168.67,-801.32,4026.1899999999996
1287,1.287000,3537,5151993,1444.67,-361.32,1964.1899999999996
1288,1.288000,3538,5152993,-5785.33,-34.32,328.1899999999996
1289,1.289000,3539,5153993,-16865.33,-601.32,2483.1899999999996
1290,1.290000,3540,5154993,-23475.33,-1039.32,2955.1899999999996
1291,1.291000,3541,5155993,-19857.33,-147.32,1558.1899999999996
1292,1.292000,3542,5156993,-13092.33,53.68,2080.1899999999996
1293,1.293000,3543,5157993,-621.33,-51.32,3048.1899999999996
1294,1.294000,3544,5158993,5956.67,-27.32,1406.1899999999996
1295,1.295000,3545,5159993,7000.67,-150.32,-223.8100000000004
1296,1.296000,3546,5160993,3833.67,815.68,-1298.8100000000004
1297,1.297000,3547,5161993,4324.67,1035.68,-2759.8100000000004
1298,1.298000,3548,5162993,8289.67,597.68,-3347.8100000000004
1299,1.299000,3549,5163993,7550.67,-187.32,-2950.8100000000004
1300,1.300000,3550,5164993,3678.67,-519.32,-2582.8100000000004
1301,1.301000,3551,5165993,-3742.33,5.68,-3463.8100000000004
1302,1.302000,3552,5166993,-339.33,131.68,-4084.8100000000004
1303,1.303000,3553,5167993,8913.67,273.68,-5318.81
1304,1.304000,3554,5168993,16673.67,15.68,-4039.8100000000004
1305,1.305000,3555,5169993,19221.67,-223.32,-502.8100000000004
1306,1.306000,3556,5170993,9162.67,480.68,-559.8100000000004
1307,1.307000,3557,5171993,-3904.33,990.68,304.1899999999996
1308,1.308000,3558,5172993,-9756.33,698.68,3723.1899999999996
1309,1.309000,3559,5173993,-6211.33,-75.32,4149.19
1310,1.310000,3560,5174993,699.67,-705.32,3382.1899999999996
1311,1.311000,3561,5175993,4878.67,-857.32,3932.1899999999996
1312,1.311999,3562,5176992,1675.67,-229.32,2204.1899999999996
1313,1.312999,3563,5177992,-3860.33,-19.32,594.1899999999996
1314,1.314000,3564,5178993,-15494.33,-427.32,2279.1899999999996
1315,1.315000,3565,5179993,-23738.33,-1102.32,3086.1899999999996
1316,1.316000,3566,5180993,-19708.33,-383.32,1882.1899999999996
1317,1.317000,3567,5181993,-13340.33,2.6799999999999997,2078.1899999999996
1318,1.318000,3568,5182993,-2723.33,-166.32,3066.1899999999996
1319,1.319000,3569,5183993,5273.67,34.68,1224.1899999999996
1320,1.320000,3570,5184993,6838.67,-169.32,-366.8100000000004
1321,1.321000,3571,5185993,4009.67,550.68,-1065.8100000000004
1322,1.322000,3572,5186993,4332.67,1079.68,-2885.8100000000004
1323,1.322999,3573,5187992,7764.67,798.68,-3678.8100000000004
1324,1.324000,3574,5188993,7857.67,-226.32,-2845.8100000000004
1325,1.325000,3575,5189993,4452.67,-544.32,-2192.8100000000004
1326,1.326000,3576,5190993,-2918.33,-46.32,-3351.8100000000004
1327,1.327000,3577,5191993,-1356.33,193.68,-4072.8100000000004
1328,1.328000,3578,5192993,7447.67,346.68,-4983.81
1329,1.329000,3579,5193993,16028.67,45.68,-4265.81
1330,1.330000,3580,5194993,19790.67,-188.32,-814.8100000000004
1331,1.330999,3581,5195992,10712.67,360.68,-406.8100000000004
1332,1.332000,3582,5196993,-2434.33,876.68,-15.8100000000004
1333,1.333000,3583,5197993,-9643.33,685.68,3433.1899999999996
1334,1.334000,3584,5198993,-7401.33,86.68,4215.19
1335,1.335000,3585,5199993,2.6700000000000017,-608.32,3135.1899999999996
1336,1.336000,3586,5200993,4880.67,-991.32,3898.1899999999996
1337,1.337000,3587,5201993,3039.67,-400.32,2591.1899999999996
1338,1.338000,3588,5202993,-3633.33,208.68,165.1899999999996
1339,1.339000,3589,5203993,-14186.33,-438.32,1965.1899999999996
1340,1.339999,3590,5204992,-23581.33,-1100.32,3403.1899999999996
1341,1.341000,3591,5205993,-20769.33,-366.32,1972.1899999999996
1342,1.342000,3592,5206993,-14033.33,-140.32,2002.1899999999996
1343,1.342999,3593,5207992,-3639.33,-147.32,3305.1899999999996
1344,1.344000,3594,5208993,5102.67,139.68,1767.1899999999996
1345,1.345000,3595,5209993,6933.67,-186.32,-180.8100000000004
1346,1.346000,3596,5210993,4323.67,361.68,-1031.8100000000004
1347,1.347000,3597,5211993,3617.67,1155.68,-2737.8100000000004
1348,1.347999,3598,5212992,7460.67,841.68,-3504.8100000000004
1349,1.349000,3599,5213993,7536.67,-99.32,-3074.8100000000004
1350,1.350000,3600,5214993,5136.67,-642.32,-2366.8100000000004
1351,1.350999,3601,5215992,-1792.33,-157.32,-3218.8100000000004
1352,1.352000,3602,5216993,-2444.33,351.68,-4104.81
1353,1.353000,3603,5217993,6112.67,301.68,-5065.81
1354,1.354000,3604,5218993,15525.67,31.68,-4663.81
1355,1.355000,3605,5219993,19877.67,-156.32,-1015.8100000000004
1356,1.356000,3606,5220993,12855.67,286.68,-232.8100000000004
1357,1.357000,3607,5221993,-1020.33,979.68,-335.8100000000004
1358,1.358000,3608,5222993,-9695.33,801.68,3158.1899999999996
1359,1.359000,3609,5223993,-7657.33,-68.32,4572.19
1360,1.360000,3610,5224993,-1239.33,-434.32,3148.1899999999996
1361,1.361000,3611,5225993,4692.67,-908.32,3679.1899999999996
1362,1.362000,3612,5226993,3313.67,-680.32,2910.1899999999996
1363,1.362999,3613,5227992,-3696.33,293.68,62.1899999999996
1364,1.364000,3614,5228993,-11936.33,-321.32,1450.1899999999996
1365,1.365000,3615,5229993,-22712.33,-1259.32,3582.1899999999996
1366,1.365999,3616,5230992,-21266.33,-373.32,2280.1899999999996
1367,1.367000,3617,5231993,-15151.33,-52.32,1700.1899999999996
1368,1.368000,3618,5232993,-5411.33,-169.32,3160.1899999999996
1369,1.369000,3619,5233993,4669.67,244.68,2184.1899999999996
1370,1.370000,3620,5234993,6649.67,-106.32,25.1899999999996
1371,1.371000,3621,5235993,5165.67,245.68,-839.8100000000004
1372,1.372000,3622,5236993,4130.67,973.68,-2424.8100000000004
1373,1.373000,3623,5237993,6828.67,921.68,-3581.8100000000004
1374,1.374000,3624,5238993,7357.67,125.68,-3197.8100000000004
1375,1.375000,3625,5239993,5730.67,-731.32,-2409.8100000000004
1376,1.376000,3626,5240993,-1050.33,-182.32,-3346.8100000000004
1377,1.377000,3627,5241993,-2682.33,257.68,-3877.8100000000004
1378,1.377999,3628,5242992,4348.67,241.68,-4897.81
1379,1.379000,3629,5243993,14585.67,133.68,-5025.81
1380,1.380000,3630,5244993,20568.67,-519.32,-1166.8100000000004
1381,1.381000,3631,5245993,13492.67,272.68,-232.8100000000004
1382,1.382000,3632,5246993,299.67,1127.68,-671.8100000000004
1383,1.383000,3633,5247993,-9371.33,732.68,2663.1899999999996
1384,1.384000,3634,5248993,-8385.33,286.68,4463.19
1385,1.385000,3635,5249993,-1540.33,-452.32,3347.1899999999996
1386,1.386000,3636,5250993,4369.67,-926.32,3838.1899999999996
1387,1.387000,3637,5251993,4297.67,-524.32,3248.1899999999996
1388,1.388000,3638,5252993,-3228.33,115.68,505.1899999999996
1389,1.389000,3639,5253993,-11033.33,-158.32,1472.1899999999996
1390,1.390000,3640,5254993,-21223.33,-1324.32,3398.1899999999996
1391,1.391000,3641,5255993,-21578.33,-639.32,2284.1899999999996
1392,1.392000,3642,5256993,-16809.33,91.68,1569.1899999999996
1393,1.393000,3643,5257993,-6428.33,-335.32,2934.1899999999996
1394,1.394000,3644,5258993,4132.67,260.68,1991.1899999999996
1395,1.394999,3645,5259992,5967.67,-14.32,-47.8100000000004
1396,1.396000,3646,5260993,5486.67,-77.32,-553.8100000000004
1397,1.397000,3647,5261993,3752.67,1031.68,-2239.8100000000004
1398,1.398000,3648,5262993,6555.67,1233.68,-3541.8100000000004
1399,1.399000,3649,5263993,7178.67,118.68,-3135.8100000000004
1400,1.400000,3650,5264993,6309.67,-761.32,-2318.8100000000004
1401,1.401000,3651,5265993,756.67,-131.32,-2952.8100000000004
1402,1.401999,3652,5266992,-3095.33,314.68,-3739.8100000000004
1403,1.403000,3653,5267993,3208.67,212.68,-4664.81
1404,1.404000,3654,5268993,12879.67,167.68,-5211.81
1405,1.405000,3655,5269993,20320.67,-349.32,-1792.8100000000004
1406,1.406000,3656,5270993,15622.67,123.68,-151.8100000000004
1407,1.407000,3657,5271993,1696.67,1000.68,-804.8100000000004
1408,1.408000,3658,5272993,-8688.33,864.68,2241.1899999999996
1409,1.409000,3659,5273993,-8960.33,57.68,4485.19
1410,1.409999,3660,5274992,-2259.33,-363.32,3354.1899999999996
1411,1.411000,3661,5275993,3776.67,-854.32,3671.1899999999996
1412,1.412000,3662,5276993,4043.67,-674.32,3428.1899999999996
1413,1.413000,3663,5277993,-2718.33,128.68,590.1899999999996
1414,1.414000,3664,5278993,-9887.33,-238.32,1042.1899999999996
1415,1.415000,3665,5279993,-19472.33,-1164.32,3540.1899999999996
1416,1.416000,3666,5280993,-21446.33,-585.32,2830.1899999999996
1417,1.417000,3667,5281993,-18037.33,125.68,1364.1899999999996
1418,1.418000,3668,5282993,-8210.33,-277.32,2792.1899999999996
1419,1.419000,3669,5283993,3419.67,102.68,2672.1899999999996
1420,1.420000,3670,5284993,6274.67,9.68,167.1899999999996
1421,1.421000,3671,5285993,5410.67,118.68,-792.8100000000004
1422,1.422000,3672,5286993,3816.67,845.68,-2083.8100000000004
1423,1.422999,3673,5287992,6345.67,929.68,-3376.8100000000004
1424,1.424000,3674,5288993,7203.67,413.68,-3405.8100000000004
1425,1.424999,3675,5289992,6841.67,-692.32,-2459.8100000000004
1426,1.426000,3676,5290993,1355.67,-391.32,-2901.8100000000004
1427,1.427000,3677,5291993,-3754.33,515.68,-3883.8100000000004
1428,1.427999,3678,5292992,2182.67,121.68,-4406.81
1429,1.429000,3679,5293993,12139.67,239.68,-5224.81
1430,1.430000,3680,5294993,20096.67,-286.32,-2155.8100000000004
1431,1.431000,3681,5295993,17111.67,-131.32,-58.8100000000004
1432,1.432000,3682,5296993,2928.67,1059.68,-899.8100000000004
1433,1.433000,3683,5297993,-8518.33,854.68,1874.1899999999996
1434,1.434000,3684,5298993,-9377.33,170.68,4553.19
1435,1.435000,3685,5299993,-3283.33,-210.32,3457.1899999999996
1436,1.436000,3686,5300993,3936.67,-948.32,3660.1899999999996
1437,1.437000,3687,5301993,4500.67,-660.32,3493.1899999999996
1438,1.438000,3688,5302993,-1523.33,14.68,929.1899999999996
1439,1.439000,3689,5303993,-8636.33,-336.32,882.1899999999996
1440,1.440000,3690,5304993,-19259.33,-913.32,2983.1899999999996
1441,1.441000,3691,5305993,-21836.33,-745.32,2871.1899999999996
1442,1.442000,3692,5306993,-19279.33,76.68,1487.1899999999996
1443,1.443000,3693,5307993,-9708.33,-6.32,2551.1899999999996
1444,1.444000,3694,5308993,3284.67,-39.32,2819.1899999999996
1445,1.445000,3695,5309993,6504.67,2.6799999999999997,634.1899999999996
1446,1.446000,3696,5310993,6077.67,81.68,-432.8100000000004
1447,1.447000,3697,5311993,3261.67,732.68,-1884.8100000000004
1448,1.448000,3698,5312993,5202.67,1076.68,-3515.8100000000004
1449,1.449000,3699,5313993,7748.67,368.68,-3354.8100000000004
1450,1.450000,3700,5314993,6886.67,-503.32,-2544.8100000000004
1451,1.451000,3701,5315993,2252.67,-402.32,-2873.8100000000004
1452,1.452000,3702,5316993,-4034.33,431.68,-4020.8100000000004
1453,1.453000,3703,5317993,1429.67,369.68,-4273.81
1454,1.454000,3704,5318993,11589.67,-81.32,-5036.81
1455,1.455000,3705,5319993,19606.67,-225.32,-2672.8100000000004
1456,1.456000,3706,5320993,17521.67,133.68,-108.8100000000004
1457,1.457000,3707,5321993,5460.67,573.68,-550.8100000000004
1458,1.458000,3708,5322993,-7978.33,1117.68,1245.1899999999996
1459,1.459000,3709,5323993,-10175.33,482.68,4153.19
1460,1.460000,3710,5324993,-3040.33,-526.32,3846.1899999999996
1461,1.461000,3711,5325993,2564.67,-609.32,3346.1899999999996
1462,1.462000,3712,5326993,4469.67,-798.32,3771.1899999999996
1463,1.463000,3713,5327993,-754.33,-244.32,1161.1899999999996
1464,1.464000,3714,5328993,-7512.33,-16.32,718.1899999999996
1465,1.465000,3715,5329993,-18060.33,-947.32,3180.1899999999996
1466,1.466000,3716,5330993,-21660.33,-952.32,3005.1899999999996
1467,1.467000,3717,5331993,-19863.33,184.68,1266.1899999999996
1468,1.468000,3718,5332993,-11176.33,-104.32,2362.1899999999996
1469,1.469000,3719,5333993,1570.67,-94.32,3027.1899999999996
1470,1.470000,3720,5334993,6450.67,163.68,633.1899999999996
1471,1.471000,3721,5335993,6571.67,-86.32,-425.8100000000004
1472,1.472000,3722,5336993,3091.67,775.68,-1725.8100000000004
1473,1.473000,3723,5337993,5561.67,1103.68,-3111.8100000000004
1474,1.474000,3724,5338993,7841.67,488.68,-3328.8100000000004
1475,1.475000,3725,5339993,7321.67,-374.32,-2899.8100000000004
1476,1.476000,3726,5340993,2927.67,-441.32,-2698.8100000000004
1477,1.477000,3727,5341993,-4406.33,319.68,-3687.8100000000004
1478,1.478000,3728,5342993,775.67,160.68,-4068.8100000000004
1479,1.479000,3729,5343993,10308.67,84.68,-5165.81
1480,1.480000,3730,5344993,18508.67,-58.32,-3173.8100000000004
1481,1.481000,3731,5345993,18368.67,-180.32,-107.8100000000004
1482,1.482000,3732,5346993,6422.67,564.68,-731.8100000000004
1483,1.483000,3733,5347993,-6344.33,1016.68,804.1899999999996
1484,1.484000,3734,5348993,-10013.33,453.68,4171.19
1485,1.485000,3735,5349993,-4743.33,-92.32,3935.1899999999996
1486,1.486000,3736,5350993,1840.67,-808.32,3128.1899999999996
1487,1.487000,3737,5351993,5041.67,-755.32,3758.1899999999996
1488,1.488000,3738,5352993,385.67,-119.32,1779.1899999999996
1489,1.489000,3739,5353993,-5387.33,-234.32,849.1899999999996
1490,1.490000,3740,5354993,-17105.33,-550.32,2496.1899999999996
1491,1.491000,3741,5355993,-23166.33,-915.32,2826.1899999999996
1492,1.492000,3742,5356993,-18847.33,-290.32,1947.1899999999996
1493,1.493000,3743,5357993,-12043.33,-10.32,2247.1899999999996
1494,1.494000,3744,5358993,-358.33,-2.3200000000000003,2708.1899999999996
1495,1.495000,3745,5359993,6552.67,-245.32,1070.1899999999996
1496,1.496000,3746,5360993,6209.67,-84.32,-327.8100000000004
1497,1.497000,3747,5361993,3039.67,834.68,-1710.8100000000004
1498,1.498000,3748,5362993,4194.67,1037.68,-3236.8100000000004
1499,1.499000,3749,5363993,7781.67,700.68,-3457.8100000000004
1500,1.500000,3750,5364993,8321.67,-383.32,-2554.8100000000004
1501,1.501000,3751,5365993,3297.67,-626.32,-2426.8100000000004
1502,1.502000,3752,5366993,-3940.33,257.68,-3574.8100000000004
1503,1.503000,3753,5367993,-328.33,185.68,-3781.8100000000004
1504,1.504000,3754,5368993,8836.67,138.68,-4908.81
1505,1.505000,3755,5369993,16642.67,244.68,-4041.8100000000004
1506,1.506000,3756,5370993,19408.67,-109.32,-454.8100000000004
1507,1.507000,3757,5371993,9342.67,362.68,-220.8100000000004
1508,1.508000,3758,5372993,-3977.33,989.68,545.1899999999996
1509,1.509000,3759,5373993,-9537.33,526.68,3672.1899999999996
1510,1.510000,3760,5374993,-6660.33,-177.32,3913.1899999999996
1511,1.511000,3761,5375993,-88.33,-523.32,3243.1899999999996
1512,1.512000,3762,5376993,5056.67,-1075.32,3796.1899999999996
1513,1.513000,3763,5377993,1894.67,-164.32,1635.1899999999996
1514,1.514000,3764,5378993,-4111.33,118.68,82.1899999999996
1515,1.515000,3765,5379993,-14812.33,-872.32,2477.1899999999996
1516,1.516000,3766,5380993,-23256.33,-849.32,3203.1899999999996
1517,1.517000,3767,5381993,-20129.33,-166.32,1866.1899999999996
1518,1.518000,3768,5382993,-13163.33,-167.32,2171.1899999999996
1519,1.519000,3769,5383993,-2585.33,90.68,3028.1899999999996
1520,1.520000,3770,5384993,5701.67,-96.32,1562.1899999999996
1521,1.521000,3771,5385993,7105.67,-218.32,-199.8100000000004
1522,1.522000,3772,5386993,3621.67,819.68,-1298.8100000000004
1523,1.523000,3773,5387993,4094.67,899.68,-2667.8100000000004
1524,1.524000,3774,5388993,6847.67,813.68,-3455.8100000000004
1525,1.525000,3775,5389993,7769.67,-226.32,-3075.8100000000004
1526,1.526000,3776,5390993,4422.67,-619.32,-2509.8100000000004
1527,1.527000,3777,5391993,-3023.33,61.68,-3131.8100000000004
1528,1.528000,3778,5392993,-1115.33,99.68,-3959.8100000000004
1529,1.529000,3779,5393993,7404.67,480.68,-5448.81
1530,1.530000,3780,5394993,16259.67,10.68,-4253.81
1531,1.531000,3781,5395993,19694.67,-355.32,-308.8100000000004
1532,1.531999,3782,5396992,10914.67,528.68,-273.8100000000004
1533,1.532999,3783,5397992,-2231.33,898.68,-166.8100000000004
1534,1.534000,3784,5398993,-10020.33,797.68,3513.1899999999996
1535,1.534999,3785,5399992,-6952.33,-134.32,4474.19
1536,1.536000,3786,5400993,-322.33,-312.32,3065.1899999999996
1537,1.537000,3787,5401993,4373.67,-732.32,3641.1899999999996
1538,1.538000,3788,5402993,3910.67,-1074.32,2654.1899999999996
1539,1.539000,3789,5403993,-3239.33,368.68,174.1899999999996
1540,1.540000,3790,5404993,-14763.33,-295.32,1838.1899999999996
1541,1.541000,3791,5405993,-23148.33,-1441.32,3355.1899999999996
1542,1.542000,3792,5406993,-20995.33,-35.32,1588.1899999999996
1543,1.543000,3793,5407993,-14641.33,-104.32,1730.1899999999996
1544,1.544000,3794,5408993,-3181.33,-504.32,3278.1899999999996
1545,1.545000,3795,5409993,4993.67,381.68,1725.1899999999996
1546,1.546000,3796,5410993,6800.67,-123.32,269.1899999999996
1547,1.547000,3797,5411993,4412.67,264.68,-707.8100000000004
1548,1.547999,3798,5412992,3916.67,1285.68,-2918.8100000000004
1549,1.549000,3799,5413993,7616.67,662.68,-3331.8100000000004
1550,1.550000,3800,5414993,7132.67,19.68,-2873.8100000000004
1551,1.550999,3801,5415992,5030.67,-449.32,-2743.8100000000004
1552,1.552000,3802,5416993,-1499.33,-332.32,-3494.8100000000004
1553,1.553000,3803,5417993,-2507.33,319.68,-3872.8100000000004
1554,1.554000,3804,5418993,6097.67,135.68,-4753.81
1555,1.555000,3805,5419993,15330.67,159.68,-4764.81
1556,1.555999,3806,5420992,19720.67,-165.32,-943.8100000000004
1557,1.556999,3807,5421992,12899.67,37.68,-61.8100000000004
1558,1.558000,3808,5422993,-709.33,1231.68,-647.8100000000004
1559,1.559000,3809,5423993,-9465.33,906.68,3033.1899999999996
1560,1.560000,3810,5424993,-8081.33,-268.32,4474.19
1561,1.561000,3811,5425993,-1190.33,-278.32,3069.1899999999996
1562,1.562000,3812,5426993,5075.67,-822.32,3755.1899999999996
1563,1.563000,3813,5427993,3119.67,-720.32,2748.1899999999996
1564,1.564000,3814,5428993,-4056.33,334.68,457.1899999999996
1565,1.565000,3815,5429993,-11469.33,-590.32,1803.1899999999996
1566,1.566000,3816,5430993,-22441.33,-1023.32,3369.1899999999996
1567,1.567000,3817,5431993,-20908.33,-423.32,2602.1899999999996
1568,1.568000,3818,5432993,-14922.33,-438.32,1626.1899999999996
1569,1.569000,3819,5433993,-6012.33,-70.32,2638.1899999999996
1570,1.569999,3820,5434992,3847.67,260.68,2184.1899999999996
1571,1.571000,3821,5435993,6049.67,-4.32,-77.8100000000004
1572,1.572000,3822,5436993,5252.67,351.68,-993.8100000000004
1573,1.573000,3823,5437993,4115.67,821.68,-2481.8100000000004
1574,1.574000,3824,5438993,7318.67,863.68,-3515.8100000000004
1575,1.575000,3825,5439993,7420.67,258.68,-3051.8100000000004
1576,1.576000,3826,5440993,5745.67,-637.32,-2217.8100000000004
1577,1.577000,3827,5441993,-417.33,-104.32,-3212.8100000000004
1578,1.578000,3828,5442993,-2967.33,247.68,-3950.8100000000004
1579,1.579000,3829,5443993,4382.67,177.68,-4495.81
1580,1.580000,3830,5444993,14244.67,234.68,-4809.81
1581,1.581000,3831,5445993,19918.67,-312.32,-1480.8100000000004
1582,1.582000,3832,5446993,14331.67,123.68,-171.8100000000004
1583,1.583000,3833,5447993,528.67,854.68,-715.8100000000004
1584,1.584000,3834,5448993,-9217.33,940.68,2362.1899999999996
1585,1.585000,3835,5449993,-8555.33,152.68,4532.19
1586,1.585999,3836,5450992,-2040.33,-492.32,3278.1899999999996
1587,1.587000,3837,5451993,4434.67,-795.32,3474.1899999999996
1588,1.588000,3838,5452993,4027.67,-788.32,3158.1899999999996
1589,1.589000,3839,5453993,-2868.33,68.68,639.1899999999996
1590,1.590000,3840,5454993,-10854.33,-67.32,1446.1899999999996
1591,1.591000,3841,5455993,-21097.33,-1192.32,3338.1899999999996
1592,1.592000,3842,5456993,-21816.33,-578.32,2256.1899999999996
1593,1.593000,3843,5457993,-16775.33,134.68,1708.1899999999996
1594,1.594000,3844,5458993,-6484.33,-370.32,3225.1899999999996
1595,1.595000,3845,5459993,4193.67,325.68,2239.1899999999996
1596,1.596000,3846,5460993,6273.67,99.68,74.1899999999996
1597,1.597000,3847,5461993,5316.67,-133.32,-536.8100000000004
1598,1.598000,3848,5462993,3626.67,924.68,-2278.8100000000004
1599,1.598999,3849,5463992,6157.67,1122.68,-3741.8100000000004
1600,1.600000,3850,5464993,7353.67,259.68,-3291.8100000000004
1601,1.600999,3851,5465992,6381.67,-677.32,-2349.8100000000004
1602,1.602000,3852,5466993,1037.67,-383.32,-3087.8100000000004
1603,1.603000,3853,5467993,-3617.33,375.68,-3997.8100000000004
1604,1.604000,3854,5468993,2820.67,304.68,-4507.81
1605,1.605000,3855,5469993,13089.67,93.68,-5026.81
1606,1.606000,3856,5470993,19868.67,-118.32,-1976.8100000000004
1607,1.607000,3857,5471993,16232.67,53.68,42.1899999999996
1608,1.608000,3858,5472993,2287.67,795.68,-543.8100000000004
1609,1.608999,3859,5473992,-8654.33,1120.68,2205.1899999999996
1610,1.610000,3860,5474993,-8723.33,12.68,4756.19
1611,1.611000,3861,5475993,-2806.33,-506.32,3370.1899999999996
1612,1.612000,3862,5476993,3617.67,-720.32,3532.1899999999996
1613,1.613000,3863,5477993,4103.67,-863.32,3331.1899999999996
1614,1.614000,3864,5478993,-2628.33,120.68,529.1899999999996
1615,1.615000,3865,5479993,-9494.33,-152.32,1153.1899999999996
1616,1.616000,3866,5480993,-19348.33,-1425.32,3201.1899999999996
1617,1.617000,3867,5481993,-21832.33,-595.32,2488.1899999999996
1618,1.618000,3868,5482993,-18703.33,188.68,1505.1899999999996
1619,1.619000,3869,5483993,-8503.33,-246.32,2791.1899999999996
1620,1.620000,3870,5484993,3541.67,334.68,2555.1899999999996
1621,1.621000,3871,5485993,6661.67,-74.32,453.1899999999996
1622,1.622000,3872,5486993,6162.67,-21.32,-400.8100000000004
1623,1.623000,3873,5487993,3615.67,1034.68,-1912.8100000000004
1624,1.624000,3874,5488993,6208.67,867.68,-3470.8100000000004
1625,1.625000,3875,5489993,7264.67,420.68,-3472.8100000000004
1626,1.626000,3876,5490993,6563.67,-564.32,-2356.8100000000004
1627,1.627000,3877,5491993,1617.67,-668.32,-2850.8100000000004
1628,1.628000,3878,5492993,-4292.33,663.68,-4027.8100000000004
1629,1.629000,3879,5493993,2209.67,237.68,-4627.81
1630,1.630000,3880,5494993,12210.67,-89.32,-5431.81
1631,1.631000,3881,5495993,19977.67,-155.32,-2080.8100000000004
1632,1.632000,3882,5496993,17178.67,-123.32,30.1899999999996
1633,1.633000,3883,5497993,3137.67,1047.68,-1134.8100000000004
1634,1.634000,3884,5498993,-8588.33,1050.68,1909.1899999999996
1635,1.635000,3885,5499993,-9242.33,149.68,4704.19
1636,1.636000,3886,5500993,-2495.33,-174.32,3351.1899999999996
1637,1.637000,3887,5501993,3676.67,-847.32,3747.1899999999996
1638,1.638000,3888,5502993,4768.67,-798.32,3791.1899999999996
1639,1.639000,3889,5503993,-2080.33,174.68,792.1899999999996
1640,1.640000,3890,5504993,-9057.33,-258.32,1042.1899999999996
1641,1.641000,3891,5505993,-19027.33,-1266.32,3255.1899999999996
1642,1.642000,3892,5506993,-21816.33,-710.32,2675.1899999999996
1643,1.643000,3893,5507993,-19256.33,32.68,1356.1899999999996
1644,1.644000,3894,5508993,-9875.33,-239.32,2335.1899999999996
1645,1.645000,3895,5509993,2725.67,115.68,2514.1899999999996
1646,1.646000,3896,5510993,6020.67,41.68,523.1899999999996
1647,1.647000,3897,5511993,6200.67,17.68,-441.8100000000004
1648,1.648000,3898,5512993,3475.67,940.68,-1852.8100000000004
1649,1.649000,3899,5513993,6113.67,1086.68,-3160.8100000000004
1650,1.650000,3900,5514993,8051.67,371.68,-3112.8100000000004
1651,1.651000,3901,5515993,7154.67,-483.32,-2478.8100000000004
1652,1.652000,3902,5516993,2075.67,-334.32,-2798.8100000000004
1653,1.653000,3903,5517993,-4376.33,379.68,-3893.8100000000004
1654,1.654000,3904,5518993,1639.67,180.68,-4374.81
1655,1.655000,3905,5519993,11365.67,96.68,-5423.81
1656,1.656000,3906,5520993,19898.67,-233.32,-2675.8100000000004
1657,1.657000,3907,5521993,17783.67,-107.32,-48.8100000000004
1658,1.658000,3908,5522993,4239.67,710.68,-1086.8100000000004
1659,1.659000,3909,5523993,-7452.33,943.68,1451.1899999999996
1660,1.660000,3910,5524993,-9796.33,374.68,4492.19
1661,1.661000,3911,5525993,-3353.33,-366.32,3627.1899999999996
1662,1.662000,3912,5526993,2354.67,-724.32,3304.1899999999996
1663,1.663000,3913,5527993,4650.67,-690.32,3678.1899999999996
1664,1.663999,3914,5528992,-640.33,-96.32,1234.1899999999996
1665,1.665000,3915,5529993,-8371.33,-55.32,921.1899999999996
1666,1.665999,3916,5530992,-17456.33,-1015.32,3374.1899999999996
1667,1.667000,3917,5531993,-22004.33,-771.32,2895.1899999999996
1668,1.668000,3918,5532993,-20074.33,194.68,1648.1899999999996
1669,1.669000,3919,5533993,-10613.33,-227.32,2742.1899999999996
1670,1.670000,3920,5534993,1695.67,35.68,2767.1899999999996
1671,1.671000,3921,5535993,6403.67,79.68,526.1899999999996
1672,1.672000,3922,5536993,6311.67,-230.32,-462.8100000000004
1673,1.673000,3923,5537993,3297.67,842.68,-1946.8100000000004
1674,1.674000,3924,5538993,5513.67,1117.68,-3384.8100000000004
1675,1.675000,3925,5539993,7806.67,299.68,-3385.8100000000004
1676,1.676000,3926,5540993,7430.67,-378.32,-2771.8100000000004
1677,1.677000,3927,5541993,2440.67,-436.32,-2606.8100000000004
1678,1.678000,3928,5542993,-4244.33,218.68,-3745.8100000000004
1679,1.679000,3929,5543993,1143.67,305.68,-4331.81
1680,1.680000,3930,5544993,10749.67,196.68,-5184.81
1681,1.681000,3931,5545993,19047.67,-122.32,-2893.8100000000004
1682,1.682000,3932,5546993,18284.67,-128.32,-191.8100000000004
1683,1.683000,3933,5547993,6035.67,649.68,-892.8100000000004
1684,1.684000,3934,5548993,-6843.33,1002.68,1422.1899999999996
1685,1.684999,3935,5549992,-9969.33,340.68,4600.19
1686,1.686000,3936,5550993,-3914.33,-168.32,3609.1899999999996
1687,1.687000,3937,5551993,1882.67,-708.32,3232.1899999999996
1688,1.687999,3938,5552992,4852.67,-990.32,3886.1899999999996
1689,1.688999,3939,5553992,105.67,-108.32,1263.1899999999996
1690,1.690000,3940,5554993,-6773.33,-103.32,574.1899999999996
1691,1.691000,3941,5555993,-17187.33,-1016.32,2901.1899999999996
1692,1.692000,3942,5556993,-22905.33,-810.32,2725.1899999999996
1693,1.693000,3943,5557993,-20511.33,142.68,1409.1899999999996
1694,1.694000,3944,5558993,-12047.33,-137.32,2531.1899999999996
1695,1.695000,3945,5559993,1021.67,1.6799999999999997,3112.1899999999996
1696,1.696000,3946,5560993,6850.67,13.68,925.1899999999996
1697,1.697000,3947,5561993,7090.67,-142.32,-132.8100000000004
1698,1.698000,3948,5562993,3323.67,786.68,-1446.8100000000004
1699,1.699000,3949,5563993,4633.67,1197.68,-3256.8100000000004
1700,1.699999,3950,5564992,7846.67,532.68,-3446.8100000000004
1701,1.701000,3951,5565993,7606.67,-504.32,-2670.8100000000004
1702,1.702000,3952,5566993,2906.67,-427.32,-2649.8100000000004
1703,1.703000,3953,5567993,-4404.33,194.68,-3782.8100000000004
1704,1.704000,3954,5568993,675.67,90.68,-4255.81
1705,1.704999,3955,5569992,10120.67,235.68,-5434.81
1706,1.706000,3956,5570993,18084.67,-44.32,-3495.8100000000004
1707,1.707000,3957,5571993,19063.67,-241.32,-248.8100000000004
1708,1.708000,3958,5572993,7101.67,635.68,-958.8100000000004
1709,1.709000,3959,5573993,-5551.33,1043.68,813.1899999999996
1710,1.710000,3960,5574993,-9396.33,403.68,4595.19
1711,1.711000,3961,5575993,-5110.33,-111.32,3924.1899999999996
1712,1.712000,3962,5576993,1405.67,-590.32,3171.1899999999996
1713,1.713000,3963,5577993,4912.67,-991.32,3936.1899999999996
1714,1.714000,3964,5578993,445.67,-131.32,1697.1899999999996
1715,1.715000,3965,5579993,-5440.33,-35.32,489.1899999999996
1716,1.716000,3966,5580993,-16587.33,-760.32,2573.1899999999996
1717,1.717000,3967,5581993,-23376.33,-945.32,3101.1899999999996
1718,1.717999,3968,5582992,-19752.33,-176.32,1659.1899999999996
1719,1.719000,3969,5583993,-13125.33,22.68,2058.1899999999996
1720,1.720000,3970,5584993,-1113.33,-36.32,3024.1899999999996
1721,1.720999,3971,5585992,6172.67,-38.32,1237.1899999999996
1722,1.722000,3972,5586993,7234.67,-133.32,-333.8100000000004
1723,1.722999,3973,5587992,4079.67,663.68,-1347.8100000000004
1724,1.724000,3974,5588993,4571.67,1208.68,-2945.8100000000004
1725,1.724999,3975,5589992,8170.67,629.68,-3385.8100000000004
1726,1.726000,3976,5590993,7624.67,-403.32,-2827.8100000000004
1727,1.727000,3977,5591993,3323.67,-380.32,-2653.8100000000004
1728,1.728000,3978,5592993,-4394.33,121.68,-3612.8100000000004
1729,1.729000,3979,5593993,52.67,-35.32,-3998.8100000000004
1730,1.730000,3980,5594993,9254.67,450.68,-5406.81
1731,1.731000,3981,5595993,17680.67,-88.32,-3839.8100000000004
1732,1.732000,3982,5596993,19877.67,-463.32,-212.8100000000004
1733,1.733000,3983,5597993,7929.67,724.68,-838.8100000000004
1734,1.734000,3984,5598993,-4904.33,1066.68,270.1899999999996
1735,1.735000,3985,5599993,-9724.33,394.68,4055.1899999999996
1736,1.736000,3986,5600993,-5819.33,-12.32,4054.1899999999996
1737,1.737000,3987,5601993,1220.67,-422.32,3174.1899999999996
1738,1.738000,3988,5602993,5255.67,-1264.32,4140.19
1739,1.739000,3989,5603993,1577.67,-206.32,2117.1899999999996
1740,1.740000,3990,5604993,-4620.33,152.68,449.1899999999996
1741,1.740999,3991,5605992,-16442.33,-624.32,2348.1899999999996
1742,1.742000,3992,5606993,-23935.33,-982.32,3045.1899999999996
1743,1.742999,3993,5607992,-19905.33,-308.32,1820.1899999999996
1744,1.744000,3994,5608993,-13169.33,-21.32,2175.1899999999996
1745,1.745000,3995,5609993,-1777.33,-120.32,3215.1899999999996
1746,1.746000,3996,5610993,5877.67,10.68,1204.1899999999996
1747,1.747000,3997,5611993,6661.67,-94.32,-372.8100000000004
1748,1.748000,3998,5612993,4215.67,520.68,-1083.8100000000004
1749,1.749000,3999,5613993,4242.67,1050.68,-2967.8100000000004
1750,1.750000,4000,5614993,7336.67,1015.68,-3606.8100000000004
1751,1.751000,4001,5615993,7939.67,-392.32,-2729.8100000000004
1752,1.752000,4002,5616993,4289.67,-715.32,-2469.8100000000004
1753,1.753000,4003,5617993,-3269.33,284.68,-3585.8100000000004
1754,1.754000,4004,5618993,-757.33,65.68,-3891.8100000000004
1755,1.755000,4005,5619993,8313.67,210.68,-5121.81
1756,1.756000,4006,5620993,16442.67,194.68,-4219.81
1757,1.757000,4007,5621993,19648.67,-260.32,-633.8100000000004
1758,1.758000,4008,5622993,10396.67,346.68,-417.8100000000004
1759,1.758999,4009,5623992,-3527.33,1047.68,52.1899999999996
1760,1.760000,4010,5624993,-9737.33,594.68,3531.1899999999996
1761,1.761000,4011,5625993,-6829.33,-73.32,4152.19
1762,1.762000,4012,5626993,37.67,-604.32,3194.1899999999996
1763,1.763000,4013,5627993,5134.67,-944.32,3987.1899999999996
1764,1.764000,4014,5628993,2178.67,-294.32,2333.1899999999996
1765,1.765000,4015,5629993,-4018.33,120.68,245.1899999999996
1766,1.766000,4016,5630993,-14622.33,-390.32,2067.1899999999996
1767,1.767000,4017,5631993,-23606.33,-1144.32,3501.1899999999996
1768,1.768000,4018,5632993,-20219.33,-442.32,2097.1899999999996
1769,1.769000,4019,5633993,-13777.33,32.68,1916.1899999999996
1770,1.770000,4020,5634993,-3452.33,-104.32,3194.1899999999996
1771,1.771000,4021,5635993,5059.67,94.68,1611.1899999999996
1772,1.772000,4022,5636993,7060.67,-168.32,-360.8100000000004
1773,1.773000,4023,5637993,4299.67,426.68,-1297.8100000000004
1774,1.774000,4024,5638993,4303.67,1131.68,-2654.8100000000004
1775,1.775000,4025,5639993,7549.67,730.68,-3426.8100000000004
1776,1.775999,4026,5640992,7207.67,-28.32,-3250.8100000000004
1777,1.777000,4027,5641993,5066.67,-645.32,-2291.8100000000004
1778,1.777999,4028,5642992,-2933.33,-191.32,-3220.8100000000004
1779,1.778999,4029,5643992,-1210.33,374.68,-4026.8100000000004
1780,1.780000,4030,5644993,7254.67,229.68,-5074.81
1781,1.781000,4031,5645993,15836.67,68.68,-4495.81
1782,1.782000,4032,5646993,20371.67,-198.32,-680.8100000000004
1783,1.783000,4033,5647993,11095.67,283.68,-451.8100000000004
1784,1.784000,4034,5648993,-2220.33,1061.68,-395.8100000000004
1785,1.785000,4035,5649993,-10143.33,628.68,3343.1899999999996
1786,1.786000,4036,5650993,-6925.33,-165.32,4486.19
1787,1.787000,4037,5651993,-908.33,-185.32,2914.1899999999996
1788,1.788000,4038,5652993,5149.67,-1054.32,4011.1899999999996
1789,1.788999,4039,5653992,3632.67,-708.32,2789.1899999999996
1790,1.790000,4040,5654993,-4336.33,729.68,-145.8100000000004
1791,1.790999,4041,5655992,-12837.33,-601.32,2266.1899999999996
1792,1.792000,4042,5656993,-23392.33,-1361.32,3472.1899999999996
1793,1.793000,4043,5657993,-21315.33,76.68,1716.1899999999996
1794,1.794000,4044,5658993,-14231.33,-367.32,2157.1899999999996
1795,1.795000,4045,5659993,-4116.33,-113.32,3280.1899999999996
1796,1.796000,4046,5660993,4811.67,373.68,1726.1899999999996
1797,1.797000,4047,5661993,6617.67,-441.32,-29.8100000000004
1798,1.798000,4048,5662993,4616.67,399.68,-944.8100000000004
1799,1.799000,4049,5663993,3901.67,1056.68,-2672.8100000000004
1800,1.800000,4050,5664993,7049.67,876.68,-3691.8100000000004
1801,1.801000,4051,5665993,7072.67,-9.32,-3279.8100000000004
1802,1.801999,4052,5666992,5254.67,-755.32,-2421.8100000000004
1803,1.803000,4053,5667993,-1223.33,-192.32,-3259.8100000000004
1804,1.804000,4054,5668993,-2459.33,412.68,-3961.8100000000004
1805,1.805000,4055,5669993,5816.67,222.68,-4900.81
1806,1.806000,4056,5670993,15112.67,95.68,-4937.81
1807,1.807000,4057,5671993,20077.67,-126.32,-966.8100000000004
1808,1.808000,4058,5672993,13764.67,-9.32,165.1899999999996
1809,1.809000,4059,5673993,-1032.33,1417.68,-683.8100000000004
1810,1.810000,4060,5674993,-9432.33,745.68,3086.1899999999996
1811,1.811000,4061,5675993,-7941.33,-506.32,4481.19
1812,1.812000,4062,5676993,-1969.33,191.68,2998.1899999999996
1813,1.813000,4063,5677993,5310.67,-1116.32,4076.1899999999996
1814,1.813999,4064,5678992,3583.67,-827.32,2777.1899999999996
1815,1.815000,4065,5679993,-3977.33,637.68,125.1899999999996
1816,1.816000,4066,5680993,-11128.33,-716.32,1773.1899999999996
1817,1.817000,4067,5681993,-22390.33,-1044.32,3523.1899999999996
1818,1.818000,4068,5682993,-21529.33,-338.32,2380.1899999999996
1819,1.819000,4069,5683993,-15672.33,-290.32,1504.1899999999996
1820,1.820000,4070,5684993,-6266.33,25.68,2800.1899999999996
1821,1.821000,4071,5685993,4748.67,125.68,2455.1899999999996
1822,1.822000,4072,5686993,6296.67,17.68,1.1899999999995998
1823,1.822999,4073,5687992,5321.67,318.68,-817.8100000000004
1824,1.824000,4074,5688993,4335.67,742.68,-2429.8100000000004
1825,1.825000,4075,5689993,6640.67,1086.68,-3763.8100000000004
1826,1.826000,4076,5690993,6833.67,96.68,-3056.8100000000004
1827,1.827000,4077,5691993,5811.67,-655.32,-2397.8100000000004
1828,1.828000,4078,5692993,-147.32999999999998,-122.32,-3257.8100000000004
1829,1.829000,4079,5693993,-2777.33,145.68,-3938.8100000000004
1830,1.830000,4080,5694993,4239.67,329.68,-4860.81
1831,1.831000,4081,5695993,14732.67,-29.32,-4885.81
1832,1.832000,4082,5696993,20281.67,-305.32,-1241.8100000000004
1833,1.833000,4083,5697993,13525.67,434.68,-229.8100000000004
1834,1.833999,4084,5698992,642.67,780.68,-741.8100000000004
1835,1.835000,4085,5699993,-9165.33,690.68,2377.1899999999996
1836,1.836000,4086,5700993,-8798.33,629.68,4410.19
1837,1.837000,4087,5701993,-1223.33,-683.32,3704.1899999999996
1838,1.838000,4088,5702993,4831.67,-1131.32,3668.1899999999996
1839,1.839000,4089,5703993,3473.67,-86.32,2997.1899999999996
1840,1.839999,4090,5704992,-3074.33,-234.32,782.1899999999996
1841,1.841000,4091,5705993,-10695.33,-235.32,1380.1899999999996
1842,1.842000,4092,5706993,-20752.33,-861.32,3383.1899999999996
1843,1.843000,4093,5707993,-21652.33,-929.32,2449.1899999999996
1844,1.844000,4094,5708993,-16943.33,35.68,1513.1899999999996
1845,1.845000,4095,5709993,-6829.33,-171.32,2962.1899999999996
1846,1.846000,4096,5710993,3656.67,250.68,2213.1899999999996
1847,1.847000,4097,5711993,6358.67,50.68,79.1899999999996
1848,1.847999,4098,5712992,5492.67,-105.32,-749.8100000000004
1849,1.849000,4099,5713993,3726.67,945.68,-2339.8100000000004
1850,1.850000,4100,5714993,6123.67,1126.68,-3459.8100000000004
1851,1.851000,4101,5715993,7303.67,237.68,-3269.8100000000004
1852,1.852000,4102,5716993,6597.67,-562.32,-2527.8100000000004
1853,1.853000,4103,5717993,1122.67,-403.32,-2906.8100000000004
1854,1.854000,4104,5718993,-3460.33,312.68,-3800.8100000000004
1855,1.855000,4105,5719993,2639.67,414.68,-4476.81
1856,1.856000,4106,5720993,12993.67,-18.32,-4974.81
1857,1.857000,4107,5721993,19892.67,-235.32,-2172.8100000000004
1858,1.858000,4108,5722993,15815.67,139.68,-101.8100000000004
1859,1.859000,4109,5723993,2618.67,770.68,-503.8100000000004
1860,1.860000,4110,5724993,-8819.33,1109.68,1968.1899999999996
1861,1.861000,4111,5725993,-8845.33,115.68,4574.19
1862,1.862000,4112,5726993,-2516.33,-528.32,3610.1899999999996
1863,1.863000,4113,5727993,3066.67,-581.32,3456.1899999999996
1864,1.864000,4114,5728993,4676.67,-885.32,3464.1899999999996
1865,1.865000,4115,5729993,-2561.33,159.68,671.1899999999996
1866,1.866000,4116,5730993,-9353.33,19.68,986.1899999999996
1867,1.867000,4117,5731993,-18130.33,-1658.32,3616.1899999999996
1868,1.868000,4118,5732993,-21884.33,-683.32,2607.1899999999996
1869,1.869000,4119,5733993,-18954.33,373.68,1324.1899999999996
1870,1.870000,4120,5734993,-8609.33,-333.32,2816.1899999999996
1871,1.871000,4121,5735993,3005.67,306.68,2510.1899999999996
1872,1.872000,4122,5736993,6396.67,-66.32,252.1899999999996
1873,1.873000,4123,5737993,5799.67,-119.32,-781.8100000000004
1874,1.874000,4124,5738993,3579.67,1026.68,-1777.8100000000004
1875,1.875000,4125,5739993,5790.67,896.68,-3231.8100000000004
1876,1.876000,4126,5740993,7324.67,567.68,-3638.8100000000004
1877,1.877000,4127,5741993,6767.67,-696.32,-2435.8100000000004
1878,1.878000,4128,5742993,1888.67,-511.32,-2661.8100000000004
1879,1.879000,4129,5743993,-3529.33,607.68,-3832.8100000000004
1880,1.880000,4130,5744993,1880.67,98.68,-4299.81
1881,1.881000,4131,5745993,11606.67,183.68,-5231.81
1882,1.882000,4132,5746993,19124.67,-215.32,-2613.8100000000004
1883,1.883000,4133,5747993,17303.67,-169.32,54.1899999999996
1884,1.884000,4134,5748993,4037.67,884.68,-538.8100000000004
1885,1.885000,4135,5749993,-7986.33,1079.68,1505.1899999999996
1886,1.886000,4136,5750993,-8981.33,103.68,4424.19
1887,1.887000,4137,5751993,-3772.33,-304.32,3640.1899999999996
1888,1.888000,4138,5752993,3005.67,-555.32,3410.1899999999996
1889,1.889000,4139,5753993,4920.67,-844.32,3561.1899999999996
1890,1.890000,4140,5754993,-1131.33,-67.32,1039.1899999999996
1891,1.891000,4141,5755993,-7956.33,-191.32,990.1899999999996
1892,1.892000,4142,5756993,-18161.33,-1229.32,2951.1899999999996
1893,1.892999,4143,5757992,-21905.33,-688.32,2659.1899999999996
1894,1.894000,4144,5758993,-19447.33,293.68,1534.1899999999996
1895,1.895000,4145,5759993,-10264.33,-270.32,2428.1899999999996
1896,1.896000,4146,5760993,2223.67,-34.32,2584.1899999999996
1897,1.897000,4147,5761993,6436.67,-96.32,659.1899999999996
1898,1.898000,4148,5762993,5904.67,21.68,-375.8100000000004
1899,1.899000,4149,5763993,3279.67,1035.68,-1639.8100000000004
1900,1.900000,4150,5764993,5033.67,1002.68,-3305.8100000000004
1901,1.901000,4151,5765993,8090.67,385.68,-3455.8100000000004
1902,1.902000,4152,5766993,7227.67,-420.32,-2313.8100000000004
1903,1.903000,4153,5767993,2505.67,-400.32,-2523.8100000000004
1904,1.903999,4154,5768992,-4062.33,296.68,-4103.81
1905,1.905000,4155,5769993,755.67,170.68,-4252.81
1906,1.906000,4156,5770993,10784.67,83.68,-4833.81
1907,1.907000,4157,5771993,18395.67,-26.32,-3231.8100000000004
1908,1.908000,4158,5772993,18330.67,-37.32,-183.8100000000004
1909,1.909000,4159,5773993,6002.67,532.68,-587.8100000000004
1910,1.910000,4160,5774993,-6391.33,1055.68,1018.1899999999996
1911,1.911000,4161,5775993,-9619.33,325.68,4413.19
1912,1.912000,4162,5776993,-4680.33,-337.32,3907.1899999999996
1913,1.913000,4163,5777993,1889.67,-574.32,3273.1899999999996
1914,1.914000,4164,5778993,4588.67,-845.32,3565.1899999999996
1915,1.915000,4165,5779993,52.67,-129.32,1322.1899999999996
1916,1.916000,4166,5780993,-5928.33,-241.32,695.1899999999996
1917,1.917000,4167,5781993,-16952.33,-687.32,2721.1899999999996
1918,1.918000,4168,5782993,-22513.33,-882.32,2994.1899999999996
1919,1.919000,4169,5783993,-19141.33,-182.32,1668.1899999999996
1920,1.920000,4170,5784993,-12099.33,85.68,2134.1899999999996
1921,1.921000,4171,5785993,-89.33,-35.32,2998.1899999999996
1922,1.922000,4172,5786993,6324.67,-98.32,1038.1899999999996
1923,1.922999,4173,5787992,6696.67,12.68,-499.8100000000004
1924,1.924000,4174,5788993,3646.67,734.68,-1472.8100000000004
1925,1.925000,4175,5789993,4758.67,895.68,-2991.8100000000004
1926,1.926000,4176,5790993,7553.67,710.68,-3508.8100000000004
1927,1.927000,4177,5791993,7167.67,-301.32,-2690.8100000000004
1928,1.928000,4178,5792993,2933.67,-500.32,-2572.8100000000004
1929,1.929000,4179,5793993,-3939.33,286.68,-3823.8100000000004
1930,1.930000,4180,5794993,682.67,14.68,-3909.8100000000004
1931,1.930999,4181,5795992,9934.67,190.68,-4952.81
1932,1.932000,4182,5796993,16984.67,325.68,-3733.8100000000004
1933,1.933000,4183,5797993,18924.67,-399.32,-324.8100000000004
1934,1.934000,4184,5798993,8263.67,382.68,-428.8100000000004
1935,1.935000,4185,5799993,-5468.33,1315.68,500.1899999999996
1936,1.935999,4186,5800992,-9136.33,218.68,4022.1899999999996
1937,1.937000,4187,5801993,-6145.33,-104.32,3819.1899999999996
1938,1.938000,4188,5802993,932.67,-371.32,3117.1899999999996
1939,1.939000,4189,5803993,5586.67,-1179.32,3882.1899999999996
1940,1.939999,4190,5804992,1175.67,-209.32,1745.1899999999996
1941,1.941000,4191,5805993,-4197.33,-55.32,659.1899999999996
1942,1.942000,4192,5806993,-16355.33,-682.32,2299.1899999999996
