row,seconds,esp32_index,micros,ax,ay,az
0,0.000000,162,2110335,4147.55,-335.19,2220.17
1,0.000402,163,2110737,4147.55,-335.19,2220.17
2,0.000806,164,2111141,-749.45,-1322.19,3115.17
3,0.001200,165,2111535,-749.45,-1322.19,3115.17
4,0.001601,166,2111936,-6488.45,-3188.19,5897.17
5,0.002011,167,2112346,-6488.45,-3188.19,5897.17
6,0.002422,168,2112757,-11682.45,-3378.19,8561.17
7,0.002833,169,2113168,-11682.45,-3378.19,8561.17
8,0.003228,170,2113563,-11682.45,-3378.19,8561.17
9,0.003648,171,2113983,-26469.45,-609.19,2113.17
10,0.004058,172,2114393,-26469.45,-609.19,2113.17
11,0.004469,173,2114804,-27382.45,2281.81,-4631.83
12,0.004885,174,2115220,-27382.45,2281.81,-4631.83
13,0.005283,175,2115618,-27382.45,2281.81,-4631.83
14,0.005690,176,2116025,-21264.45,2464.81,-3594.83
15,0.006088,177,2116423,-21264.45,2464.81,-3594.83
16,0.006489,178,2116824,-7151.45,896.81,3352.17
17,0.006891,179,2117226,-7151.45,896.81,3352.17
18,0.007287,180,2117622,-7151.45,896.81,3352.17
19,0.007699,181,2118034,7735.55,-311.19,8293.17
20,0.008088,182,2118423,7735.55,-311.19,8293.17
21,0.008494,183,2118829,13621.55,88.81,6689.17
22,0.008882,184,2119217,13621.55,88.81,6689.17
23,0.009272,185,2119607,13621.55,88.81,6689.17
24,0.009662,186,2119997,18183.55,1209.81,2203.17
25,0.010057,187,2120392,18183.55,1209.81,2203.17
26,0.010452,188,2120787,11519.55,1019.81,-2498.83
27,0.010840,189,2121175,11519.55,1019.81,-2498.83
28,0.011222,190,2121557,11519.55,1019.81,-2498.83
29,0.011616,191,2121951,4407.55,1116.81,-4424.83
30,0.012018,192,2122353,4407.55,1116.81,-4424.83
31,0.012427,193,2122762,-1393.45,954.81,-4920.83
32,0.012835,194,2123170,-1393.45,954.81,-4920.83
33,0.013229,195,2123564,-1393.45,954.81,-4920.83
34,0.013644,196,2123979,-2667.45,370.81,-5945.83
35,0.014055,197,2124390,-2667.45,370.81,-5945.83
36,0.014465,198,2124800,-4184.45,-395.19,-6267.83
37,0.014870,199,2125205,-4184.45,-395.19,-6267.83
38,0.015282,200,2125617,-4184.45,-395.19,-6267.83
39,0.015701,201,2126036,713.55,-1459.19,-5683.83
40,0.016105,202,2126440,713.55,-1459.19,-5683.83
41,0.016522,203,2126857,8876.55,96.81,-6791.83
42,0.016915,204,2127250,8876.55,96.81,-6791.83
43,0.017311,205,2127646,8876.55,96.81,-6791.83
44,0.017713,206,2128048,13765.55,1025.81,-5213.83
45,0.018123,207,2128458,13765.55,1025.81,-5213.83
46,0.018518,208,2128853,14309.55,-717.19,371.1700000000001
47,0.018933,209,2129268,14309.55,-717.19,371.1700000000001
48,0.019321,210,2129656,14309.55,-717.19,371.1700000000001
49,0.019731,211,2130066,8421.55,-1630.19,6086.17
50,0.020134,212,2130469,8421.55,-1630.19,6086.17
51,0.020537,213,2130872,-1076.45,7.810000000000002,6652.17
52,0.020943,214,2131278,-1076.45,7.810000000000002,6652.17
53,0.021338,215,2131673,-1076.45,7.810000000000002,6652.17
54,0.021740,216,2132075,-8472.45,1132.81,3179.17
55,0.022116,217,2132451,-8472.45,1132.81,3179.17
56,0.022493,218,2132828,-9112.45,399.81,1636.17
57,0.022902,219,2133237,-9112.45,399.81,1636.17
58,0.023291,220,2133626,-9112.45,399.81,1636.17
59,0.023704,221,2134039,-3639.45,6.810000000000002,1861.17
60,0.024107,222,2134442,-3639.45,6.810000000000002,1861.17
61,0.024510,223,2134845,2607.55,-356.19,1996.17
62,0.024912,224,2135247,2607.55,-356.19,1996.17
63,0.025301,225,2135636,2607.55,-356.19,1996.17
64,0.025712,226,2136047,3544.55,-519.19,2432.17
65,0.026115,227,2136450,3544.55,-519.19,2432.17
66,0.026517,228,2136852,-1677.45,-1500.19,3078.17
67,0.026926,229,2137261,-1677.45,-1500.19,3078.17
68,0.027330,230,2137665,-1677.45,-1500.19,3078.17
69,0.027740,231,2138075,-7248.45,-3425.19,6652.17
70,0.028151,232,2138486,-7248.45,-3425.19,6652.17
71,0.028560,233,2138895,-14728.45,-2950.19,8025.17
72,0.028975,234,2139310,-14728.45,-2950.19,8025.17
73,0.029386,235,2139721,-14728.45,-2950.19,8025.17
74,0.029795,236,2140130,-27560.45,7.810000000000002,382.1700000000001
75,0.030192,237,2140527,-27560.45,7.810000000000002,382.1700000000001
76,0.030592,238,2140927,-27020.45,2610.81,-5162.83
77,0.031002,239,2141337,-27020.45,2610.81,-5162.83
78,0.031411,240,2141746,-18633.45,2344.81,-2335.83
79,0.031813,241,2142148,-18633.45,2344.81,-2335.83
80,0.032211,242,2142546,-18633.45,2344.81,-2335.83
81,0.032597,243,2142932,-3059.45,518.81,5054.17
82,0.032984,244,2143319,-3059.45,518.81,5054.17
83,0.033381,245,2143716,-3059.45,518.81,5054.17
84,0.033782,246,2144117,9216.55,-401.19,8775.17
85,0.034192,247,2144527,9216.55,-401.19,8775.17
86,0.034593,248,2144928,16049.55,347.81,5815.17
87,0.034993,249,2145328,16049.55,347.81,5815.17
88,0.035389,250,2145724,16049.55,347.81,5815.17
89,0.035783,251,2146118,16842.55,1366.81,633.1700000000001
90,0.036173,252,2146508,16842.55,1366.81,633.1700000000001
91,0.036562,253,2146897,9949.55,870.81,-3109.83
92,0.036961,254,2147296,9949.55,870.81,-3109.83
93,0.037356,255,2147691,9949.55,870.81,-3109.83
94,0.037749,256,2148084,2455.55,985.81,-4567.83
95,0.038151,257,2148486,2455.55,985.81,-4567.83
96,0.038555,258,2148890,-3134.45,887.81,-5266.83
97,0.038967,259,2149302,-3134.45,887.81,-5266.83
98,0.039379,260,2149714,-3134.45,887.81,-5266.83
99,0.039786,261,2150121,-2284.45,128.81,-6335.83
100,0.040196,262,2150531,-2284.45,128.81,-6335.83
101,0.040604,263,2150939,-3799.45,-654.19,-6180.83
102,0.041022,264,2151357,-3799.45,-654.19,-6180.83
103,0.041439,265,2151774,2412.55,-1274.19,-5479.83
104,0.041855,266,2152190,2412.55,-1274.19,-5479.83
105,0.042249,267,2152584,2412.55,-1274.19,-5479.83
106,0.042667,268,2153002,9748.55,370.81,-6872.83
107,0.043070,269,2153405,9748.55,370.81,-6872.83
108,0.043472,270,2153807,14611.55,983.81,-4405.83
109,0.043874,271,2154209,14611.55,983.81,-4405.83
110,0.044270,272,2154605,14611.55,983.81,-4405.83
111,0.044676,273,2155011,13778.55,-864.19,2158.17
112,0.045072,274,2155407,13778.55,-864.19,2158.17
113,0.045463,275,2155798,6779.55,-1520.19,6605.17
114,0.045866,276,2156201,6779.55,-1520.19,6605.17
115,0.046254,277,2156589,6779.55,-1520.19,6605.17
116,0.046666,278,2157001,-2982.45,261.81,6155.17
117,0.047066,279,2157401,-2982.45,261.81,6155.17
118,0.047470,280,2157805,-9500.45,1316.81,2526.17
119,0.047872,281,2158207,-9500.45,1316.81,2526.17
120,0.048253,282,2158588,-9500.45,1316.81,2526.17
121,0.048668,283,2159003,-7874.45,116.81,1481.17
122,0.049071,284,2159406,-7874.45,116.81,1481.17
123,0.049467,285,2159802,-2178.45,-105.19,2047.17
124,0.049882,286,2160217,-2178.45,-105.19,2047.17
125,0.050280,287,2160615,-2178.45,-105.19,2047.17
126,0.050691,288,2161026,3168.55,-85.19,1920.17
127,0.051095,289,2161430,3168.55,-85.19,1920.17
128,0.051488,290,2161823,2489.55,-857.19,2395.17
129,0.051897,291,2162232,2489.55,-857.19,2395.17
130,0.052287,292,2162622,2489.55,-857.19,2395.17
131,0.052694,293,2163029,-2022.45,-2103.19,3829.17
132,0.053107,294,2163442,-2022.45,-2103.19,3829.17
133,0.053522,295,2163857,-8467.45,-3605.19,7491.17
134,0.053925,296,2164260,-8467.45,-3605.19,7491.17
135,0.054331,297,2164666,-8467.45,-3605.19,7491.17
136,0.054742,298,2165077,-18592.45,-2435.19,6791.17
137,0.055156,299,2165491,-18592.45,-2435.19,6791.17
138,0.055566,300,2165901,-28292.45,686.81,-1379.83
139,0.055972,301,2166307,-28292.45,686.81,-1379.83
140,0.056374,302,2166709,-28292.45,686.81,-1379.83
141,0.056777,303,2167112,-25057.45,2747.81,-5399.83
142,0.057186,304,2167521,-25057.45,2747.81,-5399.83
143,0.057594,305,2167929,-16272.45,1905.81,-939.8299999999999
144,0.057996,306,2168331,-16272.45,1905.81,-939.8299999999999
145,0.058399,307,2168734,-16272.45,1905.81,-939.8299999999999
146,0.058802,308,2169137,-993.45,395.81,6270.17
147,0.059197,309,2169532,-993.45,395.81,6270.17
148,0.059598,310,2169933,11128.55,-190.19,8627.17
149,0.060001,311,2170336,11128.55,-190.19,8627.17
150,0.060396,312,2170731,11128.55,-190.19,8627.17
151,0.060801,313,2171136,17136.55,337.81,5018.17
152,0.061188,314,2171523,17136.55,337.81,5018.17
153,0.061581,315,2171916,16596.55,1479.81,-101.82999999999993
154,0.061976,316,2172311,16596.55,1479.81,-101.82999999999993
155,0.062363,317,2172698,16596.55,1479.81,-101.82999999999993
156,0.062758,318,2173093,8696.55,877.81,-3346.83
157,0.063152,319,2173487,8696.55,877.81,-3346.83
158,0.063540,320,2173875,1173.55,851.81,-4596.83
159,0.063953,321,2174288,1173.55,851.81,-4596.83
160,0.064347,322,2174682,1173.55,851.81,-4596.83
161,0.064747,323,2175082,-2867.45,966.81,-5597.83
162,0.065166,324,2175501,-2867.45,966.81,-5597.83
163,0.065570,325,2175905,-3062.45,69.81,-6778.83
164,0.065975,326,2176310,-3062.45,69.81,-6778.83
165,0.066367,327,2176702,-3062.45,69.81,-6778.83
166,0.066777,328,2177112,-3557.45,-837.19,-6155.83
167,0.067195,329,2177530,-3557.45,-837.19,-6155.83
168,0.067609,330,2177944,3339.55,-1174.19,-5480.83
169,0.068018,331,2178353,3339.55,-1174.19,-5480.83
170,0.068428,332,2178763,11599.55,339.81,-6920.83
171,0.068831,333,2179166,11599.55,339.81,-6920.83
172,0.069218,334,2179553,11599.55,339.81,-6920.83
173,0.069629,335,2179964,14686.55,863.81,-3363.83
174,0.070016,336,2180351,14686.55,863.81,-3363.83
175,0.070410,337,2180745,13362.55,-1214.19,3315.17
176,0.070819,338,2181154,13362.55,-1214.19,3315.17
177,0.071213,339,2181548,13362.55,-1214.19,3315.17
178,0.071615,340,2181950,4884.55,-1287.19,6755.17
179,0.072017,341,2182352,4884.55,-1287.19,6755.17
180,0.072412,342,2182747,-5038.45,521.81,5935.17
181,0.072822,343,2183157,-5038.45,521.81,5935.17
182,0.073216,344,2183551,-5038.45,521.81,5935.17
183,0.073609,345,2183944,-9754.45,900.81,2256.17
184,0.074018,346,2184353,-9754.45,900.81,2256.17
185,0.074413,347,2184748,-7628.45,532.81,1424.17
186,0.074815,348,2185150,-7628.45,532.81,1424.17
187,0.075212,349,2185547,-7628.45,532.81,1424.17
188,0.075613,350,2185948,-1039.45,134.81,1660.17
189,0.076008,351,2186343,-1039.45,134.81,1660.17
190,0.076403,352,2186738,3750.55,-620.19,1935.17
191,0.076799,353,2187134,3750.55,-620.19,1935.17
192,0.077202,354,2187537,3750.55,-620.19,1935.17
193,0.077596,355,2187931,2824.55,-1041.19,2986.17
194,0.077998,356,2188333,2824.55,-1041.19,2986.17
195,0.078400,357,2188735,-3697.45,-2244.19,4506.17
196,0.078817,358,2189152,-3697.45,-2244.19,4506.17
197,0.079220,359,2189555,-3697.45,-2244.19,4506.17
198,0.079629,360,2189964,-9476.45,-3638.19,8021.17
199,0.080039,361,2190374,-9476.45,-3638.19,8021.17
200,0.080449,362,2190784,-21964.45,-1788.19,5248.17
201,0.080859,363,2191194,-21964.45,-1788.19,5248.17
202,0.081254,364,2191589,-21964.45,-1788.19,5248.17
203,0.081674,365,2192009,-28667.45,1101.81,-2743.83
204,0.082069,366,2192404,-28667.45,1101.81,-2743.83
205,0.082474,367,2192809,-23686.45,2750.81,-5078.83
206,0.082859,368,2193194,-23686.45,2750.81,-5078.83
207,0.083259,369,2193594,-23686.45,2750.81,-5078.83
208,0.083682,370,2194017,-14267.45,1603.81,567.1700000000001
209,0.084085,371,2194420,-14267.45,1603.81,567.1700000000001
210,0.084488,372,2194823,2698.55,258.81,6896.17
211,0.084875,373,2195210,2698.55,258.81,6896.17
212,0.085256,374,2195591,2698.55,258.81,6896.17
213,0.085660,375,2195995,12560.55,-168.19,8043.17
214,0.086062,376,2196397,12560.55,-168.19,8043.17
215,0.086465,377,2196800,18462.55,333.81,4297.17
216,0.086852,378,2197187,18462.55,333.81,4297.17
217,0.087239,379,2197574,18462.55,333.81,4297.17
218,0.087635,380,2197970,15247.55,1450.81,-1310.83
219,0.088030,381,2198365,15247.55,1450.81,-1310.83
220,0.088425,382,2198760,6518.55,1023.81,-3762.83
221,0.088813,383,2199148,6518.55,1023.81,-3762.83
222,0.089206,384,2199541,6518.55,1023.81,-3762.83
223,0.089590,385,2199925,33.549999999999955,953.81,-4833.83
224,0.089994,386,2200329,33.549999999999955,953.81,-4833.83
225,0.090395,387,2200730,33.549999999999955,953.81,-4833.83
226,0.090796,388,2201131,-3132.45,666.81,-5441.83
227,0.091205,389,2201540,-3132.45,666.81,-5441.83
228,0.091606,390,2201941,-3631.45,-36.19,-6099.83
229,0.092022,391,2202357,-3631.45,-36.19,-6099.83
230,0.092430,392,2202765,-1806.45,-1233.19,-6038.83
231,0.092847,393,2203182,-1806.45,-1233.19,-6038.83
232,0.093254,394,2203589,-1806.45,-1233.19,-6038.83
233,0.093677,395,2204012,6287.55,-640.19,-6236.83
234,0.094093,396,2204428,6287.55,-640.19,-6236.83
235,0.094502,397,2204837,12857.55,653.81,-6295.83
236,0.094898,398,2205233,12857.55,653.81,-6295.83
237,0.095294,399,2205629,12857.55,653.81,-6295.83
238,0.095695,400,2206030,14939.55,318.81,-1921.83
239,0.096092,401,2206427,14939.55,318.81,-1921.83
240,0.096486,402,2206821,10768.55,-1342.19,4488.17
241,0.096895,403,2207230,10768.55,-1342.19,4488.17
242,0.097286,404,2207621,10768.55,-1342.19,4488.17
243,0.097687,405,2208022,2011.55,-1059.19,6672.17
244,0.098094,406,2208429,2011.55,-1059.19,6672.17
245,0.098497,407,2208832,-7013.45,1039.81,4582.17
246,0.098898,408,2209233,-7013.45,1039.81,4582.17
247,0.099288,409,2209623,-7013.45,1039.81,4582.17
248,0.099689,410,2210024,-10316.45,813.81,1614.17
249,0.100090,411,2210425,-10316.45,813.81,1614.17
250,0.100492,412,2210827,-5043.45,-27.189999999999998,1484.17
251,0.100895,413,2211230,-5043.45,-27.189999999999998,1484.17
252,0.101285,414,2211620,-5043.45,-27.189999999999998,1484.17
253,0.101689,415,2212024,573.55,-5.189999999999998,2032.17
254,0.102075,416,2212410,573.55,-5.189999999999998,2032.17
255,0.102469,417,2212804,4163.55,-417.19,2248.17
256,0.102870,418,2213205,4163.55,-417.19,2248.17
257,0.103259,419,2213594,4163.55,-417.19,2248.17
258,0.103668,420,2214003,1325.55,-1202.19,3034.17
259,0.104072,421,2214407,1325.55,-1202.19,3034.17
260,0.104466,422,2214801,-6538.45,-2554.19,5363.17
261,0.104883,423,2215218,-6538.45,-2554.19,5363.17
262,0.105281,424,2215616,-6538.45,-2554.19,5363.17
263,0.105695,425,2216030,-10435.45,-3612.19,8351.17
264,0.106107,426,2216442,-10435.45,-3612.19,8351.17
265,0.106509,427,2216844,-23606.45,-1301.19,3534.17
266,0.106921,428,2217256,-23606.45,-1301.19,3534.17
267,0.107325,429,2217660,-23606.45,-1301.19,3534.17
268,0.107730,430,2218065,-28636.45,2182.81,-4076.83
269,0.108141,431,2218476,-28636.45,2182.81,-4076.83
270,0.108551,432,2218886,-22273.45,2720.81,-4334.83
271,0.108964,433,2219299,-22273.45,2720.81,-4334.83
272,0.109374,434,2219709,-22273.45,2720.81,-4334.83
273,0.109789,435,2220124,-9902.45,1038.81,2702.17
274,0.110199,436,2220534,-9902.45,1038.81,2702.17
275,0.110599,437,2220934,6397.55,-283.19,8087.17
276,0.111002,438,2221337,6397.55,-283.19,8087.17
277,0.111405,439,2221740,13948.55,-214.19,7182.17
278,0.111807,440,2222142,13948.55,-214.19,7182.17
279,0.112202,441,2222537,13948.55,-214.19,7182.17
280,0.112603,442,2222938,17287.55,1030.81,2911.17
281,0.112993,443,2223328,17287.55,1030.81,2911.17
282,0.113382,444,2223717,17287.55,1030.81,2911.17
283,0.113783,445,2224118,12710.55,1320.81,-2347.83
284,0.114174,446,2224509,12710.55,1320.81,-2347.83
285,0.114555,447,2224890,4810.55,853.81,-4297.83
286,0.114963,448,2225298,4810.55,853.81,-4297.83
287,0.115364,449,2225699,4810.55,853.81,-4297.83
288,0.115767,450,2226102,-1125.45,1051.81,-5016.83
289,0.116172,451,2226507,-1125.45,1051.81,-5016.83
290,0.116587,452,2226922,-2371.45,607.81,-5964.83
291,0.116996,453,2227331,-2371.45,607.81,-5964.83
292,0.117411,454,2227746,-3499.45,-394.19,-6271.83
293,0.117828,455,2228163,-3499.45,-394.19,-6271.83
294,0.118244,456,2228579,-3499.45,-394.19,-6271.83
295,0.118668,457,2229003,-347.45000000000005,-1537.19,-5565.83
296,0.119087,458,2229422,-347.45000000000005,-1537.19,-5565.83
297,0.119496,459,2229831,7316.55,-340.19,-6117.83
298,0.119906,460,2230241,7316.55,-340.19,-6117.83
299,0.120304,461,2230639,7316.55,-340.19,-6117.83
300,0.120718,462,2231053,12383.55,1129.81,-5488.83
301,0.121116,463,2231451,12383.55,1129.81,-5488.83
302,0.121518,464,2231853,13854.55,-221.19,-670.8299999999999
303,0.121926,465,2232261,13854.55,-221.19,-670.8299999999999
304,0.122330,466,2232665,13854.55,-221.19,-670.8299999999999
305,0.122716,467,2233051,10237.55,-1477.19,5151.17
306,0.123127,468,2233462,10237.55,-1477.19,5151.17
307,0.123521,469,2233856,480.54999999999995,-419.19,6737.17
308,0.123937,470,2234272,480.54999999999995,-419.19,6737.17
309,0.124325,471,2234660,480.54999999999995,-419.19,6737.17
310,0.124735,472,2235070,-6857.45,924.81,4068.17
311,0.125135,473,2235470,-6857.45,924.81,4068.17
312,0.125539,474,2235874,-9472.45,694.81,1677.17
313,0.125947,475,2236282,-9472.45,694.81,1677.17
314,0.126341,476,2236676,-9472.45,694.81,1677.17
315,0.126750,477,2237085,-4885.45,18.810000000000002,1596.17
316,0.127155,478,2237490,-4885.45,18.810000000000002,1596.17
317,0.127557,479,2237892,1503.55,-16.189999999999998,1943.17
318,0.127949,480,2238284,1503.55,-16.189999999999998,1943.17
319,0.128343,481,2238678,1503.55,-16.189999999999998,1943.17
320,0.128744,482,2239079,3014.55,-389.19,2067.17
321,0.129149,483,2239484,3014.55,-389.19,2067.17
322,0.129552,484,2239887,857.55,-1700.19,2991.17
323,0.129958,485,2240293,857.55,-1700.19,2991.17
324,0.130360,486,2240695,857.55,-1700.19,2991.17
325,0.130755,487,2241090,-6409.45,-2797.19,5887.17
326,0.131174,488,2241509,-6409.45,-2797.19,5887.17
327,0.131582,489,2241917,-12415.45,-3152.19,8146.17
328,0.131992,490,2242327,-12415.45,-3152.19,8146.17
329,0.132400,491,2242735,-25339.45,-967.19,2219.17
330,0.132797,492,2243132,-25339.45,-967.19,2219.17
331,0.133200,493,2243535,-25339.45,-967.19,2219.17
332,0.133608,494,2243943,-27524.45,2308.81,-4258.83
333,0.134019,495,2244354,-27524.45,2308.81,-4258.83
334,0.134428,496,2244763,-19767.45,2548.81,-3465.83
335,0.134830,497,2245165,-19767.45,2548.81,-3465.83
336,0.135225,498,2245560,-19767.45,2548.81,-3465.83
337,0.135632,499,2245967,-7148.45,875.81,3448.17
338,0.136034,500,2246369,-7148.45,875.81,3448.17
339,0.136436,501,2246771,7470.55,-346.19,8156.17
340,0.136839,502,2247174,7470.55,-346.19,8156.17
341,0.137226,503,2247561,7470.55,-346.19,8156.17
342,0.137628,504,2247963,13918.55,7.810000000000002,6507.17
343,0.138022,505,2248357,13918.55,7.810000000000002,6507.17
344,0.138418,506,2248753,17128.55,1273.81,2004.17
345,0.138811,507,2249146,17128.55,1273.81,2004.17
346,0.139206,508,2249541,17128.55,1273.81,2004.17
347,0.139591,509,2249926,10907.55,1037.81,-2906.83
348,0.139982,510,2250317,10907.55,1037.81,-2906.83
349,0.140377,511,2250712,10907.55,1037.81,-2906.83
350,0.140771,512,2251106,3808.55,1128.81,-4410.83
351,0.141172,513,2251507,3808.55,1128.81,-4410.83
352,0.141569,514,2251904,-1166.45,993.81,-4795.83
353,0.141987,515,2252322,-1166.45,993.81,-4795.83
354,0.142389,516,2252724,-1166.45,993.81,-4795.83
355,0.142805,517,2253140,-2118.45,121.81,-5726.83
356,0.143206,518,2253541,-2118.45,121.81,-5726.83
357,0.143615,519,2253950,-3557.45,-441.19,-5726.83
358,0.144031,520,2254366,-3557.45,-441.19,-5726.83
359,0.144455,521,2254790,324.54999999999995,-1181.19,-5504.83
360,0.144864,522,2255199,324.54999999999995,-1181.19,-5504.83
361,0.145259,523,2255594,324.54999999999995,-1181.19,-5504.83
362,0.145681,524,2256016,7881.55,129.81,-6520.83
363,0.146083,525,2256418,7881.55,129.81,-6520.83
364,0.146478,526,2256813,12704.55,959.81,-5056.83
365,0.146881,527,2257216,12704.55,959.81,-5056.83
366,0.147279,528,2257614,12704.55,959.81,-5056.83
367,0.147685,529,2258020,13976.55,-722.19,250.17000000000007
368,0.148088,530,2258423,13976.55,-722.19,250.17000000000007
369,0.148490,531,2258825,8885.55,-1463.19,5739.17
370,0.148892,532,2259227,8885.55,-1463.19,5739.17
371,0.149282,533,2259617,8885.55,-1463.19,5739.17
372,0.149671,534,2260006,-66.45000000000005,-58.19,6365.17
373,0.150074,535,2260409,-66.45000000000005,-58.19,6365.17
374,0.150476,536,2260811,-8167.45,1009.81,3272.17
375,0.150878,537,2261213,-8167.45,1009.81,3272.17
376,0.151261,538,2261596,-8167.45,1009.81,3272.17
377,0.151671,539,2262006,-9417.45,558.81,1749.17
378,0.152074,540,2262409,-9417.45,558.81,1749.17
379,0.152476,541,2262811,-3654.45,-112.19,2014.17
380,0.152886,542,2263221,-3654.45,-112.19,2014.17
381,0.153284,543,2263619,-3654.45,-112.19,2014.17
382,0.153690,544,2264025,2209.55,-340.19,1944.17
383,0.154102,545,2264437,2209.55,-340.19,1944.17
384,0.154483,546,2264818,3491.55,-371.19,2195.17
385,0.154879,547,2265214,3491.55,-371.19,2195.17
386,0.155260,548,2265595,3491.55,-371.19,2195.17
387,0.155671,549,2266006,-703.45,-1591.19,3198.17
388,0.156058,550,2266393,-703.45,-1591.19,3198.17
389,0.156447,551,2266782,-6503.45,-3209.19,6193.17
390,0.156859,552,2267194,-6503.45,-3209.19,6193.17
391,0.157255,553,2267590,-6503.45,-3209.19,6193.17
392,0.157673,554,2268008,-13284.45,-2972.19,7677.17
393,0.158087,555,2268422,-13284.45,-2972.19,7677.17
394,0.158497,556,2268832,-27166.45,-370.19,1022.1700000000001
395,0.158907,557,2269242,-27166.45,-370.19,1022.1700000000001
396,0.159304,558,2269639,-27166.45,-370.19,1022.1700000000001
397,0.159718,559,2270053,-26964.45,2464.81,-4762.83
398,0.160134,560,2270469,-26964.45,2464.81,-4762.83
399,0.160544,561,2270879,-19083.45,2454.81,-2749.83
400,0.160949,562,2271284,-19083.45,2454.81,-2749.83
401,0.161345,563,2271680,-19083.45,2454.81,-2749.83
402,0.161746,564,2272081,-4502.45,442.81,4485.17
403,0.162158,565,2272493,-4502.45,442.81,4485.17
404,0.162553,566,2272888,9100.55,-541.19,8664.17
405,0.162966,567,2273301,9100.55,-541.19,8664.17
406,0.163361,568,2273696,9100.55,-541.19,8664.17
407,0.163763,569,2274098,14400.55,332.81,5820.17
408,0.164160,570,2274495,14400.55,332.81,5820.17
409,0.164549,571,2274884,16911.55,1396.81,751.1700000000001
410,0.164949,572,2275284,16911.55,1396.81,751.1700000000001
411,0.165344,573,2275679,16911.55,1396.81,751.1700000000001
412,0.165738,574,2276073,9700.55,1116.81,-3144.83
413,0.166129,575,2276464,9700.55,1116.81,-3144.83
414,0.166517,576,2276852,2591.55,987.81,-4320.83
415,0.166925,577,2277260,2591.55,987.81,-4320.83
416,0.167321,578,2277656,2591.55,987.81,-4320.83
417,0.167723,579,2278058,-1508.45,844.81,-4891.83
418,0.168133,580,2278468,-1508.45,844.81,-4891.83
419,0.168542,581,2278877,-2415.45,273.81,-5650.83
420,0.168955,582,2279290,-2415.45,273.81,-5650.83
421,0.169358,583,2279693,-2415.45,273.81,-5650.83
422,0.169774,584,2280109,-3895.45,-506.19,-5778.83
423,0.170190,585,2280525,-3895.45,-506.19,-5778.83
424,0.170605,586,2280940,1666.55,-1364.19,-5318.83
425,0.171020,587,2281355,1666.55,-1364.19,-5318.83
426,0.171430,588,2281765,8393.55,385.81,-6645.83
427,0.171825,589,2282160,8393.55,385.81,-6645.83
428,0.172226,590,2282561,8393.55,385.81,-6645.83
429,0.172632,591,2282967,13334.55,999.81,-4697.83
430,0.173027,592,2283362,13334.55,999.81,-4697.83
431,0.173429,593,2283764,14455.55,-952.19,1366.17
432,0.173839,594,2284174,14455.55,-952.19,1366.17
433,0.174225,595,2284560,14455.55,-952.19,1366.17
434,0.174626,596,2284961,7936.55,-1547.19,6120.17
435,0.175029,597,2285364,7936.55,-1547.19,6120.17
436,0.175432,598,2285767,-2063.45,237.81,6029.17
437,0.175834,599,2286169,-2063.45,237.81,6029.17
438,0.176228,600,2286563,-2063.45,237.81,6029.17
439,0.176637,601,2286972,-8985.45,1248.81,2596.17
440,0.177032,602,2287367,-8985.45,1248.81,2596.17
441,0.177441,603,2287776,-8959.45,314.81,1505.17
442,0.177836,604,2288171,-8959.45,314.81,1505.17
443,0.178230,605,2288565,-8959.45,314.81,1505.17
444,0.178632,606,2288967,-2563.45,-80.19,1855.17
445,0.179049,607,2289384,-2563.45,-80.19,1855.17
446,0.179459,608,2289794,3235.55,-361.19,1934.17
447,0.179854,609,2290189,3235.55,-361.19,1934.17
448,0.180248,610,2290583,3235.55,-361.19,1934.17
449,0.180658,611,2290993,3514.55,-695.19,2496.17
450,0.181053,612,2291388,3514.55,-695.19,2496.17
451,0.181455,613,2291790,-1083.45,-1987.19,3679.17
452,0.181871,614,2292206,-1083.45,-1987.19,3679.17
453,0.182275,615,2292610,-1083.45,-1987.19,3679.17
454,0.182673,616,2293008,-6941.45,-3441.19,6846.17
455,0.183076,617,2293411,-6941.45,-3441.19,6846.17
456,0.183489,618,2293824,-16097.45,-2570.19,7064.17
457,0.183900,619,2294235,-16097.45,-2570.19,7064.17
458,0.184298,620,2294633,-16097.45,-2570.19,7064.17
459,0.184706,621,2295041,-27947.45,227.81,-566.8299999999999
460,0.185104,622,2295439,-27947.45,227.81,-566.8299999999999
461,0.185506,623,2295841,-26420.45,2717.81,-5229.83
462,0.185923,624,2296258,-26420.45,2717.81,-5229.83
463,0.186327,625,2296662,-26420.45,2717.81,-5229.83
464,0.186736,626,2297071,-18194.45,2137.81,-1811.83
465,0.187140,627,2297475,-18194.45,2137.81,-1811.83
466,0.187542,628,2297877,-1673.45,229.81,5514.17
467,0.187947,629,2298282,-1673.45,229.81,5514.17
468,0.188342,630,2298677,-1673.45,229.81,5514.17
469,0.188743,631,2299078,9543.55,-256.19,8722.17
470,0.189142,632,2299477,9543.55,-256.19,8722.17
471,0.189552,633,2299887,16079.55,562.81,5236.17
472,0.189944,634,2300279,16079.55,562.81,5236.17
473,0.190338,635,2300673,16079.55,562.81,5236.17
474,0.190732,636,2301067,16658.55,1296.81,211.17000000000007
475,0.191121,637,2301456,16658.55,1296.81,211.17000000000007
476,0.191516,638,2301851,9051.55,915.81,-2905.83
477,0.191910,639,2302245,9051.55,915.81,-2905.83
478,0.192293,640,2302628,9051.55,915.81,-2905.83
479,0.192686,641,2303021,1918.55,1205.81,-4485.83
480,0.193094,642,2303429,1918.55,1205.81,-4485.83
481,0.193488,643,2303823,-3018.45,898.81,-4990.83
482,0.193905,644,2304240,-3018.45,898.81,-4990.83
483,0.194302,645,2304637,-3018.45,898.81,-4990.83
484,0.194716,646,2305051,-2298.45,-7.189999999999998,-5793.83
485,0.195126,647,2305461,-2298.45,-7.189999999999998,-5793.83
486,0.195535,648,2305870,-3709.45,-752.19,-6149.83
487,0.195957,649,2306292,-3709.45,-752.19,-6149.83
488,0.196374,650,2306709,-3709.45,-752.19,-6149.83
489,0.196791,651,2307126,2100.55,-1192.19,-5200.83
490,0.197202,652,2307537,2100.55,-1192.19,-5200.83
491,0.197611,653,2307946,9377.55,333.81,-6626.83
492,0.198012,654,2308347,9377.55,333.81,-6626.83
493,0.198413,655,2308748,14305.55,958.81,-4413.83
494,0.198815,656,2309150,14305.55,958.81,-4413.83
495,0.199208,657,2309543,14305.55,958.81,-4413.83
496,0.199610,658,2309945,13630.55,-934.19,2191.17
497,0.200013,659,2310348,13630.55,-934.19,2191.17
498,0.200415,660,2310750,7160.55,-1553.19,6380.17
499,0.200810,661,2311145,7160.55,-1553.19,6380.17
500,0.201211,662,2311546,7160.55,-1553.19,6380.17
501,0.201613,663,2311948,-3533.45,458.81,5671.17
502,0.202014,664,2312349,-3533.45,458.81,5671.17
503,0.202417,665,2312752,-9823.45,1340.81,2280.17
504,0.202812,666,2313147,-9823.45,1340.81,2280.17
505,0.203213,667,2313548,-9823.45,1340.81,2280.17
506,0.203607,668,2313942,-7641.45,47.81,1828.17
507,0.204016,669,2314351,-7641.45,47.81,1828.17
508,0.204417,670,2314752,-1706.45,-319.19,2528.17
509,0.204819,671,2315154,-1706.45,-319.19,2528.17
510,0.205223,672,2315558,-1706.45,-319.19,2528.17
511,0.205631,673,2315966,3957.55,-250.19,1891.17
512,0.206027,674,2316362,3957.55,-250.19,1891.17
513,0.206429,675,2316764,2533.55,-681.19,2239.17
514,0.206832,676,2317167,2533.55,-681.19,2239.17
515,0.207218,677,2317553,2533.55,-681.19,2239.17
516,0.207620,678,2317955,-1429.45,-2094.19,3828.17
517,0.208036,679,2318371,-1429.45,-2094.19,3828.17
518,0.208446,680,2318781,-8040.45,-3474.19,7010.17
519,0.208856,681,2319191,-8040.45,-3474.19,7010.17
520,0.209251,682,2319586,-8040.45,-3474.19,7010.17
521,0.209669,683,2320004,-19550.45,-2256.19,6423.17
522,0.210082,684,2320417,-19550.45,-2256.19,6423.17
523,0.210492,685,2320827,-27895.45,380.81,-1220.83
524,0.210895,686,2321230,-27895.45,380.81,-1220.83
525,0.211285,687,2321620,-27895.45,380.81,-1220.83
526,0.211685,688,2322020,-25531.45,2788.81,-5099.83
527,0.212098,689,2322433,-25531.45,2788.81,-5099.83
528,0.212513,690,2322848,-16206.45,2032.81,-858.8299999999999
529,0.212909,691,2323244,-16206.45,2032.81,-858.8299999999999
530,0.213306,692,2323641,-16206.45,2032.81,-858.8299999999999
531,0.213717,693,2324052,463.54999999999995,-141.19,6287.17
532,0.214113,694,2324448,463.54999999999995,-141.19,6287.17
533,0.214514,695,2324849,11275.55,-10.189999999999998,8414.17
534,0.214909,696,2325244,11275.55,-10.189999999999998,8414.17
535,0.215298,697,2325633,11275.55,-10.189999999999998,8414.17
536,0.215691,698,2326026,16610.55,657.81,4618.17
537,0.216077,699,2326412,16610.55,657.81,4618.17
538,0.216456,700,2326791,15194.55,1329.81,-362.8299999999999
539,0.216850,701,2327185,15194.55,1329.81,-362.8299999999999
540,0.217236,702,2327571,15194.55,1329.81,-362.8299999999999
541,0.217638,703,2327973,7680.55,1098.81,-3105.83
542,0.218025,704,2328360,7680.55,1098.81,-3105.83
543,0.218420,705,2328755,1182.55,986.81,-4462.83
544,0.218829,706,2329164,1182.55,986.81,-4462.83
545,0.219224,707,2329559,1182.55,986.81,-4462.83
546,0.219617,708,2329952,-2516.45,901.81,-5494.83
547,0.220033,709,2330368,-2516.45,901.81,-5494.83
548,0.220443,710,2330778,-2170.45,-8.189999999999998,-5952.83
549,0.220858,711,2331193,-2170.45,-8.189999999999998,-5952.83
550,0.221253,712,2331588,-2170.45,-8.189999999999998,-5952.83
551,0.221670,713,2332005,-3219.45,-861.19,-5709.83
552,0.222094,714,2332429,-3219.45,-861.19,-5709.83
553,0.222510,715,2332845,3533.55,-1015.19,-5236.83
554,0.222926,716,2333261,3533.55,-1015.19,-5236.83
555,0.223329,717,2333664,3533.55,-1015.19,-5236.83
556,0.223744,718,2334079,10436.55,459.81,-6677.83
557,0.224147,719,2334482,10436.55,459.81,-6677.83
558,0.224640,720,2334975,13765.55,608.81,-3578.83
559,0.225640,721,2335975,13563.55,-919.19,3080.17
560,0.226639,722,2336974,4552.55,-1309.19,6083.17
561,0.227639,723,2337974,-4211.45,112.81,5277.17
562,0.228640,724,2338975,-10064.45,1322.81,2398.17
563,0.229640,725,2339975,-7115.45,172.81,1346.17
564,0.230639,726,2340974,-817.45,-175.19,1707.17
565,0.231640,727,2341975,3503.55,-119.19,2284.17
566,0.232639,728,2342974,3570.55,-1223.19,2841.17
567,0.233640,729,2343975,-3020.45,-2142.19,4483.17
568,0.234640,730,2344975,-9242.45,-3441.19,7826.17
569,0.235640,731,2345975,-20887.45,-2127.19,5541.17
570,0.236640,732,2346975,-28133.45,1218.81,-2298.83
571,0.237640,733,2347975,-24166.45,2689.81,-5113.83
572,0.238639,734,2348974,-14407.45,1569.81,-95.82999999999993
573,0.239640,735,2349975,1450.55,187.81,6783.17
574,0.240639,736,2350974,12016.55,-209.19,8250.17
575,0.241640,737,2351975,17606.55,542.81,4387.17
576,0.242640,738,2352975,14737.55,1281.81,-949.8299999999999
577,0.243640,739,2353975,6733.55,1032.81,-4301.83
578,0.244640,740,2354975,409.54999999999995,1242.81,-4700.83
579,0.245640,741,2355975,-2499.45,576.81,-5071.83
580,0.246640,742,2356975,-2791.45,-211.19,-5740.83
581,0.247640,743,2357975,-3129.45,-832.19,-5814.83
582,0.248640,744,2358975,4355.55,-658.19,-5934.83
583,0.249640,745,2359975,11934.55,613.81,-6155.83
584,0.250640,746,2360975,14829.55,372.81,-2394.83
585,0.251640,747,2361975,12542.55,-1189.19,3987.17
586,0.252640,748,2362975,3240.55,-1275.19,6594.17
587,0.253640,749,2363975,-5351.45,828.81,4495.17
588,0.254640,750,2364975,-11012.45,1318.81,1812.17
589,0.255640,751,2365975,-6550.45,-132.19,1537.17
590,0.256640,752,2366975,15.549999999999955,-275.19,1827.17
591,0.257640,753,2367975,3996.55,-338.19,2349.17
592,0.258640,754,2368975,3557.55,-1088.19,2472.17
593,0.259639,755,2369974,-4944.45,-2403.19,4820.17
594,0.260640,756,2370975,-9218.45,-3655.19,8266.17
595,0.261640,757,2371975,-23067.45,-1745.19,4499.17
596,0.262640,758,2372975,-28812.45,1770.81,-3100.83
597,0.263640,759,2373975,-22964.45,2777.81,-4752.83
598,0.264640,760,2374975,-12731.45,1411.81,1118.17
599,0.265640,761,2375975,4501.55,-49.19,7601.17
600,0.266640,762,2376975,13251.55,-339.19,7993.17
601,0.267640,763,2377975,17867.55,844.81,3361.17
602,0.268640,764,2378975,12942.55,1358.81,-1712.83
603,0.269640,765,2379975,5382.55,1026.81,-3961.83
604,0.270640,766,2380975,-553.45,1002.81,-4777.83
605,0.271640,767,2381975,-1954.45,733.81,-5642.83
606,0.272640,768,2382975,-3691.45,-194.19,-5833.83
607,0.273639,769,2383974,-1507.45,-1339.19,-5596.83
608,0.274639,770,2384974,6881.55,-524.19,-6052.83
609,0.275640,771,2385975,12142.55,1050.81,-6161.83
610,0.276640,772,2386975,14379.55,216.81,-1544.83
611,0.277640,773,2387975,11134.55,-1775.19,4814.17
612,0.278640,774,2388975,1865.55,-574.19,6386.17
613,0.279640,775,2389975,-6840.45,1058.81,4351.17
614,0.280640,776,2390975,-9465.45,459.81,1686.17
615,0.281640,777,2391975,-5402.45,198.81,1571.17
616,0.282640,778,2392975,991.55,-93.19,1864.17
617,0.283640,779,2393975,3232.55,-440.19,2131.17
618,0.284640,780,2394975,1598.55,-1255.19,3041.17
619,0.285640,781,2395975,-5613.45,-2967.19,5482.17
620,0.286640,782,2396975,-10570.45,-3525.19,8311.17
621,0.287640,783,2397975,-24881.45,-1049.19,2959.17
622,0.288640,784,2398975,-28631.45,2200.81,-4223.83
623,0.289640,785,2399975,-21596.45,2503.81,-3965.83
624,0.290640,786,2400975,-10019.45,1005.81,2812.17
625,0.291640,787,2401975,6197.55,-189.19,7994.17
626,0.292640,788,2402975,13643.55,77.81,7136.17
627,0.293640,789,2403975,18094.55,1086.81,2735.17
628,0.294640,790,2404975,12655.55,1115.81,-2256.83
629,0.295640,791,2405975,5026.55,987.81,-3637.83
630,0.296639,792,2406974,-1143.45,838.81,-5057.83
631,0.297639,793,2407974,-2410.45,782.81,-6262.83
632,0.298640,794,2408975,-4933.45,-253.19,-5890.83
633,0.299640,795,2409975,-81.45000000000005,-1605.19,-5730.83
634,0.300640,796,2410975,8159.55,-61.19,-6487.83
635,0.301639,797,2411974,13255.55,956.81,-5725.83
636,0.302640,798,2412975,15215.55,-367.19,-341.8299999999999
637,0.303639,799,2413974,9510.55,-1622.19,5742.17
638,0.304640,800,2414975,452.54999999999995,-399.19,6449.17
639,0.305639,801,2415974,-9087.45,1246.81,3673.17
640,0.306640,802,2416975,-9842.45,789.81,1496.17
641,0.307639,803,2417974,-3583.45,-143.19,1645.17
642,0.308639,804,2418974,2118.55,-173.19,1973.17
643,0.309640,805,2419975,4149.55,-350.19,2404.17
644,0.310640,806,2420975,-687.45,-1706.19,3230.17
645,0.311640,807,2421975,-6368.45,-3160.19,6207.17
646,0.312639,808,2422974,-13409.45,-3350.19,8448.17
647,0.313640,809,2423975,-27676.45,-235.19,1141.17
648,0.314640,810,2424975,-27754.45,2482.81,-4840.83
649,0.315640,811,2425975,-20508.45,2155.81,-3230.83
650,0.316640,812,2426975,-5044.45,960.81,4097.17
651,0.317640,813,2427975,8354.55,-179.19,8732.17
652,0.318640,814,2428975,14704.55,40.81,6396.17
653,0.319639,815,2429974,18152.55,1236.81,1751.17
654,0.320640,816,2430975,11266.55,1059.81,-2975.83
655,0.321640,817,2431975,3498.55,1071.81,-4185.83
656,0.322640,818,2432975,-2170.45,876.81,-5144.83
657,0.323639,819,2433974,-2645.45,334.81,-6395.83
658,0.324640,820,2434975,-4495.45,-451.19,-6110.83
659,0.325640,821,2435975,1344.55,-1576.19,-5643.83
660,0.326640,822,2436975,9256.55,341.81,-7094.83
661,0.327640,823,2437975,14783.55,941.81,-4900.83
662,0.328640,824,2438975,14967.55,-834.19,1128.17
663,0.329640,825,2439975,7320.55,-1630.19,6467.17
664,0.330640,826,2440975,-2449.45,291.81,6477.17
665,0.331639,827,2441974,-9380.45,1371.81,2692.17
666,0.332640,828,2442975,-8609.45,-41.19,1848.17
667,0.333639,829,2443974,-2137.45,-56.19,1965.17
668,0.334640,830,2444975,2947.55,-166.19,2067.17
669,0.335640,831,2445975,3314.55,-496.19,2474.17
670,0.336639,832,2446974,-2415.45,-1752.19,3133.17
671,0.337640,833,2447975,-7775.45,-3639.19,7267.17
672,0.338640,834,2448975,-17533.45,-2795.19,7697.17
673,0.339640,835,2449975,-28935.45,457.81,-705.8299999999999
674,0.340640,836,2450975,-25837.45,2722.81,-5478.83
675,0.341639,837,2451974,-17702.45,1974.81,-1621.83
676,0.342640,838,2452975,-1046.45,633.81,5704.17
677,0.343640,839,2453975,10162.55,-249.19,8816.17
678,0.344640,840,2454975,16946.55,334.81,5616.17
679,0.345640,841,2455975,17078.55,1279.81,276.1700000000001
680,0.346640,842,2456975,9446.55,927.81,-3363.83
681,0.347640,843,2457975,1111.55,991.81,-4686.83
682,0.348639,844,2458974,-2533.45,786.81,-5586.83
683,0.349639,845,2459974,-2576.45,272.81,-6500.83
684,0.350640,846,2460975,-3947.45,-884.19,-6091.83
685,0.351639,847,2461974,3537.55,-1229.19,-5920.83
686,0.352640,848,2462975,11396.55,662.81,-7241.83
687,0.353640,849,2463975,15196.55,633.81,-3503.83
688,0.354639,850,2464974,12982.55,-1115.19,3047.17
689,0.355640,851,2465975,4814.55,-1262.19,6613.17
690,0.356639,852,2466974,-4440.45,226.81,6083.17
691,0.357639,853,2467974,-9424.45,1164.81,2310.17
692,0.358640,854,2468975,-7680.45,345.81,1471.17
693,0.359639,855,2469974,-1157.45,70.81,1473.17
694,0.360640,856,2470975,3673.55,-485.19,2159.17
695,0.361639,857,2471974,2717.55,-937.19,3097.17
696,0.362639,858,2472974,-4250.45,-2130.19,4363.17
697,0.363640,859,2473975,-9787.45,-3858.19,8351.17
698,0.364640,860,2474975,-21320.45,-1947.19,5573.17
699,0.365640,861,2475975,-28075.45,1420.81,-2844.83
700,0.366640,862,2476975,-24563.45,2649.81,-5234.83
701,0.367639,863,2477974,-14744.45,1627.81,362.1700000000001
702,0.368639,864,2478974,2182.55,446.81,7019.17
703,0.369639,865,2479974,12107.55,-374.19,8314.17
704,0.370639,866,2480974,19405.55,361.81,4706.17
705,0.371640,867,2481975,15347.55,1525.81,-1047.83
706,0.372640,868,2482975,7374.55,830.81,-3976.83
707,0.373640,869,2483975,284.54999999999995,917.81,-4958.83
708,0.374640,870,2484975,-3261.45,850.81,-5769.83
709,0.375639,871,2485974,-3388.45,-32.19,-6559.83
710,0.376640,872,2486975,-2633.45,-1278.19,-6042.83
711,0.377640,873,2487975,5869.55,-909.19,-6299.83
712,0.378640,874,2488975,12823.55,810.81,-6804.83
713,0.379640,875,2489975,14815.55,487.81,-2157.83
714,0.380639,876,2490974,12047.55,-1539.19,4650.17
715,0.381640,877,2491975,1972.55,-981.19,7209.17
716,0.382639,878,2492974,-6687.45,860.81,4971.17
717,0.383640,879,2493975,-9483.45,838.81,1858.17
718,0.384640,880,2494975,-5864.45,460.81,1426.17
719,0.385640,881,2495975,292.54999999999995,-154.19,1844.17
720,0.386640,882,2496975,3651.55,-369.19,2521.17
721,0.387640,883,2497975,1145.55,-1079.19,2882.17
722,0.388639,884,2498974,-6115.45,-2954.19,5094.17
723,0.389640,885,2499975,-10968.45,-3482.19,8800.17
724,0.390640,886,2500975,-24156.45,-1411.19,3635.17
725,0.391639,887,2501974,-28262.45,1988.81,-4155.83
726,0.392640,888,2502975,-23469.45,2900.81,-4486.83
727,0.393640,889,2503975,-9695.45,1008.81,2300.17
728,0.394640,890,2504975,5979.55,-45.19,7934.17
729,0.395639,891,2505974,14287.55,-322.19,7555.17
730,0.396640,892,2506975,18837.55,713.81,3173.17
731,0.397640,893,2507975,12994.55,1609.81,-2265.83
732,0.398640,894,2508975,4969.55,882.81,-4341.83
733,0.399639,895,2509974,-1316.45,810.81,-5059.83
734,0.400640,896,2510975,-2677.45,878.81,-5942.83
735,0.401640,897,2511975,-4492.45,-286.19,-6431.83
736,0.402640,898,2512975,905.55,-1745.19,-5643.83
737,0.403639,899,2513974,8304.55,-146.19,-6730.83
738,0.404640,900,2514975,13808.55,1106.81,-5935.83
739,0.405640,901,2515975,14412.55,-618.19,-106.82999999999993
740,0.406640,902,2516975,9066.55,-1648.19,5519.17
741,0.407639,903,2517974,-176.45000000000005,-328.19,6829.17
742,0.408640,904,2518975,-8487.45,1241.81,3908.17
743,0.409640,905,2519975,-9439.45,592.81,1503.17
744,0.410639,906,2520974,-3688.45,-23.189999999999998,1506.17
745,0.411639,907,2521974,2461.55,-44.19,1843.17
746,0.412640,908,2522975,2900.55,-347.19,2680.17
747,0.413639,909,2523974,-1389.45,-1583.19,3245.17
748,0.414640,910,2524975,-6952.45,-3423.19,6548.17
749,0.415640,911,2525975,-13567.45,-3170.19,8627.17
750,0.416639,912,2526974,-27311.45,-60.19,681.1700000000001
751,0.417640,913,2527975,-28090.45,2646.81,-5479.83
752,0.418639,914,2528974,-19446.45,2180.81,-2624.83
753,0.419639,915,2529974,-4532.45,637.81,4686.17
754,0.420639,916,2530974,8651.55,-161.19,8580.17
755,0.421639,917,2531974,15159.55,151.81,6153.17
756,0.422639,918,2532974,18095.55,1082.81,1441.17
757,0.423639,919,2533974,11402.55,1180.81,-3084.83
758,0.424640,920,2534975,2724.55,883.81,-4474.83
759,0.425640,921,2535975,-2330.45,924.81,-5346.83
760,0.426640,922,2536975,-3105.45,569.81,-6497.83
761,0.427640,923,2537975,-3996.45,-638.19,-6262.83
762,0.428640,924,2538975,2479.55,-1581.19,-5534.83
763,0.429640,925,2539975,9947.55,313.81,-7225.83
764,0.430640,926,2540975,14936.55,1005.81,-4745.83
765,0.431640,927,2541975,14362.55,-827.19,1765.17
766,0.432640,928,2542975,6453.55,-1541.19,6420.17
767,0.433640,929,2543975,-2986.45,-36.19,6617.17
768,0.434640,930,2544975,-9015.45,1133.81,2890.17
769,0.435640,931,2545975,-8536.45,313.81,1320.17
770,0.436640,932,2546975,-2112.45,53.81,1547.17
771,0.437640,933,2547975,2664.55,-280.19,2150.17
772,0.438640,934,2548975,2798.55,-569.19,2475.17
773,0.439640,935,2549975,-2434.45,-1881.19,3736.17
774,0.440640,936,2550975,-8240.45,-3695.19,7720.17
775,0.441640,937,2551975,-18934.45,-2414.19,7325.17
776,0.442640,938,2552975,-28418.45,679.81,-1058.83
777,0.443640,939,2553975,-25353.45,2625.81,-5343.83
778,0.444639,940,2554974,-16551.45,2047.81,-1005.8299999999999
779,0.445640,941,2555975,-686.45,508.81,6177.17
780,0.446640,942,2556975,10783.55,-196.19,8554.17
781,0.447640,943,2557975,17555.55,282.81,5392.17
782,0.448640,944,2558975,16552.55,1099.81,-165.82999999999993
783,0.449640,945,2559975,9424.55,974.81,-3940.83
784,0.450640,946,2560975,485.54999999999995,1015.81,-4703.83
785,0.451640,947,2561975,-2686.45,804.81,-5736.83
786,0.452640,948,2562975,-2742.45,47.81,-6552.83
787,0.453640,949,2563975,-3544.45,-1070.19,-6090.83
788,0.454640,950,2564975,4067.55,-987.19,-6115.83
789,0.455640,951,2565975,11517.55,523.81,-6974.83
790,0.456640,952,2566975,15560.55,669.81,-3182.83
791,0.457640,953,2567975,12779.55,-946.19,3467.17
792,0.458640,954,2568975,4158.55,-1336.19,7001.17
793,0.459640,955,2569975,-4672.45,524.81,5894.17
794,0.460639,956,2570974,-10013.45,1128.81,2315.17
795,0.461640,957,2571975,-6692.45,256.81,1440.17
796,0.462640,958,2572975,-960.45,-100.19,1964.17
797,0.463640,959,2573975,2819.55,-541.19,2439.17
798,0.464639,960,2574974,2590.55,-823.19,2662.17
799,0.465640,961,2575975,-5159.45,-2219.19,4232.17
800,0.466639,962,2576974,-9831.45,-3816.19,8252.17
801,0.467640,963,2577975,-22019.45,-1898.19,5348.17
802,0.468640,964,2578975,-28437.45,1475.81,-3045.83
803,0.469640,965,2579975,-24242.45,2658.81,-5212.83
804,0.470640,966,2580975,-13917.45,1696.81,648.1700000000001
805,0.471639,967,2581974,3602.55,378.81,7410.17
806,0.472640,968,2582975,13310.55,-376.19,8266.17
807,0.473640,969,2583975,19895.55,463.81,4456.17
808,0.474640,970,2584975,14714.55,1439.81,-1392.83
809,0.475639,971,2585974,6794.55,1034.81,-4243.83
810,0.476639,972,2586974,-714.45,798.81,-4904.83
811,0.477640,973,2587975,-2870.45,650.81,-5907.83
812,0.478640,974,2588975,-4209.45,-33.19,-6502.83
813,0.479639,975,2589974,-1825.45,-1332.19,-6332.83
814,0.480640,976,2590975,7020.55,-748.19,-6458.83
815,0.481640,977,2591975,12600.55,833.81,-6291.83
816,0.482640,978,2592975,15244.55,197.81,-1759.83
817,0.483640,979,2593975,11060.55,-1511.19,5230.17
818,0.484640,980,2594975,1609.55,-751.19,7210.17
819,0.485640,981,2595975,-7285.45,831.81,4548.17
820,0.486639,982,2596974,-9698.45,951.81,2058.17
821,0.487640,983,2597975,-5189.45,237.81,1529.17
822,0.488640,984,2598975,928.55,-41.19,1669.17
823,0.489639,985,2599974,3601.55,-243.19,2634.17
824,0.490640,986,2600975,318.54999999999995,-1532.19,3030.17
825,0.491640,987,2601975,-6573.45,-2920.19,5429.17
826,0.492640,988,2602975,-11443.45,-3559.19,8678.17
827,0.493640,989,2603975,-25410.45,-1053.19,2826.17
828,0.494640,990,2604975,-28963.45,2289.81,-4605.83
829,0.495640,991,2605975,-21835.45,2511.81,-4193.83
830,0.496639,992,2606974,-8260.45,1142.81,2964.17
831,0.497640,993,2607975,6778.55,-235.19,8208.17
832,0.498640,994,2608975,15026.55,-120.19,7134.17
833,0.499640,995,2609975,18305.55,1075.81,2817.17
834,0.500640,996,2610975,13104.55,1336.81,-2507.83
835,0.501640,997,2611975,4607.55,1038.81,-4319.83
836,0.502640,998,2612975,-2132.45,847.81,-4810.83
837,0.503640,999,2613975,-2760.45,686.81,-6264.83
838,0.504640,1000,2614975,-4287.45,-314.19,-6442.83
839,0.505640,1001,2615975,1668.55,-1744.19,-5625.83
840,0.506640,1002,2616975,8465.55,-148.19,-6831.83
841,0.507639,1003,2617974,13792.55,1176.81,-5773.83
842,0.508640,1004,2618975,14485.55,-671.19,410.1700000000001
843,0.509639,1005,2619974,7763.55,-1712.19,5727.17
844,0.510640,1006,2620975,-835.45,-265.19,6575.17
845,0.511639,1007,2621974,-8418.45,1257.81,3751.17
846,0.512640,1008,2622975,-8949.45,384.81,1502.17
847,0.513640,1009,2623975,-3117.45,27.810000000000002,1720.17
848,0.514640,1010,2624975,2458.55,19.810000000000002,2242.17
849,0.515639,1011,2625974,2995.55,-582.19,2655.17
850,0.516640,1012,2626975,-1761.45,-1497.19,3269.17
851,0.517640,1013,2627975,-7417.45,-3428.19,6875.17
852,0.518640,1014,2628975,-14731.45,-3035.19,8238.17
853,0.519639,1015,2629974,-28127.45,209.81,261.1700000000001
854,0.520639,1016,2630974,-27289.45,2445.81,-5354.83
855,0.521640,1017,2631975,-18604.45,2018.81,-2192.83
856,0.522639,1018,2632974,-3171.45,725.81,5066.17
857,0.523640,1019,2633975,9436.55,-309.19,8460.17
858,0.524640,1020,2634975,15564.55,288.81,5678.17
859,0.525639,1021,2635974,17705.55,1108.81,1072.17
860,0.526639,1022,2636974,10384.55,865.81,-3408.83
861,0.527639,1023,2637974,2317.55,1191.81,-4773.83
862,0.528639,1024,2638974,-2665.45,866.81,-5291.83
863,0.529640,1025,2639975,-2689.45,321.81,-6353.83
864,0.530640,1026,2640975,-3774.45,-541.19,-6048.83
865,0.531640,1027,2641975,3152.55,-1532.19,-5543.83
866,0.532640,1028,2642975,10624.55,429.81,-7055.83
867,0.533640,1029,2643975,14656.55,968.81,-4094.83
868,0.534640,1030,2644975,13844.55,-1060.19,2181.17
869,0.535639,1031,2645974,5881.55,-1477.19,6541.17
870,0.536640,1032,2646975,-3710.45,338.81,6257.17
871,0.537640,1033,2647975,-9467.45,1233.81,2461.17
872,0.538640,1034,2648975,-7626.45,52.81,1558.17
873,0.539639,1035,2649974,-1947.45,2.8100000000000023,1426.17
874,0.540640,1036,2650975,2746.55,-195.19,2080.17
875,0.541640,1037,2651975,3036.55,-792.19,2669.17
876,0.542640,1038,2652975,-3500.45,-2112.19,3852.17
877,0.543639,1039,2653974,-8692.45,-3753.19,8221.17
878,0.544640,1040,2654975,-19910.45,-2274.19,6784.17
879,0.545640,1041,2655975,-27696.45,951.81,-2036.83
880,0.546640,1042,2656975,-24942.45,2747.81,-5728.83
881,0.547639,1043,2657974,-16662.45,1992.81,-466.8299999999999
882,0.548640,1044,2658975,291.54999999999995,441.81,6786.17
883,0.549640,1045,2659975,11662.55,-464.19,8567.17
884,0.550640,1046,2660975,18919.55,388.81,5233.17
885,0.551639,1047,2661974,16338.55,1477.81,-613.8299999999999
886,0.552640,1048,2662975,8665.55,849.81,-3940.83
887,0.553639,1049,2663974,-98.45000000000005,933.81,-4883.83
888,0.554640,1050,2664975,-3233.45,903.81,-5861.83
889,0.555640,1051,2665975,-3110.45,124.81,-6403.83
890,0.556640,1052,2666975,-3261.45,-1376.19,-6230.83
891,0.557640,1053,2667975,5059.55,-1064.19,-6077.83
892,0.558640,1054,2668975,12072.55,871.81,-6840.83
893,0.559639,1055,2669974,15233.55,473.81,-2802.83
894,0.560639,1056,2670974,12302.55,-1155.19,3963.17
895,0.561640,1057,2671975,3419.55,-1268.19,7169.17
896,0.562640,1058,2672975,-4987.45,650.81,5659.17
897,0.563640,1059,2673975,-10494.45,1287.81,1835.17
898,0.564640,1060,2674975,-6164.45,46.81,1416.17
899,0.565640,1061,2675975,-74.45000000000005,-92.19,1985.17
900,0.566640,1062,2676975,2506.55,-256.19,2310.17
901,0.567640,1063,2677975,2467.55,-1156.19,2650.17
902,0.568640,1064,2678975,-5689.45,-2454.19,4647.17
903,0.569639,1065,2679974,-10386.45,-3641.19,8654.17
904,0.570639,1066,2680974,-23136.45,-1836.19,4527.17
905,0.571640,1067,2681975,-28382.45,1934.81,-3653.83
906,0.572639,1068,2682974,-23281.45,2774.81,-4639.83
907,0.573639,1069,2683974,-12226.45,1288.81,1469.17
908,0.574639,1070,2684974,4779.55,270.81,7629.17
909,0.575640,1071,2685975,13260.55,-482.19,7938.17
910,0.576639,1072,2686974,19390.55,629.81,3752.17
911,0.577640,1073,2687975,13772.55,1588.81,-1789.83
912,0.578639,1074,2688974,5826.55,849.81,-4243.83
913,0.579640,1075,2689975,-514.45,903.81,-5014.83
914,0.580639,1076,2690974,-2923.45,841.81,-5976.83
915,0.581640,1077,2691975,-3817.45,-325.19,-6470.83
916,0.582639,1078,2692974,-1151.45,-1524.19,-5888.83
917,0.583640,1079,2693975,6992.55,-388.19,-6492.83
918,0.584639,1080,2694974,13439.55,901.81,-6243.83
919,0.585639,1081,2695974,14510.55,18.810000000000002,-1192.83
920,0.586640,1082,2696975,10414.55,-1581.19,5454.17
921,0.587640,1083,2697975,1358.55,-542.19,7063.17
922,0.588639,1084,2698974,-7541.45,1032.81,4203.17
923,0.589640,1085,2699975,-9514.45,508.81,1903.17
924,0.590640,1086,2700975,-4740.45,340.81,1577.17
925,0.591639,1087,2701974,1109.55,-89.19,1798.17
926,0.592640,1088,2702975,3298.55,-594.19,2621.17
927,0.593640,1089,2703975,-440.45000000000005,-1371.19,2946.17
928,0.594640,1090,2704975,-6572.45,-3098.19,5787.17
929,0.595640,1091,2705975,-11948.45,-3354.19,8515.17
930,0.596640,1092,2706975,-26437.45,-705.19,1942.17
931,0.597639,1093,2707974,-28143.45,2350.81,-4852.83
932,0.598639,1094,2708974,-21473.45,2471.81,-3351.83
933,0.599640,1095,2709975,-6878.45,937.81,3682.17
934,0.600640,1096,2710975,8171.55,-261.19,8311.17
935,0.601639,1097,2711974,14742.55,87.81,6925.17
936,0.602640,1098,2712975,18629.55,1120.81,2271.17
937,0.603639,1099,2713974,12189.55,1050.81,-2902.83
938,0.604639,1100,2714974,4000.55,1061.81,-4292.83
939,0.605640,1101,2715975,-2116.45,903.81,-5125.83
940,0.606640,1102,2716975,-3071.45,657.81,-6474.83
941,0.607640,1103,2717975,-4442.45,-506.19,-6125.83
942,0.608639,1104,2718974,1715.55,-1861.19,-5634.83
943,0.609640,1105,2719975,8597.55,227.81,-7186.83
944,0.610640,1106,2720975,14031.55,1162.81,-5456.83
945,0.611640,1107,2721975,14487.55,-732.19,675.1700000000001
946,0.612640,1108,2722975,8420.55,-1701.19,6498.17
947,0.613640,1109,2723975,-1730.45,25.810000000000002,6793.17
948,0.614640,1110,2724975,-9150.45,1235.81,3065.17
949,0.615639,1111,2725974,-8291.45,478.81,1664.17
950,0.616640,1112,2726975,-3177.45,172.81,1728.17
951,0.617639,1113,2727974,3051.55,-405.19,2188.17
952,0.618639,1114,2728974,2961.55,-592.19,2653.17
953,0.619640,1115,2729975,-1804.45,-1642.19,3307.17
954,0.620640,1116,2730975,-7749.45,-3408.19,6939.17
955,0.621640,1117,2731975,-16285.45,-3020.19,7963.17
956,0.622640,1118,2732975,-28261.45,261.81,-399.8299999999999
957,0.623640,1119,2733975,-27228.45,2720.81,-5391.83
958,0.624640,1120,2734975,-18075.45,1931.81,-1969.83
959,0.625640,1121,2735975,-2377.45,605.81,5377.17
960,0.626639,1122,2736974,10152.55,-119.19,8844.17
961,0.627640,1123,2737975,16496.55,113.81,5619.17
962,0.628639,1124,2738974,17475.55,1203.81,593.1700000000001
963,0.629639,1125,2739974,10184.55,1227.81,-3382.83
964,0.630640,1126,2740975,1547.55,989.81,-4478.83
965,0.631640,1127,2741975,-2720.45,934.81,-5167.83
966,0.632640,1128,2742975,-2934.45,302.81,-6432.83
967,0.633639,1129,2743974,-3442.45,-751.19,-6371.83
968,0.634640,1130,2744975,3358.55,-1416.19,-5572.83
969,0.635640,1131,2745975,10257.55,337.81,-6949.83
970,0.636640,1132,2746975,15123.55,790.81,-4224.83
971,0.637640,1133,2747975,13819.55,-955.19,2623.17
972,0.638640,1134,2748975,5069.55,-1247.19,6494.17
973,0.639640,1135,2749975,-3724.45,165.81,6101.17
974,0.640639,1136,2750974,-9750.45,1262.81,2604.17
975,0.641639,1137,2751974,-7170.45,111.81,1518.17
976,0.642640,1138,2752975,-1548.45,-13.189999999999998,1849.17
977,0.643640,1139,2753975,2576.55,-71.19,2162.17
978,0.644640,1140,2754975,3322.55,-1046.19,2849.17
979,0.645640,1141,2755975,-3924.45,-1965.19,4045.17
980,0.646640,1142,2756975,-9065.45,-3517.19,7799.17
981,0.647640,1143,2757975,-20286.45,-2472.19,6367.17
982,0.648640,1144,2758975,-28600.45,1128.81,-2094.83
983,0.649640,1145,2759975,-24867.45,2804.81,-5431.83
984,0.650640,1146,2760975,-15465.45,1746.81,-170.82999999999993
985,0.651640,1147,2761975,1016.55,494.81,6831.17
986,0.652640,1148,2762975,12770.55,-449.19,8455.17
987,0.653640,1149,2763975,18826.55,386.81,4857.17
988,0.654640,1150,2764975,15467.55,1504.81,-797.8299999999999
989,0.655639,1151,2765974,8022.55,850.81,-4023.83
990,0.656640,1152,2766975,-644.45,1103.81,-4898.83
991,0.657640,1153,2767975,-3049.45,800.81,-5592.83
992,0.658640,1154,2768975,-2909.45,-154.19,-6529.83
993,0.659640,1155,2769975,-2680.45,-1077.19,-6148.83
994,0.660640,1156,2770975,5432.55,-933.19,-5948.83
995,0.661639,1157,2771974,12248.55,746.81,-6628.83
996,0.662640,1158,2772975,15065.55,479.81,-2566.83
997,0.663640,1159,2773975,11536.55,-1366.19,4315.17
998,0.664640,1160,2774975,2946.55,-1016.19,7003.17
999,0.665640,1161,2775975,-5511.45,702.81,5024.17
1000,0.666640,1162,2776975,-9792.45,1063.81,1829.17
1001,0.667639,1163,2777974,-6197.45,269.81,1503.17
1002,0.668639,1164,2778974,-170.45000000000005,-246.19,1997.17
1003,0.669639,1165,2779974,3441.55,-309.19,2178.17
1004,0.670640,1166,2780975,1903.55,-1003.19,2794.17
1005,0.671640,1167,2781975,-5824.45,-2604.19,4924.17
1006,0.672640,1168,2782975,-10488.45,-3652.19,8610.17
1007,0.673640,1169,2783975,-23192.45,-1635.19,4296.17
1008,0.674639,1170,2784974,-27837.45,1985.81,-3772.83
1009,0.675639,1171,2785974,-23599.45,2816.81,-4624.83
1010,0.676640,1172,2786975,-11767.45,1207.81,1803.17
1011,0.677640,1173,2787975,5286.55,4.810000000000002,7691.17
1012,0.678640,1174,2788975,13138.55,-254.19,7741.17
1013,0.679640,1175,2789975,19169.55,784.81,3547.17
1014,0.680640,1176,2790975,13274.55,1401.81,-1918.83
1015,0.681640,1177,2791975,6115.55,881.81,-3900.83
1016,0.682639,1178,2792974,-779.45,927.81,-4975.83
1017,0.683640,1179,2793975,-3094.45,833.81,-6263.83
1018,0.684640,1180,2794975,-3829.45,-202.19,-6451.83
1019,0.685640,1181,2795975,-886.45,-1698.19,-5730.83
1020,0.686639,1182,2796974,7853.55,-408.19,-6333.83
1021,0.687639,1183,2797974,12807.55,1054.81,-6109.83
1022,0.688640,1184,2798975,14457.55,-125.19,-1064.83
1023,0.689639,1185,2799974,9714.55,-1449.19,5085.17
1024,0.690639,1186,2800974,1489.55,-775.19,7101.17
1025,0.691640,1187,2801975,-7023.45,1102.81,4563.17
1026,0.692640,1188,2802975,-10309.45,777.81,1636.17
1027,0.693640,1189,2803975,-4343.45,57.81,1451.17
1028,0.694640,1190,2804975,1141.55,-118.19,1974.17
1029,0.695640,1191,2805975,3518.55,-515.19,2423.17
1030,0.696640,1192,2806975,-215.45000000000005,-1345.19,2854.17
1031,0.697640,1193,2807975,-7174.45,-3024.19,5827.17
1032,0.698639,1194,2808974,-11528.45,-3461.19,8536.17
1033,0.699640,1195,2809975,-26090.45,-747.19,2102.17
1034,0.700640,1196,2810975,-27915.45,2399.81,-4512.83
1035,0.701639,1197,2811974,-20814.45,2377.81,-3482.83
1036,0.702640,1198,2812975,-7494.45,980.81,3417.17
1037,0.703639,1199,2813974,8184.55,-209.19,8431.17
1038,0.704639,1200,2814974,14196.55,-106.19,6731.17
1039,0.705640,1201,2815975,18590.55,1191.81,2046.17
1040,0.706640,1202,2816975,11801.55,1228.81,-2675.83
1041,0.707640,1203,2817975,3917.55,902.81,-4283.83
1042,0.708640,1204,2818975,-1749.45,940.81,-5188.83
1043,0.709640,1205,2819975,-3750.45,666.81,-6110.83
1044,0.710639,1206,2820974,-4186.45,-496.19,-6321.83
1045,0.711640,1207,2821975,1649.55,-1692.19,-5698.83
1046,0.712639,1208,2822974,9355.55,176.81,-6908.83
1047,0.713640,1209,2823975,14092.55,1041.81,-5092.83
1048,0.714640,1210,2824975,15049.55,-680.19,765.1700000000001
1049,0.715639,1211,2825974,7928.55,-1757.19,6198.17
1050,0.716639,1212,2826974,-1964.45,199.81,6786.17
1051,0.717640,1213,2827975,-9249.45,1341.81,2972.17
1052,0.718640,1214,2828975,-8672.45,103.81,1505.17
1053,0.719640,1215,2829975,-2344.45,278.81,1751.17
1054,0.720639,1216,2830974,2119.55,-472.19,2131.17
1055,0.721640,1217,2831975,3744.55,-672.19,2563.17
1056,0.722640,1218,2832975,-2386.45,-1499.19,3302.17
1057,0.723640,1219,2833975,-7789.45,-3605.19,6949.17
1058,0.724640,1220,2834975,-15384.45,-2858.19,7922.17
1059,0.725640,1221,2835975,-28538.45,217.81,-350.8299999999999
1060,0.726640,1222,2836975,-26030.45,2617.81,-5362.83
1061,0.727639,1223,2837974,-19007.45,2148.81,-1977.83
1062,0.728640,1224,2838975,-2492.45,625.81,5237.17
1063,0.729640,1225,2839975,10154.55,-269.19,8846.17
1064,0.730639,1226,2840974,16174.55,300.81,5883.17
1065,0.731640,1227,2841975,17344.55,1406.81,598.1700000000001
1066,0.732640,1228,2842975,10206.55,909.81,-3064.83
1067,0.733640,1229,2843975,2040.55,921.81,-4411.83
1068,0.734640,1230,2844975,-3156.45,903.81,-5484.83
1069,0.735640,1231,2845975,-2637.45,295.81,-6555.83
1070,0.736640,1232,2846975,-3899.45,-687.19,-6553.83
1071,0.737640,1233,2847975,3130.55,-1479.19,-5654.83
1072,0.738639,1234,2848974,10484.55,273.81,-6908.83
1073,0.739640,1235,2849975,14784.55,1004.81,-4328.83
1074,0.740639,1236,2850974,13466.55,-870.19,2568.17
1075,0.741640,1237,2851975,5683.55,-1579.19,6697.17
1076,0.742640,1238,2852975,-3006.45,152.81,6345.17
1077,0.743640,1239,2853975,-9773.45,1443.81,2756.17
1078,0.744639,1240,2854974,-8071.45,260.81,1414.17
1079,0.745640,1241,2855975,-1332.45,-196.19,1866.17
1080,0.746639,1242,2856974,3291.55,-343.19,2071.17
1081,0.747640,1243,2857975,2959.55,-559.19,2728.17
1082,0.748640,1244,2858975,-3942.45,-2041.19,3964.17
1083,0.749640,1245,2859975,-9031.45,-3852.19,7739.17
1084,0.750639,1246,2860974,-19957.45,-2063.19,6584.17
1085,0.751640,1247,2861975,-28182.45,714.81,-1809.83
1086,0.752639,1248,2862974,-24481.45,2577.81,-5370.83
1087,0.753640,1249,2863975,-16054.45,1968.81,-422.8299999999999
1088,0.754639,1250,2864974,810.55,357.81,6210.17
1089,0.755640,1251,2865975,12179.55,-179.19,8410.17
1090,0.756639,1252,2866974,17785.55,360.81,4875.17
1091,0.757640,1253,2867975,15894.55,1256.81,-576.8299999999999
1092,0.758640,1254,2868975,8334.55,1023.81,-3434.83
1093,0.759640,1255,2869975,96.54999999999995,994.81,-4978.83
1094,0.760640,1256,2870975,-2686.45,903.81,-5584.83
1095,0.761640,1257,2871975,-3125.45,-145.19,-6118.83
1096,0.762640,1258,2872975,-2524.45,-1015.19,-6277.83
1097,0.763640,1259,2873975,5000.55,-892.19,-6169.83
1098,0.764640,1260,2874975,12244.55,549.81,-6706.83
1099,0.765639,1261,2875974,14282.55,707.81,-2776.83
1100,0.766640,1262,2876975,11911.55,-1490.19,4171.17
1101,0.767639,1263,2877974,3854.55,-1202.19,6708.17
1102,0.768640,1264,2878975,-5839.45,866.81,5261.17
1103,0.769639,1265,2879974,-9712.45,1080.81,2001.17
1104,0.770640,1266,2880975,-6430.45,8.810000000000002,1544.17
1105,0.771640,1267,2881975,82.54999999999995,-147.19,1868.17
1106,0.772640,1268,2882975,3198.55,-178.19,2179.17
1107,0.773640,1269,2883975,1565.55,-1035.19,2848.17
1108,0.774640,1270,2884975,-5154.45,-2680.19,4837.17
1109,0.775640,1271,2885975,-10617.45,-3558.19,8672.17
1110,0.776640,1272,2886975,-23084.45,-1540.19,4320.17
1111,0.777640,1273,2887975,-27954.45,1734.81,-3686.83
1112,0.778639,1274,2888974,-23598.45,2964.81,-4713.83
1113,0.779640,1275,2889975,-11722.45,1176.81,1803.17
1114,0.780640,1276,2890975,5234.55,62.81,7716.17
1115,0.781640,1277,2891975,13097.55,-379.19,7787.17
1116,0.782640,1278,2892975,19159.55,612.81,3532.17
1117,0.783640,1279,2893975,13064.55,1807.81,-2088.83
1118,0.784640,1280,2894975,5400.55,630.81,-4121.83
1119,0.785640,1281,2895975,-279.45000000000005,925.81,-5030.83
1120,0.786640,1282,2896975,-3401.45,974.81,-5861.83
1121,0.787640,1283,2897975,-3397.45,-480.19,-6488.83
1122,0.788640,1284,2898975,-686.45,-1670.19,-5761.83
1123,0.789640,1285,2899975,7875.55,-260.19,-6344.83
1124,0.790640,1286,2900975,12897.55,1010.81,-6131.83
1125,0.791639,1287,2901974,14245.55,-76.19,-1047.83
1126,0.792640,1288,2902975,10034.55,-1535.19,5201.17
1127,0.793640,1289,2903975,944.55,-526.19,7144.17
1128,0.794640,1290,2904975,-7229.45,1045.81,4273.17
1129,0.795640,1291,2905975,-9549.45,490.81,1700.17
1130,0.796640,1292,2906975,-4107.45,414.81,1390.17
1131,0.797639,1293,2907974,775.55,-158.19,1856.17
1132,0.798639,1294,2908974,3708.55,-573.19,2415.17
1133,0.799640,1295,2909975,-464.45000000000005,-1292.19,2823.17
1134,0.800640,1296,2910975,-6586.45,-3113.19,6018.17
1135,0.801640,1297,2911975,-12033.45,-3370.19,8623.17
1136,0.802640,1298,2912975,-26409.45,-762.19,1972.17
1137,0.803639,1299,2913974,-27104.45,2360.81,-4648.83
1138,0.804640,1300,2914975,-21153.45,2456.81,-3415.83
1139,0.805640,1301,2915975,-7294.45,839.81,3510.17
1140,0.806640,1302,2916975,7695.55,-73.19,8366.17
1141,0.807640,1303,2917975,14185.55,68.81,6726.17
1142,0.808640,1304,2918975,17604.55,1086.81,2135.17
1143,0.809640,1305,2919975,12075.55,1168.81,-2320.83
1144,0.810639,1306,2920974,4441.55,960.81,-4316.83
1145,0.811640,1307,2921975,-1250.45,809.81,-4953.83
1146,0.812639,1308,2922974,-3346.45,421.81,-6101.83
1147,0.813639,1309,2923974,-4521.45,-200.19,-6789.83
1148,0.814640,1310,2924975,1185.55,-1563.19,-5857.83
1149,0.815639,1311,2925974,8476.55,-41.19,-6821.83
1150,0.816640,1312,2926975,14288.55,1107.81,-5206.83
1151,0.817640,1313,2927975,14575.55,-680.19,750.1700000000001
1152,0.818640,1314,2928975,8691.55,-1508.19,5991.17
1153,0.819640,1315,2929975,-899.45,-239.19,6989.17
1154,0.820639,1316,2930974,-9098.45,1435.81,3573.17
1155,0.821640,1317,2931975,-9197.45,473.81,1599.17
1156,0.822640,1318,2932975,-2824.45,-255.19,1714.17
1157,0.823640,1319,2933975,2413.55,-119.19,1944.17
1158,0.824640,1320,2934975,3066.55,-657.19,2565.17
1159,0.825640,1321,2935975,-1889.45,-1555.19,3097.17
1160,0.826639,1322,2936974,-7843.45,-3359.19,6652.17
1161,0.827640,1323,2937975,-14749.45,-3087.19,8113.17
1162,0.828639,1324,2938974,-27923.45,107.81,227.17000000000007
1163,0.829639,1325,2939974,-27594.45,2689.81,-5515.83
1164,0.830640,1326,2940975,-17757.45,2228.81,-2247.83
1165,0.831640,1327,2941975,-3150.45,611.81,5353.17
1166,0.832640,1328,2942975,9790.55,-260.19,8734.17
1167,0.833640,1329,2943975,15935.55,252.81,5963.17
1168,0.834640,1330,2944975,17248.55,1310.81,621.1700000000001
1169,0.835640,1331,2945975,11019.55,949.81,-3491.83
1170,0.836639,1332,2946974,1796.55,919.81,-4235.83
1171,0.837640,1333,2947975,-2904.45,899.81,-5357.83
1172,0.838640,1334,2948975,-2874.45,355.81,-6566.83
1173,0.839640,1335,2949975,-3801.45,-773.19,-6105.83
1174,0.840640,1336,2950975,2885.55,-1433.19,-6015.83
1175,0.841640,1337,2951975,10242.55,545.81,-7104.83
1176,0.842640,1338,2952975,14506.55,747.81,-4024.83
1177,0.843639,1339,2953974,14494.55,-1097.19,2287.17
1178,0.844639,1340,2954974,5550.55,-1262.19,6807.17
1179,0.845640,1341,2955975,-3917.45,191.81,6301.17
1180,0.846639,1342,2956974,-9332.45,1360.81,2499.17
1181,0.847639,1343,2957974,-7975.45,503.81,1317.17
1182,0.848639,1344,2958974,-941.45,-346.19,1811.17
1183,0.849640,1345,2959975,3117.55,-274.19,2440.17
1184,0.850639,1346,2960974,3062.55,-709.19,2771.17
1185,0.851640,1347,2961975,-3560.45,-2141.19,3876.17
1186,0.852640,1348,2962975,-8821.45,-3486.19,7797.17
1187,0.853640,1349,2963975,-19718.45,-2392.19,6265.17
1188,0.854640,1350,2964975,-28154.45,802.81,-2141.83
1189,0.855640,1351,2965975,-24832.45,2611.81,-5127.83
1190,0.856640,1352,2966975,-16574.45,1683.81,-768.8299999999999
1191,0.857640,1353,2967975,679.55,428.81,6366.17
1192,0.858640,1354,2968975,11134.55,-176.19,8487.17
1193,0.859639,1355,2969974,18224.55,389.81,4824.17
1194,0.860639,1356,2970974,16278.55,1458.81,-372.8299999999999
1195,0.861640,1357,2971975,8442.55,1035.81,-3545.83
1196,0.862640,1358,2972975,256.54999999999995,933.81,-4453.83
1197,0.863640,1359,2973975,-2918.45,782.81,-5556.83
1198,0.864640,1360,2974975,-2837.45,183.81,-6359.83
1199,0.865640,1361,2975975,-2964.45,-1007.19,-6175.83
1200,0.866640,1362,2976975,4697.55,-1274.19,-5739.83
1201,0.867640,1363,2977975,12023.55,674.81,-6658.83
1202,0.868640,1364,2978975,14986.55,716.81,-3016.83
1203,0.869640,1365,2979975,12033.55,-1287.19,3368.17
1204,0.870640,1366,2980975,3615.55,-1326.19,6871.17
1205,0.871639,1367,2981974,-5870.45,636.81,5538.17
1206,0.872640,1368,2982975,-9399.45,1012.81,1822.17
1207,0.873639,1369,2983974,-6599.45,127.81,1441.17
1208,0.874640,1370,2984975,-342.45000000000005,-12.189999999999998,1846.17
1209,0.875639,1371,2985974,3605.55,-234.19,2360.17
1210,0.876640,1372,2986975,1965.55,-916.19,2692.17
1211,0.877640,1373,2987975,-4605.45,-2625.19,4889.17
1212,0.878640,1374,2988975,-10241.45,-3620.19,8675.17
1213,0.879639,1375,2989974,-22678.45,-1618.19,4704.17
1214,0.880640,1376,2990975,-28653.45,1596.81,-3486.83
1215,0.881640,1377,2991975,-23589.45,2839.81,-4866.83
1216,0.882640,1378,2992975,-12472.45,1258.81,1562.17
1217,0.883639,1379,2993974,4133.55,139.81,7380.17
1218,0.884640,1380,2994975,13590.55,-222.19,7967.17
1219,0.885639,1381,2995974,18393.55,573.81,3598.17
1220,0.886640,1382,2996975,14000.55,1389.81,-1822.83
1221,0.887640,1383,2997975,5737.55,906.81,-3909.83
1222,0.888640,1384,2998975,-731.45,1049.81,-5183.83
1223,0.889639,1385,2999974,-2689.45,706.81,-5656.83
1224,0.890639,1386,3000974,-4023.45,-236.19,-6280.83
1225,0.891640,1387,3001975,-793.45,-1333.19,-5934.83
1226,0.892640,1388,3002975,7312.55,-416.19,-6367.83
1227,0.893640,1389,3003975,12855.55,844.81,-6016.83
1228,0.894640,1390,3004975,14971.55,-27.189999999999998,-1036.83
1229,0.895640,1391,3005975,10425.55,-1336.19,4949.17
1230,0.896640,1392,3006975,1215.55,-739.19,6817.17
1231,0.897640,1393,3007975,-7105.45,833.81,4243.17
1232,0.898640,1394,3008975,-10121.45,947.81,1662.17
1233,0.899640,1395,3009975,-4734.45,100.81,1537.17
1234,0.900640,1396,3010975,1425.55,-300.19,1758.17
1235,0.901640,1397,3011975,3244.55,-296.19,2434.17
1236,0.902640,1398,3012975,185.54999999999995,-1400.19,2938.17
1237,0.903640,1399,3013975,-6580.45,-2944.19,5592.17
1238,0.904640,1400,3014975,-11421.45,-3430.19,8674.17
1239,0.905640,1401,3015975,-25565.45,-1032.19,2737.17
1240,0.906640,1402,3016975,-28315.45,2439.81,-4517.83
1241,0.907639,1403,3017974,-21419.45,2457.81,-3809.83
1242,0.908639,1404,3018974,-7679.45,1010.81,3256.17
1243,0.909640,1405,3019975,7096.55,-31.189999999999998,8376.17
1244,0.910640,1406,3020975,13929.55,-156.19,6987.17
1245,0.911640,1407,3021975,18480.55,990.81,2573.17
1246,0.912639,1408,3022974,12289.55,1361.81,-2596.83
1247,0.913639,1409,3023974,4300.55,936.81,-4129.83
1248,0.914640,1410,3024975,-1772.45,731.81,-5259.83
1249,0.915639,1411,3025974,-2699.45,791.81,-6579.83
1250,0.916640,1412,3026975,-4668.45,-532.19,-6249.83
1251,0.917640,1413,3027975,1072.55,-1715.19,-5859.83
1252,0.918640,1414,3028975,8467.55,30.810000000000002,-6649.83
1253,0.919639,1415,3029974,13590.55,1098.81,-5638.83
1254,0.920640,1416,3030975,14536.55,-315.19,85.17000000000007
1255,0.921640,1417,3031975,8744.55,-1907.19,6336.17
1256,0.922640,1418,3032975,-180.45000000000005,-94.19,6880.17
1257,0.923640,1419,3033975,-8097.45,1365.81,3703.17
1258,0.924640,1420,3034975,-9338.45,292.81,1685.17
1259,0.925640,1421,3035975,-3290.45,89.81,1668.17
1260,0.926640,1422,3036975,2321.55,-258.19,2056.17
1261,0.927639,1423,3037974,2608.55,-319.19,2160.17
1262,0.928640,1424,3038975,-1412.45,-1462.19,2913.17
1263,0.929640,1425,3039975,-7715.45,-3547.19,6697.17
1264,0.930639,1426,3040974,-14076.45,-3193.19,8328.17
1265,0.931639,1427,3041974,-27782.45,-6.189999999999998,493.1700000000001
1266,0.932640,1428,3042975,-27266.45,2589.81,-5087.83
1267,0.933640,1429,3043975,-18971.45,2080.81,-2533.83
1268,0.934640,1430,3044975,-3055.45,695.81,4755.17
1269,0.935640,1431,3045975,8705.55,-162.19,8707.17
1270,0.936640,1432,3046975,14950.55,343.81,5824.17
1271,0.937640,1433,3047975,17628.55,1353.81,1172.17
1272,0.938639,1434,3048974,10979.55,926.81,-2819.83
1273,0.939639,1435,3049974,3312.55,814.81,-4425.83
1274,0.940640,1436,3050975,-2799.45,1021.81,-5245.83
1275,0.941640,1437,3051975,-2670.45,426.81,-6366.83
1276,0.942640,1438,3052975,-4199.45,-648.19,-6588.83
1277,0.943640,1439,3053975,2662.55,-1419.19,-5427.83
1278,0.944640,1440,3054975,9751.55,290.81,-7037.83
1279,0.945640,1441,3055975,14847.55,893.81,-4646.83
1280,0.946640,1442,3056975,13815.55,-824.19,2060.17
1281,0.947639,1443,3057974,6431.55,-1411.19,6259.17
1282,0.948640,1444,3058975,-3091.45,77.81,6468.17
1283,0.949640,1445,3059975,-9377.45,1092.81,2912.17
1284,0.950640,1446,3060975,-7635.45,241.81,1525.17
1285,0.951640,1447,3061975,-2705.45,208.81,1539.17
1286,0.952639,1448,3062974,3066.55,-323.19,2042.17
1287,0.953639,1449,3063974,3187.55,-839.19,2930.17
1288,0.954639,1450,3064974,-3060.45,-1867.19,3835.17
1289,0.955640,1451,3065975,-8071.45,-3646.19,7670.17
1290,0.956640,1452,3066975,-19321.45,-2419.19,6963.17
1291,0.957640,1453,3067975,-28036.45,840.81,-1713.83
1292,0.958639,1454,3068974,-25009.45,2717.81,-5222.83
1293,0.959640,1455,3069975,-17212.45,1791.81,-671.8299999999999
1294,0.960640,1456,3070975,432.54999999999995,312.81,6223.17
1295,0.961640,1457,3071975,11322.55,-188.19,8586.17
1296,0.962640,1458,3072975,17511.55,448.81,4995.17
1297,0.963639,1459,3073974,16577.55,1257.81,-326.8299999999999
1298,0.964639,1460,3074974,8565.55,828.81,-3681.83
1299,0.965640,1461,3075975,816.55,1190.81,-4907.83
1300,0.966640,1462,3076975,-3394.45,793.81,-5531.83
1301,0.967640,1463,3077975,-2577.45,-35.19,-6356.83
1302,0.968639,1464,3078974,-3588.45,-966.19,-5904.83
1303,0.969640,1465,3079975,4055.55,-1125.19,-5855.83
1304,0.970639,1466,3080974,12578.55,805.81,-6852.83
1305,0.971640,1467,3081975,14501.55,746.81,-3099.83
1306,0.972640,1468,3082975,12716.55,-1326.19,3422.17
1307,0.973640,1469,3083975,3797.55,-1372.19,7299.17
1308,0.974640,1470,3084975,-5140.45,693.81,5512.17
1309,0.975640,1471,3085975,-9508.45,1153.81,1789.17
1310,0.976640,1472,3086975,-7115.45,220.81,1534.17
1311,0.977640,1473,3087975,-116.45000000000005,-159.19,1765.17
1312,0.978640,1474,3088975,3307.55,-363.19,2230.17
1313,0.979640,1475,3089975,2433.55,-928.19,2722.17
1314,0.980640,1476,3090975,-4551.45,-2412.19,4651.17
1315,0.981640,1477,3091975,-10383.45,-3552.19,8301.17
1316,0.982639,1478,3092974,-22248.45,-1984.19,4998.17
1317,0.983640,1479,3093975,-27728.45,1436.81,-3034.83
1318,0.984640,1480,3094975,-23732.45,2889.81,-5011.83
1319,0.985640,1481,3095975,-13517.45,1484.81,832.1700000000001
1320,0.986639,1482,3096974,3873.55,232.81,7447.17
1321,0.987639,1483,3097974,12003.55,-344.19,8158.17
1322,0.988640,1484,3098975,19295.55,523.81,3982.17
1323,0.989639,1485,3099974,14099.55,1497.81,-1507.83
1324,0.990640,1486,3100975,6204.55,886.81,-3939.83
1325,0.991640,1487,3101975,-43.450000000000045,986.81,-4916.83
1326,0.992640,1488,3102975,-3254.45,779.81,-5586.83
1327,0.993639,1489,3103974,-3230.45,-342.19,-6315.83
1328,0.994640,1490,3104975,-1877.45,-1221.19,-6291.83
1329,0.995640,1491,3105975,6461.55,-549.19,-6112.83
1330,0.996640,1492,3106975,12679.55,730.81,-6256.83
1331,0.997640,1493,3107975,14376.55,395.81,-1964.83
1332,0.998640,1494,3108975,11112.55,-1570.19,4927.17
1333,0.999640,1495,3109975,2547.55,-734.19,7113.17
1334,1.000640,1496,3110975,-6617.45,928.81,4543.17
1335,1.001640,1497,3111975,-9746.45,767.81,1702.17
1336,1.002640,1498,3112975,-5570.45,341.81,1603.17
1337,1.003640,1499,3113975,594.55,-409.19,2170.17
1338,1.004640,1500,3114975,3335.55,-280.19,2269.17
1339,1.005640,1501,3115975,564.55,-1175.19,2607.17
1340,1.006640,1502,3116975,-5722.45,-3054.19,5325.17
1341,1.007640,1503,3117975,-11398.45,-3351.19,8424.17
1342,1.008640,1504,3118975,-24448.45,-1176.19,3180.17
1343,1.009639,1505,3119974,-27789.45,1969.81,-3952.83
1344,1.010640,1506,3120975,-22530.45,2830.81,-4039.83
1345,1.011640,1507,3121975,-9250.45,962.81,2630.17
1346,1.012640,1508,3122975,6371.55,-146.19,7954.17
1347,1.013640,1509,3123975,13923.55,15.810000000000002,7230.17
1348,1.014640,1510,3124975,18108.55,950.81,2757.17
1349,1.015640,1511,3125975,12803.55,1293.81,-2172.83
1350,1.016640,1512,3126975,5211.55,821.81,-4150.83
1351,1.017639,1513,3127974,-1401.45,1064.81,-4994.83
1352,1.018640,1514,3128975,-2684.45,640.81,-6250.83
1353,1.019639,1515,3129974,-4190.45,-347.19,-6528.83
1354,1.020640,1516,3130975,-15.450000000000045,-1656.19,-5305.83
1355,1.021640,1517,3131975,8339.55,-58.19,-6793.83
1356,1.022640,1518,3132975,13609.55,1194.81,-5669.83
1357,1.023640,1519,3133975,14514.55,-652.19,26.170000000000073
1358,1.024640,1520,3134975,9165.55,-1616.19,5404.17
1359,1.025639,1521,3135974,-302.45000000000005,-388.19,6913.17
1360,1.026640,1522,3136975,-7818.45,1227.81,3937.17
1361,1.027640,1523,3137975,-10007.45,629.81,1414.17
1362,1.028640,1524,3138975,-3625.45,101.81,1590.17
1363,1.029639,1525,3139974,2745.55,-206.19,2087.17
1364,1.030639,1526,3140974,2770.55,-487.19,2448.17
1365,1.031640,1527,3141975,-613.45,-1541.19,3272.17
1366,1.032640,1528,3142975,-6906.45,-3442.19,6564.17
1367,1.033639,1529,3143974,-13659.45,-2937.19,8259.17
1368,1.034640,1530,3144975,-27368.45,-340.19,864.1700000000001
1369,1.035640,1531,3145975,-27850.45,2397.81,-5205.83
1370,1.036640,1532,3146975,-19681.45,2365.81,-2786.83
1371,1.037640,1533,3147975,-4488.45,588.81,4412.17
1372,1.038640,1534,3148975,8406.55,-176.19,8463.17
1373,1.039639,1535,3149974,14835.55,190.81,6273.17
1374,1.040640,1536,3150975,18139.55,1069.81,1540.17
1375,1.041640,1537,3151975,11376.55,1156.81,-3074.83
1376,1.042640,1538,3152975,3130.55,1064.81,-4579.83
1377,1.043640,1539,3153975,-2825.45,909.81,-5091.83
1378,1.044640,1540,3154975,-2957.45,382.81,-5974.83
1379,1.045640,1541,3155975,-3884.45,-621.19,-6150.83
1380,1.046639,1542,3156974,2266.55,-1379.19,-5780.83
1381,1.047640,1543,3157975,9495.55,256.81,-7021.83
1382,1.048640,1544,3158975,14787.55,915.81,-4684.83
1383,1.049639,1545,3159974,14047.55,-726.19,1377.17
1384,1.050640,1546,3160975,7183.55,-1578.19,6542.17
1385,1.051639,1547,3161974,-2900.45,118.81,6487.17
1386,1.052640,1548,3162975,-9388.45,1066.81,2674.17
1387,1.053640,1549,3163975,-8021.45,295.81,1528.17
1388,1.054640,1550,3164975,-2990.45,189.81,1685.17
1389,1.055639,1551,3165974,3367.55,-493.19,2117.17
1390,1.056639,1552,3166974,3121.55,-492.19,2349.17
1391,1.057639,1553,3167974,-2296.45,-1657.19,3576.17
1392,1.058639,1554,3168974,-7710.45,-3801.19,7512.17
1393,1.059639,1555,3169974,-18079.45,-2608.19,7445.17
1394,1.060639,1556,3170974,-28485.45,618.81,-1084.83
1395,1.061640,1557,3171975,-25697.45,2683.81,-5349.83
1396,1.062640,1558,3172975,-17470.45,1971.81,-1139.83
1397,1.063640,1559,3173975,-560.45,411.81,5849.17
1398,1.064640,1560,3174975,10820.55,-270.19,8617.17
1399,1.065640,1561,3175975,16815.55,316.81,5215.17
1400,1.066640,1562,3176975,16543.55,1486.81,-116.82999999999993
1401,1.067640,1563,3177975,8811.55,937.81,-3327.83
1402,1.068640,1564,3178975,1344.55,774.81,-4679.83
1403,1.069640,1565,3179975,-2855.45,1080.81,-5576.83
1404,1.070640,1566,3180975,-2967.45,159.81,-6312.83
1405,1.071640,1567,3181975,-3172.45,-930.19,-6326.83
1406,1.072639,1568,3182974,3649.55,-1190.19,-5260.83
1407,1.073640,1569,3183975,11313.55,496.81,-6889.83
1408,1.074639,1570,3184974,14907.55,891.81,-3779.83
1409,1.075640,1571,3185975,12818.55,-1198.19,3322.17
1410,1.076640,1572,3186975,5256.55,-1216.19,6400.17
1411,1.077640,1573,3187975,-4585.45,515.81,5833.17
1412,1.078640,1574,3188975,-9852.45,936.81,2390.17
1413,1.079640,1575,3189975,-7166.45,251.81,1449.17
1414,1.080640,1576,3190975,-1420.45,47.81,1639.17
1415,1.081640,1577,3191975,3299.55,-481.19,2008.17
1416,1.082640,1578,3192975,2870.55,-810.19,2921.17
1417,1.083639,1579,3193974,-4016.45,-2240.19,4284.17
1418,1.084640,1580,3194975,-9194.45,-3745.19,8084.17
1419,1.085639,1581,3195974,-21397.45,-1840.19,5776.17
1420,1.086640,1582,3196975,-28240.45,1172.81,-2695.83
1421,1.087640,1583,3197975,-24252.45,2664.81,-5145.83
1422,1.088639,1584,3198974,-14576.45,1652.81,508.1700000000001
1423,1.089640,1585,3199975,2062.55,369.81,7029.17
1424,1.090640,1586,3200975,12878.55,-51.19,8239.17
1425,1.091639,1587,3201974,18626.55,284.81,4484.17
1426,1.092640,1588,3202975,14890.55,1295.81,-1247.83
1427,1.093639,1589,3203974,7503.55,1054.81,-3786.83
1428,1.094640,1590,3204975,-524.45,863.81,-4920.83
1429,1.095640,1591,3205975,-2688.45,758.81,-5711.83
1430,1.096640,1592,3206975,-3879.45,-119.19,-6155.83
1431,1.097640,1593,3207975,-2526.45,-1057.19,-6513.83
1432,1.098640,1594,3208975,6065.55,-931.19,-6003.83
1433,1.099640,1595,3209975,12798.55,677.81,-6363.83
1434,1.100640,1596,3210975,14521.55,703.81,-2443.83
1435,1.101640,1597,3211975,11646.55,-1593.19,4689.17
1436,1.102640,1598,3212975,2658.55,-1103.19,6987.17
1437,1.103640,1599,3213975,-6536.45,990.81,4792.17
1438,1.104640,1600,3214975,-9640.45,1175.81,1753.17
1439,1.105640,1601,3215975,-6026.45,127.81,1640.17
1440,1.106640,1602,3216975,593.55,-376.19,2166.17
1441,1.107640,1603,3217975,3660.55,-266.19,2292.17
1442,1.108639,1604,3218974,1928.55,-1135.19,2793.17
1443,1.109640,1605,3219975,-5953.45,-2657.19,4863.17
1444,1.110640,1606,3220975,-11340.45,-3466.19,8229.17
1445,1.111639,1607,3221974,-23820.45,-1560.19,3959.17
1446,1.112640,1608,3222975,-28073.45,1779.81,-3447.83
1447,1.113640,1609,3223975,-23311.45,2890.81,-4644.83
1448,1.114640,1610,3224975,-10375.45,1280.81,1839.17
1449,1.115639,1611,3225974,6054.55,-92.19,7929.17
1450,1.116640,1612,3226975,13526.55,-298.19,7584.17
1451,1.117640,1613,3227975,18663.55,913.81,3275.17
1452,1.118640,1614,3228975,12506.55,1406.81,-2040.83
1453,1.119640,1615,3229975,5384.55,1017.81,-4063.83
1454,1.120640,1616,3230975,-1013.45,876.81,-4814.83
1455,1.121639,1617,3231974,-2425.45,393.81,-5838.83
1456,1.122639,1618,3232974,-4098.45,-140.19,-6369.83
1457,1.123640,1619,3233975,-303.45000000000005,-1514.19,-5949.83
1458,1.124639,1620,3234974,7979.55,-397.19,-6546.83
1459,1.125640,1621,3235975,13291.55,1128.81,-5828.83
1460,1.126640,1622,3236975,14104.55,-228.19,-941.8299999999999
1461,1.127639,1623,3237974,9096.55,-1539.19,5314.17
1462,1.128640,1624,3238975,1210.55,-456.19,7028.17
1463,1.129640,1625,3239975,-7567.45,1006.81,4272.17
1464,1.130640,1626,3240975,-9262.45,687.81,1717.17
1465,1.131639,1627,3241974,-4553.45,-0.18999999999999773,1651.17
1466,1.132640,1628,3242975,1994.55,-134.19,1969.17
1467,1.133640,1629,3243975,3425.55,-293.19,2199.17
1468,1.134639,1630,3244974,-822.45,-1450.19,2819.17
1469,1.135639,1631,3245974,-6803.45,-3231.19,6046.17
1470,1.136640,1632,3246975,-12764.45,-3407.19,8537.17
1471,1.137640,1633,3247975,-26110.45,-650.19,1797.17
1472,1.138639,1634,3248974,-27945.45,2515.81,-4831.83
1473,1.139640,1635,3249975,-20815.45,2579.81,-3389.83
1474,1.140640,1636,3250975,-5735.45,739.81,4039.17
1475,1.141640,1637,3251975,8379.55,-422.19,8413.17
1476,1.142640,1638,3252975,14128.55,205.81,6509.17
1477,1.143640,1639,3253975,17613.55,1423.81,1958.17
1478,1.144640,1640,3254975,11132.55,902.81,-2797.83
1479,1.145639,1641,3255974,4196.55,755.81,-4234.83
1480,1.146640,1642,3256975,-1545.45,1064.81,-4966.83
1481,1.147639,1643,3257974,-2956.45,621.81,-6369.83
1482,1.148640,1644,3258975,-3857.45,-514.19,-6351.83
1483,1.149639,1645,3259974,1147.55,-1673.19,-5269.83
1484,1.150640,1646,3260975,8959.55,294.81,-7100.83
1485,1.151639,1647,3261974,14071.55,1023.81,-5111.83
1486,1.152639,1648,3262974,14005.55,-865.19,1041.17
1487,1.153640,1649,3263975,8390.55,-1567.19,6079.17
1488,1.154639,1650,3264974,-1889.45,31.810000000000002,6657.17
1489,1.155640,1651,3265975,-8959.45,1191.81,3091.17
1490,1.156640,1652,3266975,-8449.45,357.81,1558.17
1491,1.157639,1653,3267974,-3167.45,222.81,1509.17
1492,1.158639,1654,3268974,2866.55,-341.19,1991.17
1493,1.159640,1655,3269975,3291.55,-670.19,2803.17
1494,1.160639,1656,3270974,-1928.45,-1549.19,3418.17
1495,1.161640,1657,3271975,-7417.45,-3591.19,7016.17
1496,1.162640,1658,3272975,-15816.45,-2905.19,7783.17
1497,1.163640,1659,3273975,-27839.45,385.81,-382.8299999999999
1498,1.164639,1660,3274974,-26657.45,2649.81,-5508.83
1499,1.165640,1661,3275975,-18347.45,1928.81,-1752.83
1500,1.166639,1662,3276974,-2396.45,444.81,5421.17
1501,1.167640,1663,3277975,9777.55,-309.19,8458.17
1502,1.168640,1664,3278975,15670.55,522.81,5568.17
1503,1.169640,1665,3279975,17027.55,1335.81,549.1700000000001
1504,1.170640,1666,3280975,10642.55,744.81,-3160.83
1505,1.171640,1667,3281975,1956.55,1169.81,-4525.83
1506,1.172639,1668,3282974,-3014.45,838.81,-4981.83
1507,1.173639,1669,3283974,-2619.45,178.81,-6454.83
1508,1.174640,1670,3284975,-4165.45,-634.19,-6219.83
1509,1.175640,1671,3285975,2777.55,-1279.19,-5423.83
1510,1.176640,1672,3286975,10438.55,413.81,-6815.83
1511,1.177639,1673,3287974,14789.55,938.81,-4244.83
1512,1.178639,1674,3288974,14174.55,-1004.19,2367.17
1513,1.179640,1675,3289975,6019.55,-1510.19,6857.17
1514,1.180640,1676,3290975,-3813.45,421.81,5736.17
1515,1.181640,1677,3291975,-9961.45,1211.81,2305.17
1516,1.182639,1678,3292974,-7429.45,98.81,1658.17
1517,1.183640,1679,3293975,-1521.45,-264.19,2143.17
1518,1.184640,1680,3294975,2744.55,-178.19,2011.17
1519,1.185639,1681,3295974,2812.55,-713.19,2214.17
1520,1.186640,1682,3296975,-2464.45,-2091.19,3863.17
1521,1.187640,1683,3297975,-8623.45,-3346.19,7551.17
1522,1.188640,1684,3298975,-20212.45,-2399.19,6598.17
1523,1.189640,1685,3299975,-28200.45,683.81,-1538.83
1524,1.190640,1686,3300975,-24870.45,2866.81,-5073.83
1525,1.191639,1687,3301974,-15703.45,1789.81,-528.8299999999999
1526,1.192640,1688,3302975,390.54999999999995,327.81,6498.17
1527,1.193640,1689,3303975,11971.55,-162.19,8541.17
1528,1.194639,1690,3304974,18066.55,474.81,4808.17
1529,1.195640,1691,3305975,15439.55,1246.81,-520.8299999999999
1530,1.196640,1692,3306975,8295.55,872.81,-3879.83
1531,1.197640,1693,3307975,-320.45000000000005,1170.81,-4636.83
1532,1.198640,1694,3308975,-2896.45,690.81,-5874.83
1533,1.199639,1695,3309974,-2451.45,44.81,-6352.83
1534,1.200640,1696,3310975,-3574.45,-1145.19,-5550.83
1535,1.201640,1697,3311975,4810.55,-922.19,-6355.83
1536,1.202640,1698,3312975,12221.55,867.81,-6521.83
1537,1.203640,1699,3313975,15040.55,292.81,-2718.83
1538,1.204639,1700,3314974,12670.55,-1093.19,3467.17
1539,1.205640,1701,3315975,2976.55,-1092.19,7046.17
1540,1.206640,1702,3316975,-5052.45,585.81,5175.17
1541,1.207640,1703,3317975,-9973.45,1186.81,2010.17
1542,1.208640,1704,3318975,-6614.45,114.81,1470.17
1543,1.209639,1705,3319974,375.54999999999995,-94.19,1877.17
1544,1.210639,1706,3320974,2824.55,-362.19,2535.17
1545,1.211640,1707,3321975,2667.55,-1146.19,2599.17
1546,1.212640,1708,3322975,-5040.45,-2300.19,4499.17
1547,1.213640,1709,3323975,-10150.45,-3729.19,8464.17
1548,1.214639,1710,3324974,-22280.45,-1858.19,4610.17
1549,1.215640,1711,3325975,-28915.45,1853.81,-3388.83
1550,1.216640,1712,3326975,-23208.45,2594.81,-4797.83
1551,1.217639,1713,3327974,-12894.45,1358.81,1245.17
1552,1.218640,1714,3328975,3847.55,452.81,7461.17
1553,1.219640,1715,3329975,13179.55,-435.19,7762.17
1554,1.220640,1716,3330975,19009.55,510.81,4119.17
1555,1.221639,1717,3331974,13925.55,1691.81,-1442.83
1556,1.222640,1718,3332975,5909.55,848.81,-4033.83
1557,1.223639,1719,3333974,-279.45000000000005,812.81,-4858.83
1558,1.224640,1720,3334975,-2332.45,892.81,-6014.83
1559,1.225640,1721,3335975,-3712.45,-129.19,-6245.83
1560,1.226640,1722,3336975,-1750.45,-1529.19,-5761.83
1561,1.227640,1723,3337975,6581.55,-695.19,-6119.83
1562,1.228640,1724,3338975,12452.55,1091.81,-6489.83
1563,1.229639,1725,3339974,14561.55,105.81,-1776.83
1564,1.230640,1726,3340975,10788.55,-1561.19,4990.17
1565,1.231640,1727,3341975,2296.55,-640.19,7022.17
1566,1.232639,1728,3342974,-6764.45,750.81,4707.17
1567,1.233639,1729,3343974,-10368.45,984.81,1655.17
1568,1.234640,1730,3344975,-5549.45,208.81,1432.17
1569,1.235640,1731,3345975,1626.55,-270.19,1886.17
1570,1.236640,1732,3346975,3682.55,-164.19,2145.17
1571,1.237640,1733,3347975,704.55,-1427.19,2931.17
1572,1.238640,1734,3348975,-6395.45,-2912.19,5550.17
1573,1.239639,1735,3349974,-11454.45,-3294.19,8733.17
1574,1.240639,1736,3350974,-24908.45,-1305.19,3038.17
1575,1.241640,1737,3351975,-28024.45,2326.81,-4499.83
1576,1.242640,1738,3352975,-22382.45,2795.81,-4010.83
1577,1.243640,1739,3353975,-8431.45,638.81,2842.17
1578,1.244640,1740,3354975,7368.55,-200.19,8218.17
1579,1.245640,1741,3355975,13540.55,205.81,6979.17
1580,1.246639,1742,3356974,18466.55,877.81,2695.17
1581,1.247640,1743,3357975,11736.55,1190.81,-2330.83
1582,1.248640,1744,3358975,4760.55,1125.81,-4395.83
1583,1.249640,1745,3359975,-1163.45,863.81,-4931.83
1584,1.250640,1746,3360975,-2880.45,699.81,-5870.83
1585,1.251640,1747,3361975,-4426.45,-485.19,-6074.83
1586,1.252640,1748,3362975,542.55,-1441.19,-5864.83
1587,1.253640,1749,3363975,8461.55,-66.19,-6606.83
1588,1.254640,1750,3364975,13592.55,969.81,-5466.83
1589,1.255639,1751,3365974,14483.55,-346.19,-188.82999999999993
1590,1.256640,1752,3366975,9086.55,-1954.19,6063.17
1591,1.257639,1753,3367974,-508.45000000000005,13.810000000000002,6469.17
1592,1.258640,1754,3368975,-8419.45,1315.81,3395.17
1593,1.259640,1755,3369975,-9131.45,317.81,1699.17
1594,1.260640,1756,3370975,-3476.45,66.81,1818.17
1595,1.261640,1757,3371975,2194.55,-414.19,2263.17
1596,1.262639,1758,3372974,3147.55,-397.19,2272.17
1597,1.263640,1759,3373975,-970.45,-1320.19,2921.17
1598,1.264639,1760,3374974,-7083.45,-3378.19,6254.17
1599,1.265639,1761,3375974,-13274.45,-3163.19,8248.17
1600,1.266640,1762,3376975,-27683.45,-169.19,852.1700000000001
1601,1.267640,1763,3377975,-27043.45,2448.81,-4879.83
1602,1.268639,1764,3378974,-19765.45,2250.81,-2737.83
1603,1.269640,1765,3379975,-4540.45,721.81,4520.17
1604,1.270639,1766,3380974,8903.55,-194.19,8620.17
1605,1.271640,1767,3381975,14800.55,163.81,6065.17
1606,1.272640,1768,3382975,17565.55,1329.81,1467.17
1607,1.273639,1769,3383974,10667.55,1104.81,-2967.83
1608,1.274639,1770,3384974,3595.55,730.81,-4506.83
1609,1.275639,1771,3385974,-2314.45,916.81,-5097.83
1610,1.276640,1772,3386975,-2954.45,436.81,-6173.83
1611,1.277639,1773,3387974,-4354.45,-433.19,-6562.83
1612,1.278640,1774,3388975,2127.55,-1569.19,-5294.83
1613,1.279639,1775,3389974,9127.55,265.81,-6956.83
1614,1.280640,1776,3390975,14578.55,1202.81,-4849.83
1615,1.281640,1777,3391975,14972.55,-1071.19,1720.17
1616,1.282640,1778,3392975,6870.55,-1547.19,6393.17
1617,1.283639,1779,3393974,-2672.45,245.81,6585.17
1618,1.284639,1780,3394974,-9403.45,1071.81,2984.17
1619,1.285640,1781,3395975,-8765.45,412.81,1509.17
1620,1.286639,1782,3396974,-2297.45,140.81,1389.17
1621,1.287640,1783,3397975,3333.55,-317.19,1877.17
1622,1.288639,1784,3398974,3256.55,-621.19,2669.17
1623,1.289639,1785,3399974,-1873.45,-1995.19,3703.17
1624,1.290639,1786,3400974,-7911.45,-3559.19,7286.17
1625,1.291639,1787,3401974,-17436.45,-2643.19,7619.17
1626,1.292640,1788,3402975,-28594.45,454.81,-889.8299999999999
1627,1.293639,1789,3403974,-25872.45,2902.81,-5744.83
1628,1.294639,1790,3404974,-17225.45,1860.81,-1425.83
1629,1.295640,1791,3405975,-1030.45,257.81,5842.17
1630,1.296640,1792,3406975,10466.55,-167.19,8699.17
1631,1.297640,1793,3407975,16022.55,469.81,5299.17
1632,1.298639,1794,3408974,16866.55,1358.81,122.17000000000007
1633,1.299640,1795,3409975,9495.55,787.81,-3367.83
1634,1.300639,1796,3410974,1936.55,1238.81,-4755.83
1635,1.301640,1797,3411975,-3662.45,932.81,-4866.83
1636,1.302640,1798,3412975,-2539.45,-151.19,-6157.83
1637,1.303640,1799,3413975,-3582.45,-800.19,-6542.83
1638,1.304639,1800,3414974,2762.55,-1045.19,-5709.83
1639,1.305640,1801,3415975,11133.55,365.81,-6852.83
1640,1.306639,1802,3416974,14788.55,740.81,-3697.83
1641,1.307640,1803,3417975,13615.55,-889.19,2844.17
1642,1.308640,1804,3418975,4958.55,-1624.19,7028.17
1643,1.309640,1805,3419975,-4195.45,668.81,5526.17
1644,1.310640,1806,3420975,-9563.45,1322.81,1947.17
1645,1.311639,1807,3421974,-7308.45,-144.19,1714.17
1646,1.312640,1808,3422975,-1458.45,13.810000000000002,2105.17
1647,1.313640,1809,3423975,3407.55,-400.19,2416.17
1648,1.314640,1810,3424975,3362.55,-895.19,2503.17
1649,1.315639,1811,3425974,-3799.45,-2091.19,4150.17
1650,1.316640,1812,3426975,-9363.45,-3556.19,7646.17
1651,1.317639,1813,3427974,-21205.45,-2043.19,5726.17
1652,1.318640,1814,3428975,-27911.45,844.81,-2132.83
1653,1.319639,1815,3429974,-24080.45,2751.81,-5083.83
1654,1.320640,1816,3430975,-15049.45,1887.81,169.17000000000007
1655,1.321640,1817,3431975,1921.55,60.81,6884.17
1656,1.322640,1818,3432975,12439.55,-188.19,8190.17
1657,1.323640,1819,3433975,18577.55,583.81,4434.17
1658,1.324640,1820,3434975,14255.55,1320.81,-752.8299999999999
1659,1.325639,1821,3435974,7017.55,1002.81,-3686.83
1660,1.326640,1822,3436975,-16.450000000000045,983.81,-4974.83
1661,1.327640,1823,3437975,-2305.45,958.81,-5704.83
1662,1.328640,1824,3438975,-2855.45,-167.19,-6212.83
1663,1.329640,1825,3439975,-2535.45,-1064.19,-5950.83
1664,1.330640,1826,3440975,4901.55,-1010.19,-5449.83
1665,1.331639,1827,3441974,11187.55,652.81,-6562.83
1666,1.332640,1828,3442975,13602.55,751.81,-2909.83
1667,1.333639,1829,3443974,12309.55,-1489.19,4213.17
1668,1.334639,1830,3444974,4081.55,-827.19,6680.17
1669,1.335640,1831,3445975,-5994.45,461.81,5270.17
1670,1.336639,1832,3446974,-8885.45,856.81,2159.17
1671,1.337640,1833,3447975,-6903.45,590.81,1398.17
1672,1.338639,1834,3448974,-325.45000000000005,-249.19,1569.17
1673,1.339639,1835,3449974,3965.55,-270.19,2019.17
1674,1.340640,1836,3450975,2268.55,-1233.19,3127.17
1675,1.341640,1837,3451975,-4302.45,-2648.19,4787.17
1676,1.342640,1838,3452975,-10618.45,-3301.19,8092.17
1677,1.343640,1839,3453975,-22259.45,-1711.19,4563.17
1678,1.344639,1840,3454974,-28001.45,1526.81,-3291.83
1679,1.345640,1841,3455975,-23368.45,2848.81,-4844.83
1680,1.346639,1842,3456974,-11873.45,1224.81,1357.17
1681,1.347639,1843,3457974,3650.55,117.81,7427.17
1682,1.348639,1844,3458974,13204.55,-137.19,7799.17
1683,1.349640,1845,3459975,18006.55,419.81,3578.17
1684,1.350639,1846,3460974,13270.55,1497.81,-2127.83
1685,1.351640,1847,3461975,5868.55,1063.81,-3854.83
1686,1.352640,1848,3462975,-551.45,950.81,-4611.83
1687,1.353640,1849,3463975,-2129.45,636.81,-5306.83
1688,1.354640,1850,3464975,-3702.45,-280.19,-5842.83
1689,1.355640,1851,3465975,-1991.45,-1218.19,-6163.83
1690,1.356639,1852,3466974,6097.55,-373.19,-5989.83
1691,1.357640,1853,3467975,12766.55,800.81,-5850.83
1692,1.358640,1854,3468975,14553.55,164.81,-1531.83
1693,1.359640,1855,3469975,11050.55,-1543.19,4844.17
1694,1.360640,1856,3470975,1785.55,-843.19,6408.17
1695,1.361639,1857,3471974,-6809.45,1209.81,4080.17
1696,1.362640,1858,3472975,-9492.45,785.81,1645.17
1697,1.363640,1859,3473975,-5576.45,-77.19,1579.17
1698,1.364640,1860,3474975,946.55,-292.19,2324.17
1699,1.365639,1861,3475974,4033.55,-320.19,2363.17
1700,1.366640,1862,3476975,1690.55,-1152.19,2511.17
1701,1.367639,1863,3477974,-5778.45,-2824.19,5324.17
1702,1.368640,1864,3478975,-11130.45,-3510.19,8360.17
1703,1.369640,1865,3479975,-24735.45,-1282.19,3065.17
1704,1.370640,1866,3480975,-28103.45,2122.81,-3844.83
1705,1.371639,1867,3481974,-22817.45,2811.81,-4191.83
1706,1.372640,1868,3482975,-9768.45,854.81,2491.17
1707,1.373640,1869,3483975,6728.55,-293.19,8051.17
1708,1.374639,1870,3484974,13773.55,-157.19,6870.17
1709,1.375640,1871,3485975,18313.55,1184.81,2689.17
1710,1.376640,1872,3486975,11860.55,1479.81,-1889.83
1711,1.377639,1873,3487974,5054.55,764.81,-4066.83
1712,1.378640,1874,3488975,-1011.45,1076.81,-4839.83
1713,1.379640,1875,3489975,-2931.45,553.81,-5583.83
1714,1.380640,1876,3490975,-4261.45,-221.19,-6335.83
1715,1.381640,1877,3491975,-35.450000000000045,-1556.19,-5348.83
1716,1.382640,1878,3492975,8811.55,-75.19,-6854.83
1717,1.383640,1879,3493975,13581.55,1084.81,-5533.83
1718,1.384640,1880,3494975,15047.55,-553.19,-245.82999999999993
1719,1.385640,1881,3495975,9295.55,-1526.19,5139.17
1720,1.386640,1882,3496975,-880.45,-268.19,6843.17
1721,1.387640,1883,3497975,-8366.45,1152.81,3578.17
1722,1.388640,1884,3498975,-9660.45,547.81,1594.17
1723,1.389640,1885,3499975,-3291.45,82.81,1369.17
1724,1.390640,1886,3500975,2906.55,-523.19,2115.17
1725,1.391640,1887,3501975,3679.55,-379.19,2689.17
1726,1.392640,1888,3502975,-1253.45,-1266.19,2898.17
1727,1.393640,1889,3503975,-7109.45,-3399.19,6197.17
1728,1.394640,1890,3504975,-12810.45,-3265.19,8636.17
1729,1.395639,1891,3505974,-27821.45,-309.19,1078.17
1730,1.396640,1892,3506975,-28043.45,2605.81,-5332.83
1731,1.397640,1893,3507975,-20153.45,2295.81,-2810.83
1732,1.398640,1894,3508975,-4934.45,610.81,4382.17
1733,1.399639,1895,3509974,8784.55,-213.19,8656.17
1734,1.400640,1896,3510975,14444.55,301.81,6385.17
1735,1.401640,1897,3511975,18108.55,1165.81,1610.17
1736,1.402640,1898,3512975,11379.55,1138.81,-2561.83
1737,1.403640,1899,3513975,3301.55,932.81,-4270.83
1738,1.404640,1900,3514975,-2292.45,766.81,-5343.83
1739,1.405640,1901,3515975,-3550.45,773.81,-6313.83
1740,1.406640,1902,3516975,-4271.45,-606.19,-6459.83
1741,1.407639,1903,3517974,2127.55,-1605.19,-5707.83
1742,1.408640,1904,3518975,9777.55,326.81,-7098.83
1743,1.409639,1905,3519974,14930.55,735.81,-4703.83
1744,1.410640,1906,3520975,15063.55,-595.19,1415.17
1745,1.411640,1907,3521975,7210.55,-1581.19,6273.17
1746,1.412639,1908,3522974,-3072.45,6.810000000000002,6584.17
1747,1.413639,1909,3523974,-9528.45,1384.81,2931.17
1748,1.414640,1910,3524975,-8514.45,61.81,1544.17
1749,1.415640,1911,3525975,-1622.45,32.81,1420.17
1750,1.416640,1912,3526975,2619.55,-247.19,2043.17
1751,1.417640,1913,3527975,3532.55,-633.19,2507.17
1752,1.418640,1914,3528975,-2487.45,-1832.19,3487.17
1753,1.419640,1915,3529975,-8459.45,-3691.19,7451.17
1754,1.420639,1916,3530974,-17995.45,-2612.19,7567.17
1755,1.421640,1917,3531975,-28890.45,558.81,-768.8299999999999
1756,1.422640,1918,3532975,-25083.45,2582.81,-5390.83
1757,1.423640,1919,3533975,-17264.45,1951.81,-1434.83
1758,1.424640,1920,3534975,-860.45,592.81,6022.17
1759,1.425640,1921,3535975,10331.55,-106.19,8743.17
1760,1.426640,1922,3536975,16572.55,381.81,5468.17
1761,1.427640,1923,3537975,16748.55,1228.81,174.17000000000007
1762,1.428640,1924,3538975,9537.55,985.81,-3471.83
1763,1.429640,1925,3539975,1233.55,902.81,-4494.83
1764,1.430640,1926,3540975,-2762.45,725.81,-5516.83
1765,1.431640,1927,3541975,-2638.45,241.81,-6601.83
1766,1.432640,1928,3542975,-3729.45,-895.19,-6369.83
1767,1.433640,1929,3543975,3312.55,-1141.19,-6131.83
1768,1.434639,1930,3544974,11319.55,608.81,-6995.83
1769,1.435640,1931,3545975,15564.55,698.81,-3391.83
1770,1.436639,1932,3546974,12815.55,-1037.19,3168.17
1771,1.437640,1933,3547975,5212.55,-1296.19,6772.17
1772,1.438639,1934,3548974,-4243.45,404.81,6086.17
1773,1.439640,1935,3549975,-10226.45,1138.81,2449.17
1774,1.440639,1936,3550974,-6678.45,158.81,1427.17
1775,1.441640,1937,3551975,-1058.45,-26.189999999999998,1564.17
1776,1.442640,1938,3552975,2915.55,-349.19,2130.17
1777,1.443639,1939,3553974,2420.55,-862.19,2750.17
1778,1.444640,1940,3554975,-4376.45,-2128.19,4176.17
1779,1.445639,1941,3555974,-9962.45,-3725.19,8187.17
1780,1.446640,1942,3556975,-21890.45,-2053.19,5707.17
1781,1.447640,1943,3557975,-27539.45,1254.81,-2576.83
1782,1.448639,1944,3558974,-23717.45,2725.81,-5044.83
1783,1.449640,1945,3559975,-14313.45,1703.81,362.1700000000001
1784,1.450640,1946,3560975,2105.55,367.81,7090.17
1785,1.451640,1947,3561975,12062.55,-261.19,8331.17
1786,1.452640,1948,3562975,19152.55,367.81,4402.17
1787,1.453639,1949,3563974,14958.55,1463.81,-1173.83
1788,1.454640,1950,3564975,7442.55,882.81,-3770.83
1789,1.455640,1951,3565975,-104.45000000000005,745.81,-4771.83
1790,1.456640,1952,3566975,-3284.45,837.81,-5738.83
1791,1.457639,1953,3567974,-3661.45,-107.19,-6583.83
1792,1.458640,1954,3568975,-2297.45,-1275.19,-6656.83
1793,1.459639,1955,3569974,6159.55,-603.19,-6455.83
1794,1.460640,1956,3570975,13246.55,653.81,-6341.83
1795,1.461640,1957,3571975,15325.55,263.81,-1773.83
1796,1.462640,1958,3572975,10948.55,-1449.19,4659.17
1797,1.463640,1959,3573975,2207.55,-881.19,6996.17
1798,1.464639,1960,3574974,-6841.45,1090.81,5028.17
1799,1.465640,1961,3575975,-9647.45,902.81,1878.17
1800,1.466640,1962,3576975,-5697.45,218.81,1334.17
1801,1.467640,1963,3577975,849.55,-20.189999999999998,1844.17
1802,1.468640,1964,3578975,4023.55,-354.19,2655.17
1803,1.469640,1965,3579975,508.54999999999995,-1266.19,2787.17
1804,1.470639,1966,3580974,-6449.45,-2716.19,5069.17
1805,1.471639,1967,3581974,-11509.45,-3617.19,8954.17
1806,1.472640,1968,3582975,-24124.45,-1435.19,3384.17
1807,1.473640,1969,3583975,-27422.45,2148.81,-4096.83
1808,1.474639,1970,3584974,-23176.45,2649.81,-4408.83
1809,1.475640,1971,3585975,-9810.45,1051.81,2274.17
1810,1.476639,1972,3586974,6422.55,56.81,8007.17
1811,1.477640,1973,3587975,13143.55,-368.19,7289.17
1812,1.478640,1974,3588975,18788.55,982.81,3161.17
1813,1.479640,1975,3589975,13017.55,1623.81,-2290.83
1814,1.480640,1976,3590975,5558.55,728.81,-3879.83
1815,1.481640,1977,3591975,-803.45,732.81,-4854.83
1816,1.482640,1978,3592975,-3456.45,829.81,-6342.83
1817,1.483639,1979,3593974,-4370.45,-107.19,-6635.83
1818,1.484640,1980,3594975,137.54999999999995,-1612.19,-5974.83
1819,1.485640,1981,3595975,8480.55,-276.19,-6765.83
1820,1.486640,1982,3596975,14458.55,955.81,-5768.83
1821,1.487640,1983,3597975,14457.55,-169.19,-93.82999999999993
1822,1.488640,1984,3598975,9174.55,-1633.19,5446.17
1823,1.489639,1985,3599974,-671.45,-362.19,6807.17
1824,1.490639,1986,3600974,-8893.45,1158.81,4356.17
1825,1.491640,1987,3601975,-8646.45,296.81,1836.17
1826,1.492639,1988,3602974,-3425.45,323.81,1291.17
1827,1.493639,1989,3603974,2054.55,-18.189999999999998,1887.17
1828,1.494640,1990,3604975,3142.55,-532.19,2685.17
1829,1.495640,1991,3605975,-1656.45,-1338.19,3021.17
1830,1.496640,1992,3606975,-7265.45,-3373.19,6253.17
1831,1.497640,1993,3607975,-13311.45,-3233.19,8586.17
1832,1.498640,1994,3608975,-27472.45,-136.19,1098.17
1833,1.499639,1995,3609974,-27345.45,2316.81,-5086.83
1834,1.500640,1996,3610975,-19204.45,2184.81,-2744.83
1835,1.501640,1997,3611975,-4586.45,836.81,4366.17
1836,1.502639,1998,3612974,8345.55,-146.19,8342.17
1837,1.503640,1999,3613975,14490.55,51.81,6226.17
1838,1.504640,2000,3614975,17921.55,1208.81,1407.17
1839,1.505640,2001,3615975,11392.55,952.81,-3004.83
1840,1.506640,2002,3616975,3303.55,950.81,-4490.83
1841,1.507639,2003,3617974,-2224.45,1030.81,-5044.83
1842,1.508640,2004,3618975,-3280.45,318.81,-6097.83
1843,1.509640,2005,3619975,-4557.45,-439.19,-6385.83
1844,1.510639,2006,3620974,2389.55,-1395.19,-5726.83
1845,1.511639,2007,3621974,10075.55,412.81,-7195.83
1846,1.512640,2008,3622975,15588.55,883.81,-4316.83
1847,1.513640,2009,3623975,14495.55,-1033.19,2159.17
1848,1.514640,2010,3624975,6570.55,-1383.19,6207.17
1849,1.515640,2011,3625975,-3133.45,188.81,6355.17
1850,1.516640,2012,3626975,-9902.45,1357.81,2593.17
1851,1.517640,2013,3627975,-7730.45,125.81,1436.17
1852,1.518639,2014,3628974,-2237.45,-255.19,1785.17
1853,1.519640,2015,3629975,2738.55,-314.19,1863.17
1854,1.520640,2016,3630975,3194.55,-546.19,2696.17
1855,1.521640,2017,3631975,-2944.45,-1751.19,3388.17
1856,1.522639,2018,3632974,-8331.45,-3684.19,7504.17
1857,1.523640,2019,3633975,-18975.45,-2537.19,7496.17
1858,1.524640,2020,3634975,-28397.45,534.81,-1211.83
1859,1.525640,2021,3635975,-24276.45,2702.81,-5386.83
1860,1.526639,2022,3636974,-17496.45,2017.81,-934.8299999999999
1861,1.527639,2023,3637974,-405.45000000000005,575.81,6115.17
1862,1.528639,2024,3638974,10859.55,-321.19,8844.17
1863,1.529640,2025,3639975,17221.55,339.81,5199.17
1864,1.530639,2026,3640974,16807.55,1446.81,-145.82999999999993
1865,1.531640,2027,3641975,8576.55,798.81,-3378.83
1866,1.532639,2028,3642974,982.55,922.81,-4719.83
1867,1.533640,2029,3643975,-2893.45,712.81,-5687.83
1868,1.534639,2030,3644974,-2833.45,130.81,-6760.83
1869,1.535640,2031,3645975,-3852.45,-921.19,-6149.83
1870,1.536640,2032,3646975,3768.55,-1116.19,-6155.83
1871,1.537640,2033,3647975,11872.55,721.81,-7225.83
1872,1.538640,2034,3648975,15679.55,622.81,-2952.83
1873,1.539640,2035,3649975,12630.55,-1116.19,3476.17
1874,1.540640,2036,3650975,4642.55,-1217.19,6933.17
1875,1.541639,2037,3651974,-4531.45,505.81,6056.17
1876,1.542640,2038,3652975,-10028.45,1001.81,2276.17
1877,1.543640,2039,3653975,-6470.45,180.81,1529.17
1878,1.544640,2040,3654975,-884.45,78.81,1433.17
1879,1.545640,2041,3655975,3042.55,-398.19,1979.17
1880,1.546640,2042,3656975,2172.55,-1064.19,2782.17
1881,1.547639,2043,3657974,-4788.45,-2197.19,4205.17
1882,1.548640,2044,3658975,-10705.45,-3650.19,8257.17
1883,1.549640,2045,3659975,-22471.45,-2095.19,5507.17
1884,1.550640,2046,3660975,-27196.45,1447.81,-2729.83
1885,1.551639,2047,3661974,-23445.45,2669.81,-4956.83
1886,1.552640,2048,3662975,-13400.45,1603.81,717.1700000000001
1887,1.553639,2049,3663974,2739.55,474.81,7333.17
1888,1.554640,2050,3664975,12213.55,-305.19,8050.17
1889,1.555640,2051,3665975,18871.55,532.81,4228.17
1890,1.556640,2052,3666975,14658.55,1419.81,-1236.83
1891,1.557639,2053,3667974,7405.55,833.81,-4056.83
1892,1.558639,2054,3668974,-246.45000000000005,779.81,-4505.83
1893,1.559640,2055,3669975,-2960.45,717.81,-5929.83
1894,1.560640,2056,3670975,-4176.45,86.81,-6867.83
1895,1.561640,2057,3671975,-1931.45,-1413.19,-6126.83
1896,1.562639,2058,3672974,6845.55,-673.19,-6715.83
1897,1.563640,2059,3673975,13688.55,996.81,-6305.83
1898,1.564639,2060,3674974,15473.55,-24.189999999999998,-1410.83
1899,1.565640,2061,3675975,10058.55,-1603.19,4692.17
1900,1.566640,2062,3676975,1712.55,-643.19,7028.17
1901,1.567639,2063,3677974,-7245.45,939.81,4961.17
1902,1.568639,2064,3678974,-9341.45,769.81,1785.17
1903,1.569639,2065,3679974,-4953.45,271.81,1268.17
1904,1.570640,2066,3680975,1061.55,-67.19,1956.17
1905,1.571640,2067,3681975,3320.55,-436.19,2619.17
1906,1.572640,2068,3682975,-212.45000000000005,-1282.19,2801.17
1907,1.573639,2069,3683974,-6445.45,-2763.19,5319.17
1908,1.574639,2070,3684974,-11484.45,-3714.19,8857.17
1909,1.575640,2071,3685975,-24783.45,-1120.19,2843.17
1910,1.576640,2072,3686975,-28353.45,2406.81,-4372.83
1911,1.577640,2073,3687975,-22048.45,2443.81,-4033.83
1912,1.578640,2074,3688975,-8523.45,1058.81,2829.17
1913,1.579640,2075,3689975,6821.55,-117.19,8318.17
1914,1.580640,2076,3690975,13978.55,-183.19,7136.17
1915,1.581640,2077,3691975,18482.55,1118.81,2720.17
1916,1.582640,2078,3692975,12825.55,1159.81,-2504.83
1917,1.583640,2079,3693975,4969.55,957.81,-4334.83
1918,1.584640,2080,3694975,-1710.45,920.81,-4803.83
1919,1.585639,2081,3695974,-3254.45,607.81,-6300.83
1920,1.586640,2082,3696975,-4477.45,-83.19,-6692.83
1921,1.587640,2083,3697975,684.55,-1744.19,-5693.83
1922,1.588640,2084,3698975,8930.55,-161.19,-7019.83
1923,1.589639,2085,3699974,14149.55,1306.81,-5445.83
1924,1.590640,2086,3700975,15138.55,-719.19,452.1700000000001
1925,1.591640,2087,3701975,8296.55,-1634.19,5793.17
1926,1.592640,2088,3702975,-1230.45,-165.19,6788.17
1927,1.593639,2089,3703974,-7941.45,1119.81,3788.17
1928,1.594640,2090,3704975,-9660.45,521.81,1627.17
1929,1.595640,2091,3705975,-3008.45,-40.19,1367.17
1930,1.596639,2092,3706974,2926.55,-83.19,1805.17
1931,1.597639,2093,3707974,2869.55,-329.19,2600.17
1932,1.598640,2094,3708975,-2263.45,-1514.19,3164.17
1933,1.599639,2095,3709974,-7743.45,-3482.19,6533.17
1934,1.600640,2096,3710975,-13836.45,-3155.19,8434.17
1935,1.601639,2097,3711974,-27724.45,-35.19,677.1700000000001
1936,1.602640,2098,3712975,-27404.45,2514.81,-5332.83
1937,1.603640,2099,3713975,-18671.45,2118.81,-2511.83
1938,1.604639,2100,3714974,-3578.45,755.81,4898.17
1939,1.605640,2101,3715975,8837.55,-208.19,8414.17
1940,1.606640,2102,3716975,15013.55,398.81,6034.17
1941,1.607640,2103,3717975,17223.55,1227.81,1253.17
1942,1.608640,2104,3718975,11584.55,745.81,-3139.83
1943,1.609639,2105,3719974,2773.55,1020.81,-4215.83
1944,1.610640,2106,3720975,-2328.45,848.81,-5155.83
1945,1.611640,2107,3721975,-3176.45,489.81,-6641.83
1946,1.612640,2108,3722975,-4676.45,-757.19,-6264.83
1947,1.613639,2109,3723974,3058.55,-1468.19,-5986.83
1948,1.614640,2110,3724975,10120.55,524.81,-7008.83
1949,1.615640,2111,3725975,14904.55,839.81,-4490.83
1950,1.616640,2112,3726975,14412.55,-1001.19,2077.17
1951,1.617640,2113,3727975,5747.55,-1378.19,6688.17
1952,1.618640,2114,3728975,-2967.45,318.81,6096.17
1953,1.619640,2115,3729975,-8912.45,1150.81,2856.17
1954,1.620640,2116,3730975,-8133.45,155.81,1612.17
1955,1.621640,2117,3731975,-1421.45,19.810000000000002,1905.17
1956,1.622639,2118,3732974,2285.55,-233.19,2145.17
1957,1.623640,2119,3733975,2555.55,-765.19,2510.17
1958,1.624640,2120,3734975,-3232.45,-1830.19,3530.17
1959,1.625639,2121,3735974,-8588.45,-3581.19,7550.17
1960,1.626640,2122,3736975,-19142.45,-2435.19,6904.17
1961,1.627640,2123,3737975,-28223.45,663.81,-1395.83
1962,1.628639,2124,3738974,-24560.45,2649.81,-5036.83
1963,1.629640,2125,3739975,-16699.45,1909.81,-798.8299999999999
1964,1.630639,2126,3740974,580.55,587.81,6173.17
1965,1.631640,2127,3741975,10770.55,-244.19,8679.17
1966,1.632640,2128,3742975,17540.55,318.81,5138.17
1967,1.633640,2129,3743975,16478.55,1463.81,-434.8299999999999
1968,1.634639,2130,3744974,8636.55,903.81,-3682.83
1969,1.635639,2131,3745974,758.55,872.81,-4500.83
1970,1.636640,2132,3746975,-3425.45,857.81,-5739.83
1971,1.637640,2133,3747975,-3279.45,226.81,-6587.83
1972,1.638640,2134,3748975,-3091.45,-1197.19,-6228.83
1973,1.639640,2135,3749975,4798.55,-1161.19,-6017.83
1974,1.640640,2136,3750975,12048.55,905.81,-6925.83
1975,1.641640,2137,3751975,15342.55,540.81,-2855.83
1976,1.642640,2138,3752975,12504.55,-1234.19,3678.17
1977,1.643640,2139,3753975,3829.55,-1162.19,6902.17
1978,1.644640,2140,3754975,-5651.45,565.81,5762.17
1979,1.645640,2141,3755975,-9485.45,1044.81,2081.17
1980,1.646640,2142,3756975,-6650.45,162.81,1340.17
1981,1.647639,2143,3757974,-639.45,63.81,1355.17
1982,1.648639,2144,3758974,3495.55,-461.19,2301.17
1983,1.649640,2145,3759975,2449.55,-961.19,2952.17
1984,1.650639,2146,3760974,-5778.45,-2178.19,4445.17
1985,1.651640,2147,3761975,-10186.45,-3959.19,8629.17
1986,1.652640,2148,3762975,-22103.45,-1884.19,5101.17
1987,1.653639,2149,3763974,-28369.45,1901.81,-3536.83
1988,1.654639,2150,3764974,-22769.45,2625.81,-4912.83
1989,1.655640,2151,3765975,-13953.45,1522.81,1256.17
1990,1.656640,2152,3766975,3974.55,385.81,7315.17
1991,1.657639,2153,3767974,13220.55,-459.19,8207.17
1992,1.658640,2154,3768975,18639.55,606.81,3946.17
1993,1.659639,2155,3769974,14634.55,1604.81,-1750.83
1994,1.660640,2156,3770975,6089.55,725.81,-3558.83
1995,1.661639,2157,3771974,-142.45000000000005,842.81,-4968.83
1996,1.662640,2158,3772975,-3130.45,885.81,-5838.83
1997,1.663639,2159,3773974,-3895.45,-286.19,-6446.83
1998,1.664640,2160,3774975,-1352.45,-1409.19,-6509.83
1999,1.665639,2161,3775974,6944.55,-619.19,-6276.83
2000,1.666640,2162,3776975,12888.55,814.81,-6218.83
2001,1.667640,2163,3777975,14774.55,240.81,-1516.83
2002,1.668640,2164,3778975,10538.55,-1574.19,4910.17
2003,1.669640,2165,3779975,1602.55,-778.19,6898.17
2004,1.670640,2166,3780975,-6481.45,1081.81,4654.17
2005,1.671639,2167,3781974,-10154.45,832.81,1747.17
2006,1.672639,2168,3782974,-4503.45,236.81,1658.17
2007,1.673640,2169,3783975,749.55,-291.19,1990.17
2008,1.674640,2170,3784975,3518.55,-365.19,2419.17
2009,1.675640,2171,3785975,433.54999999999995,-1173.19,2901.17
2010,1.676640,2172,3786975,-7182.45,-2932.19,5210.17
2011,1.677640,2173,3787975,-11434.45,-3327.19,8407.17
2012,1.678640,2174,3788975,-25238.45,-1184.19,3032.17
2013,1.679640,2175,3789975,-27654.45,2080.81,-3934.83
2014,1.680640,2176,3790975,-22203.45,2616.81,-3951.83
2015,1.681640,2177,3791975,-8237.45,1104.81,2686.17
2016,1.682639,2178,3792974,7343.55,-84.19,8148.17
2017,1.683639,2179,3793974,13671.55,-170.19,7083.17
2018,1.684640,2180,3794975,18352.55,1004.81,2662.17
2019,1.685640,2181,3795975,12512.55,1199.81,-2405.83
2020,1.686639,2182,3796974,4473.55,1111.81,-4328.83
2021,1.687640,2183,3797975,-1483.45,899.81,-5056.83
2022,1.688640,2184,3798975,-2670.45,426.81,-6031.83
2023,1.689640,2185,3799975,-4873.45,-313.19,-6201.83
2024,1.690640,2186,3800975,853.55,-1522.19,-6000.83
2025,1.691640,2187,3801975,8980.55,104.81,-7021.83
2026,1.692640,2188,3802975,13901.55,1053.81,-5634.83
2027,1.693640,2189,3803975,15111.55,-752.19,476.1700000000001
2028,1.694639,2190,3804974,8110.55,-1591.19,6028.17
2029,1.695640,2191,3805975,-718.45,0.8100000000000023,6645.17
2030,1.696639,2192,3806974,-8633.45,1249.81,3746.17
2031,1.697639,2193,3807974,-9101.45,287.81,1760.17
2032,1.698640,2194,3808975,-2361.45,-54.19,1695.17
2033,1.699640,2195,3809975,2135.55,-167.19,1869.17
2034,1.700640,2196,3810975,2771.55,-486.19,2506.17
2035,1.701640,2197,3811975,-2031.45,-1512.19,3089.17
2036,1.702640,2198,3812975,-7752.45,-3405.19,6467.17
2037,1.703640,2199,3813975,-14182.45,-3205.19,8219.17
2038,1.704640,2200,3814975,-28235.45,46.81,584.1700000000001
2039,1.705640,2201,3815975,-27130.45,2633.81,-5319.83
2040,1.706640,2202,3816975,-18188.45,2022.81,-2393.83
2041,1.707640,2203,3817975,-3510.45,749.81,4976.17
2042,1.708640,2204,3818975,9043.55,-181.19,8818.17
2043,1.709640,2205,3819975,14999.55,223.81,6106.17
2044,1.710639,2206,3820974,17436.55,1427.81,1012.1700000000001
2045,1.711640,2207,3821975,11257.55,986.81,-3151.83
2046,1.712640,2208,3822975,3014.55,746.81,-4289.83
2047,1.713640,2209,3823975,-2631.45,813.81,-5069.83
2048,1.714639,2210,3824974,-3018.45,443.81,-6792.83
2049,1.715639,2211,3825974,-4390.45,-431.19,-6594.83
2050,1.716639,2212,3826974,2506.55,-1597.19,-5758.83
2051,1.717640,2213,3827975,9712.55,344.81,-7235.83
2052,1.718639,2214,3828974,14946.55,1083.81,-4513.83
2053,1.719639,2215,3829974,14592.55,-1150.19,2501.17
2054,1.720639,2216,3830974,6249.55,-1297.19,6539.17
2055,1.721640,2217,3831975,-3029.45,69.81,6477.17
2056,1.722639,2218,3832974,-9765.45,1012.81,3150.17
2057,1.723640,2219,3833975,-7414.45,557.81,1307.17
2058,1.724640,2220,3834975,-2387.45,-14.189999999999998,1365.17
2059,1.725640,2221,3835975,3017.55,-290.19,1952.17
2060,1.726639,2222,3836974,3053.55,-796.19,2864.17
2061,1.727640,2223,3837975,-3152.45,-2020.19,3783.17
2062,1.728640,2224,3838975,-8705.45,-3408.19,7586.17
2063,1.729640,2225,3839975,-19654.45,-2556.19,7036.17
2064,1.730639,2226,3840974,-27145.45,735.81,-1368.83
2065,1.731640,2227,3841975,-25628.45,2853.81,-5363.83
2066,1.732639,2228,3842974,-16332.45,1743.81,-930.8299999999999
2067,1.733640,2229,3843975,-267.45000000000005,614.81,6200.17
2068,1.734640,2230,3844975,11257.55,-300.19,8634.17
2069,1.735640,2231,3845975,17986.55,198.81,5082.17
2070,1.736640,2232,3846975,15955.55,1394.81,-381.8299999999999
2071,1.737639,2233,3847974,9364.55,1015.81,-3908.83
2072,1.738639,2234,3848974,156.54999999999995,1055.81,-4513.83
2073,1.739639,2235,3849974,-3121.45,794.81,-5427.83
2074,1.740639,2236,3850974,-2948.45,181.81,-6403.83
2075,1.741640,2237,3851975,-3564.45,-1172.19,-5890.83
2076,1.742640,2238,3852975,4282.55,-948.19,-6251.83
2077,1.743640,2239,3853975,12586.55,765.81,-6628.83
2078,1.744640,2240,3854975,15401.55,358.81,-2797.83
2079,1.745640,2241,3855975,12192.55,-1114.19,3343.17
2080,1.746640,2242,3856975,3269.55,-1228.19,6922.17
2081,1.747640,2243,3857975,-4929.45,641.81,5411.17
2082,1.748640,2244,3858975,-9509.45,1190.81,1920.17
2083,1.749640,2245,3859975,-6961.45,-12.189999999999998,1409.17
2084,1.750640,2246,3860975,306.54999999999995,-82.19,1728.17
2085,1.751640,2247,3861975,3235.55,-415.19,2476.17
2086,1.752640,2248,3862975,2569.55,-1051.19,2749.17
2087,1.753640,2249,3863975,-5666.45,-2079.19,4386.17
2088,1.754640,2250,3864975,-10162.45,-3732.19,8484.17
2089,1.755640,2251,3865975,-21793.45,-2046.19,4899.17
2090,1.756640,2252,3866975,-29057.45,1826.81,-3357.83
2091,1.757639,2253,3867974,-23306.45,2608.81,-4708.83
2092,1.758640,2254,3868975,-12987.45,1366.81,1311.17
2093,1.759640,2255,3869975,3796.55,360.81,7415.17
2094,1.760639,2256,3870974,13185.55,-305.19,7944.17
2095,1.761639,2257,3871974,18281.55,788.81,3906.17
2096,1.762639,2258,3872974,14575.55,1313.81,-1450.83
2097,1.763639,2259,3873974,6124.55,763.81,-3871.83
2098,1.764640,2260,3874975,-974.45,993.81,-4847.83
2099,1.765640,2261,3875975,-2272.45,684.81,-6085.83
2100,1.766640,2262,3876975,-3856.45,-50.19,-6536.83
2101,1.767640,2263,3877975,-1568.45,-1260.19,-5872.83
2102,1.768639,2264,3878974,7059.55,-838.19,-6428.83
2103,1.769640,2265,3879975,13256.55,980.81,-6259.83
2104,1.770639,2266,3880974,14478.55,229.81,-1262.83
2105,1.771640,2267,3881975,10232.55,-1624.19,4590.17
2106,1.772640,2268,3882975,1812.55,-636.19,6738.17
2107,1.773640,2269,3883975,-6559.45,841.81,4986.17
2108,1.774639,2270,3884974,-9880.45,824.81,1713.17
2109,1.775640,2271,3885975,-5076.45,341.81,1404.17
2110,1.776640,2272,3886975,1357.55,-301.19,1828.17
2111,1.777640,2273,3887975,3201.55,-283.19,2319.17
2112,1.778639,2274,3888974,263.54999999999995,-1198.19,3132.17
2113,1.779640,2275,3889975,-6721.45,-3056.19,5332.17
2114,1.780640,2276,3890975,-11229.45,-3403.19,8510.17
2115,1.781639,2277,3891974,-25144.45,-1100.19,3259.17
2116,1.782639,2278,3892974,-28060.45,2143.81,-4245.83
2117,1.783640,2279,3893975,-21386.45,2621.81,-4084.83
2118,1.784640,2280,3894975,-9202.45,1065.81,2721.17
2119,1.785640,2281,3895975,6731.55,-13.189999999999998,7917.17
2120,1.786640,2282,3896975,13562.55,-170.19,7277.17
2121,1.787639,2283,3897974,18615.55,878.81,2911.17
2122,1.788640,2284,3898975,12540.55,1335.81,-2518.83
2123,1.789640,2285,3899975,4930.55,1019.81,-4094.83
2124,1.790639,2286,3900974,-813.45,803.81,-4983.83
2125,1.791639,2287,3901974,-2980.45,532.81,-6122.83
2126,1.792639,2288,3902974,-4611.45,-308.19,-6259.83
2127,1.793639,2289,3903974,377.54999999999995,-1485.19,-6024.83
2128,1.794640,2290,3904975,8698.55,-68.19,-7026.83
2129,1.795640,2291,3905975,13771.55,974.81,-5398.83
2130,1.796639,2292,3906974,14661.55,-432.19,-56.82999999999993
2131,1.797640,2293,3907975,8926.55,-1654.19,5841.17
2132,1.798640,2294,3908975,-146.45000000000005,-136.19,6988.17
2133,1.799640,2295,3909975,-8917.45,1056.81,3812.17
2134,1.800639,2296,3910974,-9269.45,436.81,1743.17
2135,1.801640,2297,3911975,-3745.45,130.81,1543.17
2136,1.802639,2298,3912974,2595.55,-374.19,2124.17
2137,1.803639,2299,3913974,3115.55,-344.19,2260.17
2138,1.804640,2300,3914975,-1785.45,-1368.19,2782.17
2139,1.805640,2301,3915975,-7104.45,-3432.19,6483.17
2140,1.806640,2302,3916975,-13965.45,-3268.19,8385.17
2141,1.807640,2303,3917975,-27107.45,-75.19,925.1700000000001
2142,1.808639,2304,3918974,-27999.45,2503.81,-4956.83
2143,1.809640,2305,3919975,-18685.45,2282.81,-2827.83
2144,1.810640,2306,3920975,-3772.45,735.81,4712.17
2145,1.811640,2307,3921975,9024.55,-308.19,8854.17
2146,1.812640,2308,3922975,15296.55,228.81,6213.17
2147,1.813639,2309,3923974,17008.55,1289.81,1176.17
2148,1.814640,2310,3924975,11008.55,924.81,-3252.83
2149,1.815639,2311,3925974,3118.55,925.81,-4547.83
2150,1.816639,2312,3926974,-2767.45,902.81,-5206.83
2151,1.817640,2313,3927975,-2772.45,266.81,-6400.83
2152,1.818640,2314,3928975,-4490.45,-615.19,-6308.83
2153,1.819639,2315,3929974,2413.55,-1354.19,-5768.83
2154,1.820640,2316,3930975,10315.55,446.81,-7162.83
2155,1.821639,2317,3931974,13723.55,947.81,-4550.83
2156,1.822640,2318,3932975,14589.55,-926.19,2156.17
2157,1.823640,2319,3933975,6929.55,-1500.19,6745.17
2158,1.824639,2320,3934974,-2571.45,236.81,6287.17
2159,1.825639,2321,3935974,-9517.45,1287.81,2895.17
2160,1.826640,2322,3936975,-8362.45,291.81,1536.17
2161,1.827640,2323,3937975,-1586.45,-122.19,1680.17
2162,1.828640,2324,3938975,2577.55,-347.19,2073.17
2163,1.829639,2325,3939974,3072.55,-710.19,2609.17
2164,1.830640,2326,3940975,-2918.45,-1893.19,3558.17
2165,1.831640,2327,3941975,-8501.45,-3587.19,7292.17
2166,1.832639,2328,3942974,-18373.45,-2577.19,7027.17
2167,1.833640,2329,3943975,-27809.45,671.81,-1201.83
2168,1.834640,2330,3944975,-25403.45,2598.81,-5201.83
2169,1.835640,2331,3945975,-16807.45,1911.81,-1247.83
2170,1.836639,2332,3946974,-702.45,517.81,6053.17
2171,1.837639,2333,3947974,10425.55,-81.19,8777.17
2172,1.838639,2334,3948974,17658.55,358.81,5223.17
2173,1.839640,2335,3949975,16236.55,1312.81,-186.82999999999993
2174,1.840640,2336,3950975,9654.55,988.81,-3281.83
2175,1.841640,2337,3951975,1219.55,792.81,-4423.83
2176,1.842640,2338,3952975,-2800.45,858.81,-5556.83
2177,1.843640,2339,3953975,-3083.45,67.81,-6438.83
2178,1.844640,2340,3954975,-4204.45,-921.19,-6689.83
2179,1.845640,2341,3955975,3738.55,-1118.19,-6023.83
2180,1.846640,2342,3956975,11371.55,466.81,-6783.83
2181,1.847640,2343,3957975,15245.55,776.81,-3656.83
2182,1.848640,2344,3958975,13064.55,-1158.19,3501.17
2183,1.849640,2345,3959975,4673.55,-1328.19,6817.17
2184,1.850639,2346,3960974,-4742.45,608.81,5843.17
2185,1.851640,2347,3961975,-9921.45,1319.81,2434.17
2186,1.852640,2348,3962975,-6680.45,6.810000000000002,1608.17
2187,1.853640,2349,3963975,-728.45,-105.19,2026.17
2188,1.854639,2350,3964974,3022.55,-176.19,2063.17
2189,1.855640,2351,3965975,2704.55,-1121.19,2701.17
2190,1.856639,2352,3966974,-4008.45,-2273.19,4125.17
2191,1.857640,2353,3967975,-10197.45,-3558.19,8021.17
2192,1.858639,2354,3968974,-22014.45,-2113.19,5413.17
2193,1.859640,2355,3969975,-28491.45,1278.81,-2661.83
2194,1.860639,2356,3970974,-24086.45,2856.81,-5113.83
2195,1.861640,2357,3971975,-13702.45,1446.81,430.1700000000001
2196,1.862640,2358,3972975,2690.55,396.81,7075.17
2197,1.863640,2359,3973975,12857.55,-306.19,8114.17
2198,1.864639,2360,3974974,18944.55,352.81,4290.17
2199,1.865640,2361,3975975,14801.55,1659.81,-1117.83
2200,1.866640,2362,3976975,6653.55,942.81,-3833.83
2201,1.867640,2363,3977975,-147.45000000000005,830.81,-4746.83
2202,1.868639,2364,3978974,-2976.45,847.81,-5734.83
2203,1.869640,2365,3979975,-3597.45,-29.189999999999998,-6498.83
2204,1.870640,2366,3980975,-1929.45,-1257.19,-6064.83
2205,1.871640,2367,3981975,6191.55,-769.19,-6218.83
2206,1.872640,2368,3982975,13528.55,708.81,-6544.83
2207,1.873640,2369,3983975,14940.55,403.81,-1774.83
2208,1.874640,2370,3984975,10627.55,-1533.19,4625.17
2209,1.875640,2371,3985975,1447.55,-996.19,6681.17
2210,1.876639,2372,3986974,-7276.45,1019.81,4933.17
2211,1.877640,2373,3987975,-8804.45,612.81,1750.17
2212,1.878640,2374,3988975,-5027.45,267.81,1380.17
2213,1.879639,2375,3989974,540.55,202.81,1831.17
2214,1.880639,2376,3990974,3769.55,-634.19,2444.17
2215,1.881640,2377,3991975,727.55,-1212.19,3164.17
2216,1.882639,2378,3992974,-6522.45,-2735.19,5358.17
2217,1.883640,2379,3993975,-11192.45,-3691.19,8600.17
2218,1.884640,2380,3994975,-24907.45,-1077.19,3247.17
2219,1.885639,2381,3995974,-27736.45,1994.81,-4247.83
2220,1.886640,2382,3996975,-21827.45,2566.81,-4263.83
2221,1.887640,2383,3997975,-10211.45,1211.81,2675.17
2222,1.888640,2384,3998975,6500.55,-144.19,7975.17
2223,1.889640,2385,3999975,13634.55,-204.19,7351.17
2224,1.890640,2386,4000975,18644.55,1006.81,2917.17
2225,1.891640,2387,4001975,13037.55,1277.81,-2301.83
2226,1.892640,2388,4002975,4935.55,998.81,-4071.83
2227,1.893640,2389,4003975,-817.45,887.81,-4950.83
2228,1.894640,2390,4004975,-3181.45,552.81,-5968.83
2229,1.895640,2391,4005975,-4722.45,-164.19,-6574.83
2230,1.896639,2392,4006974,222.54999999999995,-1583.19,-5919.83
2231,1.897639,2393,4007974,8115.55,-200.19,-6663.83
2232,1.898640,2394,4008975,13615.55,961.81,-5736.83
2233,1.899640,2395,4009975,15224.55,-412.19,-219.82999999999993
2234,1.900640,2396,4010975,8837.55,-1640.19,5682.17
2235,1.901639,2397,4011974,266.54999999999995,-265.19,6843.17
2236,1.902640,2398,4012975,-8668.45,1302.81,3986.17
2237,1.903640,2399,4013975,-9870.45,497.81,1637.17
2238,1.904640,2400,4014975,-2912.45,-38.19,1654.17
2239,1.905640,2401,4015975,2034.55,-142.19,1928.17
2240,1.906640,2402,4016975,3802.55,-327.19,2042.17
2241,1.907639,2403,4017974,-1409.45,-1569.19,3195.17
2242,1.908639,2404,4018974,-7459.45,-3366.19,6562.17
2243,1.909639,2405,4019974,-13271.45,-3221.19,8127.17
2244,1.910640,2406,4020975,-27207.45,-303.19,1333.17
2245,1.911640,2407,4021975,-27379.45,2415.81,-4846.83
