row,seconds,esp32_index,micros,ax,ay,az
0,0.000000,99,1714011,6781.15,-1002.96,1150.7399999999998
1,0.001000,100,1715011,5747.15,-2038.96,-921.2600000000002
2,0.001999,101,1716010,-387.85,-2824.96,2754.74
3,0.003000,102,1717011,-16054.85,-1285.96,5085.74
4,0.004000,103,1718011,-29526.85,1583.04,-1681.2600000000002
5,0.005000,104,1719011,-30456.85,5137.04,-9053.26
6,0.005999,105,1720010,-28023.85,5658.04,-5437.26
7,0.007000,106,1721011,-14326.85,2877.04,516.7399999999998
8,0.008000,107,1722011,11823.15,1923.04,2834.74
9,0.008999,108,1723010,29591.15,183.04000000000002,6285.74
10,0.010000,109,1724011,32133.15,-2785.96,7892.74
11,0.011000,110,1725011,32133.15,-3656.96,6740.74
12,0.012000,111,1726011,17868.15,-904.96,734.7399999999998
13,0.013000,112,1727011,-1063.85,3036.04,-10181.26
14,0.014000,113,1728011,-20433.85,3635.04,-16139.26
15,0.015000,114,1729011,-27572.85,1545.04,-13353.26
16,0.016000,115,1730011,-22630.85,1497.04,-8905.26
17,0.017000,116,1731011,-14440.85,3247.04,-10838.26
18,0.018000,117,1732011,-287.85,1972.04,-13341.26
19,0.019000,118,1733011,14857.15,443.04,-8538.26
20,0.020000,119,1734011,21861.15,-53.959999999999994,1432.7399999999998
21,0.021000,120,1735011,15793.15,-1430.96,7461.74
22,0.022000,121,1736011,3297.15,-3074.96,9526.74
23,0.023000,122,1737011,-2157.85,-4048.96,12181.74
24,0.024000,123,1738011,-4515.85,-3470.96,14474.74
25,0.025000,124,1739011,-4728.85,-3006.96,13310.74
26,0.026000,125,1740011,4360.15,-1978.96,5412.74
27,0.027000,126,1741011,6944.15,-414.96,-1621.2600000000002
28,0.028000,127,1742011,3191.15,-1436.96,338.7399999999998
29,0.029000,128,1743011,-2797.85,-1832.96,3284.74
30,0.030000,129,1744011,-19806.85,134.04000000000002,1128.7399999999998
31,0.030999,130,1745010,-30546.85,1656.04,-1854.2600000000002
32,0.032000,131,1746011,-29905.85,3821.04,-5363.26
33,0.032999,132,1747010,-27996.85,5736.04,-7380.26
34,0.034000,133,1748011,-8486.85,4442.04,-2999.26
35,0.035000,134,1749011,16229.15,1232.04,4308.74
36,0.036000,135,1750011,30037.15,-2070.96,9776.74
37,0.037000,136,1751011,32133.15,-4123.96,11530.74
38,0.037999,137,1752010,31544.15,-3649.96,6133.74
39,0.039000,138,1753011,15280.15,144.04000000000002,-3664.26
40,0.040000,139,1754011,-4258.85,4419.04,-14602.26
41,0.041000,140,1755011,-21065.85,4068.04,-17497.260000000002
42,0.042000,141,1756011,-28845.85,1393.04,-11033.26
43,0.043000,142,1757011,-23890.85,1120.04,-6051.26
44,0.044000,143,1758011,-11888.85,2668.04,-10301.26
45,0.044999,144,1759010,3463.15,2336.04,-14778.26
46,0.046000,145,1760011,16771.15,593.04,-8108.26
47,0.047000,146,1761011,21536.15,-892.96,3661.74
48,0.048000,147,1762011,15068.15,-2109.96,9652.74
49,0.048999,148,1763010,2867.15,-3202.96,9228.74
50,0.050000,149,1764011,-4175.85,-3429.96,11476.74
51,0.051000,150,1765011,-6345.85,-2852.96,14525.74
52,0.051999,151,1766010,-4189.85,-2855.96,12789.74
53,0.053000,152,1767011,5762.15,-1846.96,4256.74
54,0.054000,153,1768011,6455.15,-529.96,-2378.26
55,0.055000,154,1769011,3145.15,-1702.96,324.7399999999998
56,0.056000,155,1770011,-2800.85,-2953.96,4646.74
57,0.057000,156,1771011,-22041.85,-135.95999999999998,2495.74
58,0.058000,157,1772011,-32082.85,4128.04,-6641.26
59,0.059000,158,1773011,-33328.85,5222.04,-8691.26
60,0.060000,159,1774011,-25104.85,3527.04,-1893.2600000000002
61,0.060999,160,1775010,-3526.85,2723.04,1667.7399999999998
62,0.062000,161,1776011,19271.15,1621.04,4547.74
63,0.063000,162,1777011,32133.15,-1356.96,7615.74
64,0.064000,163,1778011,32133.15,-3329.96,7654.74
65,0.064999,164,1779010,28145.15,-2619.96,4768.74
66,0.066000,165,1780011,10145.15,218.04000000000002,-3195.26
67,0.066999,166,1781010,-9312.85,3309.04,-13744.26
68,0.068000,167,1782011,-24303.85,2834.04,-15688.26
69,0.069000,168,1783011,-27356.85,1516.04,-9975.26
70,0.070000,169,1784011,-23766.85,2665.04,-9154.26
71,0.071000,170,1785011,-8795.85,3277.04,-13013.26
72,0.072000,171,1786011,8935.15,1581.04,-13154.26
73,0.073000,172,1787011,18379.15,438.04,-5684.26
74,0.074000,173,1788011,18915.15,-407.96,5501.74
75,0.075000,174,1789011,12549.15,-2842.96,9900.74
76,0.076000,175,1790011,255.14999999999998,-3665.96,9288.74
77,0.077000,176,1791011,-5562.85,-3284.96,12429.74
78,0.078000,177,1792011,-2652.85,-3285.96,14806.74
79,0.079000,178,1793011,-1848.85,-2626.96,10754.74
80,0.080000,179,1794011,6505.15,-1111.96,2409.74
81,0.081000,180,1795011,5122.15,-1322.96,-996.2600000000002
82,0.082000,181,1796011,2989.15,-2763.96,3012.74
83,0.083000,182,1797011,-7424.85,-1694.96,3601.74
84,0.084000,183,1798011,-27368.85,1023.04,-570.2600000000002
85,0.085000,184,1799011,-29609.85,3324.04,-5001.26
86,0.086000,185,1800011,-30804.85,5700.04,-9059.26
87,0.087000,186,1801011,-24440.85,5865.04,-6222.26
88,0.088000,187,1802011,-455.85,2862.04,1845.7399999999998
89,0.089000,188,1803011,22211.15,-438.96,7879.74
90,0.089999,189,1804010,32133.15,-3044.96,10685.74
91,0.091000,190,1805011,32133.15,-4424.96,9435.74
92,0.091999,191,1806010,25880.15,-2717.96,3351.74
93,0.093000,192,1807011,7098.15,2263.04,-7998.26
94,0.094000,193,1808011,-9730.85,4159.04,-16160.26
95,0.095000,194,1809011,-25796.85,2738.04,-15318.26
96,0.095999,195,1810010,-27081.85,1671.04,-8805.26
97,0.097000,196,1811011,-21845.85,2652.04,-8159.26
98,0.098000,197,1812011,-9131.85,3302.04,-12508.26
99,0.099000,198,1813011,11478.15,820.04,-11975.26
100,0.099999,199,1814010,20631.15,-145.95999999999998,-4116.26
101,0.101000,200,1815011,19312.15,-657.96,6448.74
102,0.102000,201,1816011,9455.15,-3015.96,10045.74
103,0.103000,202,1817011,922.15,-3736.96,9607.74
104,0.104000,203,1818011,-6029.85,-2879.96,12619.74
105,0.105000,204,1819011,-6693.85,-3532.96,15320.74
106,0.106000,205,1820011,857.15,-2906.96,9295.74
107,0.107000,206,1821011,7798.15,-538.96,1139.7399999999998
108,0.107999,207,1822010,6247.15,-1016.96,-1071.2600000000002
109,0.109000,208,1823011,1062.15,-2696.96,2462.74
110,0.110000,209,1824011,-10949.85,-1743.96,4022.74
111,0.111000,210,1825011,-28551.85,1242.04,-1828.2600000000002
112,0.112000,211,1826011,-31095.85,4740.04,-8420.26
113,0.113000,212,1827011,-32272.85,5342.04,-5613.26
114,0.114000,213,1828011,-19807.85,3298.04,1069.7399999999998
115,0.115000,214,1829011,7918.15,2316.04,2801.74
116,0.116000,215,1830011,25335.15,617.04,4529.74
117,0.117000,216,1831011,32133.15,-2477.96,7569.74
118,0.118000,217,1832011,32133.15,-3600.96,7707.74
119,0.119000,218,1833011,22237.15,-1957.96,2753.74
120,0.120000,219,1834011,4293.15,1506.04,-7021.26
121,0.121000,220,1835011,-15091.85,3989.04,-16137.26
122,0.122000,221,1836011,-28675.85,3223.04,-15644.26
123,0.123000,222,1837011,-27376.85,1290.04,-8480.26
124,0.124000,223,1838011,-17082.85,1991.04,-8794.26
125,0.125000,224,1839011,-2878.85,2970.04,-13980.26
126,0.125999,225,1840010,11928.15,1399.04,-11346.26
127,0.126999,226,1841010,20360.15,-314.96,-1236.2600000000002
128,0.128000,227,1842011,18264.15,-1364.96,6719.74
129,0.128999,228,1843010,7742.15,-2635.96,9731.74
130,0.130000,229,1844011,-1722.85,-3954.96,11001.74
131,0.131000,230,1845011,-4869.85,-3281.96,12878.74
132,0.132000,231,1846011,-5206.85,-3141.96,14532.74
133,0.132999,232,1847010,2456.15,-2850.96,9140.74
134,0.134000,233,1848011,8520.15,-725.96,-61.26000000000022
135,0.135000,234,1849011,3223.15,-1287.96,-664.2600000000002
136,0.136000,235,1850011,-152.85000000000002,-2037.96,3064.74
137,0.137000,236,1851011,-15773.85,-577.96,1788.7399999999998
138,0.138000,237,1852011,-29223.85,1078.04,-923.2600000000002
139,0.139000,238,1853011,-30562.85,3743.04,-5147.26
140,0.139999,239,1854010,-30312.85,5922.04,-8559.26
141,0.140999,240,1855010,-14546.85,4288.04,-4524.26
142,0.141999,241,1856010,9878.15,2571.04,2892.74
143,0.143000,242,1857011,27304.15,-504.96,9381.74
144,0.143999,243,1858010,32133.15,-3918.96,11457.74
145,0.145000,244,1859011,32133.15,-4447.96,9023.74
146,0.146000,245,1860011,20787.15,-1524.96,-152.26000000000022
147,0.147000,246,1861011,1900.15,3681.04,-13424.26
148,0.148000,247,1862011,-18134.85,4338.04,-17357.260000000002
149,0.149000,248,1863011,-29357.85,1994.04,-12871.26
150,0.150000,249,1864011,-26668.85,1308.04,-7283.26
151,0.151000,250,1865011,-14144.85,2343.04,-8444.26
152,0.152000,251,1866011,-1185.85,2598.04,-14434.26
153,0.153000,252,1867011,14896.15,1620.04,-10441.26
154,0.154000,253,1868011,21962.15,-8.959999999999994,584.7399999999998
155,0.154999,254,1869010,16660.15,-1415.96,7084.74
156,0.156000,255,1870011,5708.15,-2883.96,9344.74
157,0.157000,256,1871011,-3840.85,-4061.96,10312.74
158,0.158000,257,1872011,-5491.85,-3524.96,14184.74
159,0.159000,258,1873011,-5835.85,-3785.96,15633.74
160,0.159999,259,1874010,2737.15,-2326.96,7612.74
161,0.161000,260,1875011,8769.15,-13.959999999999994,-1138.2600000000002
162,0.162000,261,1876011,7141.15,-1721.96,-1471.2600000000002
163,0.163000,262,1877011,124.14999999999998,-2517.96,3328.74
164,0.164000,263,1878011,-19949.85,-29.959999999999994,3001.74
165,0.165000,264,1879011,-31618.85,2107.04,-2475.26
166,0.166000,265,1880011,-32060.85,4595.04,-8266.26
167,0.167000,266,1881011,-31523.85,5989.04,-7212.26
168,0.168000,267,1882011,-11820.85,2980.04,-273.2600000000002
169,0.168999,268,1883010,14999.15,838.04,4358.74
170,0.170000,269,1884011,31961.15,-797.96,8421.74
171,0.171000,270,1885011,32133.15,-3640.96,9728.74
172,0.172000,271,1886011,32133.15,-3123.96,5385.74
173,0.173000,272,1887011,17336.15,-375.96,-2581.26
174,0.174000,273,1888011,-2514.85,3389.04,-11904.26
175,0.175000,274,1889011,-25607.85,3844.04,-14969.26
176,0.176000,275,1890011,-27897.85,759.04,-10932.26
177,0.177000,276,1891011,-22960.85,1919.04,-9332.26
178,0.177999,277,1892010,-15625.85,3811.04,-11918.26
179,0.179000,278,1893011,5587.15,1641.04,-11715.26
180,0.180000,279,1894011,16821.15,229.04000000000002,-7006.26
181,0.181000,280,1895011,20455.15,8.040000000000006,895.7399999999998
182,0.182000,281,1896011,15284.15,-1241.96,7104.74
183,0.183000,282,1897011,2512.15,-3302.96,9696.74
184,0.184000,283,1898011,-5593.85,-3952.96,12120.74
185,0.185000,284,1899011,-4724.85,-3287.96,14483.74
186,0.185999,285,1900010,-2849.85,-3443.96,13454.74
187,0.187000,286,1901011,5253.15,-1832.96,5406.74
188,0.188000,287,1902011,7416.15,-1.9599999999999937,-3212.26
189,0.189000,288,1903011,2793.15,-1593.96,-498.2600000000002
190,0.190000,289,1904011,-2873.85,-2737.96,5305.74
191,0.191000,290,1905011,-21643.85,-604.96,2478.74
192,0.192000,291,1906011,-29983.85,2263.04,-2425.26
193,0.192999,292,1907010,-31766.85,5103.04,-7538.26
194,0.194000,293,1908011,-27615.85,5895.04,-8559.26
195,0.195000,294,1909011,-6354.85,4577.04,-2592.26
196,0.196000,295,1910011,16498.15,1322.04,5174.74
197,0.197000,296,1911011,32133.15,-2396.96,11772.74
198,0.198000,297,1912011,32133.15,-4669.96,12944.74
199,0.199000,298,1913011,30165.15,-3782.96,5696.74
200,0.200000,299,1914011,13666.15,461.04,-4875.26
201,0.201000,300,1915011,-5296.85,3794.04,-15226.26
202,0.202000,301,1916011,-21729.85,4337.04,-17580.260000000002
203,0.203000,302,1917011,-29531.85,1834.04,-10468.26
204,0.204000,303,1918011,-24174.85,980.04,-6581.26
205,0.205000,304,1919011,-11596.85,3193.04,-11365.26
206,0.206000,305,1920011,5738.15,2230.04,-15161.26
207,0.207000,306,1921011,19008.15,227.04000000000002,-7209.26
208,0.208000,307,1922011,19442.15,-540.96,4783.74
209,0.208999,308,1923010,14337.15,-2751.96,9519.74
210,0.210000,309,1924011,2058.15,-3872.96,10261.74
211,0.211000,310,1925011,-5463.85,-3024.96,12702.74
212,0.211999,311,1926010,-4506.85,-3461.96,14548.74
213,0.213000,312,1927011,-2161.85,-3307.96,12409.74
214,0.213999,313,1928010,4893.15,-490.96,2934.74
215,0.215000,314,1929011,5413.15,-466.96,-2541.26
216,0.216000,315,1930011,5101.15,-2666.96,1257.7399999999998
217,0.217000,316,1931011,-5617.85,-2354.96,3634.74
218,0.218000,317,1932011,-25061.85,393.04,1819.7399999999998
219,0.219000,318,1933011,-32016.85,4141.04,-6781.26
220,0.220000,319,1934011,-33401.85,5363.04,-8907.26
221,0.221000,320,1935011,-23286.85,4456.04,-1079.2600000000002
222,0.222000,321,1936011,11.149999999999977,2993.04,2289.74
223,0.223000,322,1937011,20968.15,319.04,4428.74
224,0.224000,323,1938011,32133.15,-1531.96,7392.74
225,0.225000,324,1939011,32133.15,-3153.96,7996.74
226,0.226000,325,1940011,25195.15,-3177.96,5057.74
227,0.227000,326,1941011,5853.15,878.04,-6095.26
228,0.228000,327,1942011,-9537.85,3777.04,-15597.26
229,0.228999,328,1943010,-25190.85,2521.04,-12713.26
230,0.230000,329,1944011,-28885.85,1106.04,-9030.26
231,0.231000,330,1945011,-17520.85,2066.04,-10479.26
232,0.231999,331,1946010,-8691.85,3155.04,-13536.26
233,0.233000,332,1947011,8921.15,1407.04,-10387.26
234,0.234000,333,1948011,19128.15,-496.96,-2813.26
235,0.235000,334,1949011,19051.15,-252.95999999999998,3648.74
236,0.236000,335,1950011,10424.15,-1125.96,7476.74
237,0.236999,336,1951010,251.14999999999998,-3782.96,9226.74
238,0.238000,337,1952011,-3920.85,-3326.96,12675.74
239,0.239000,338,1953011,-8738.85,-2874.96,14694.74
240,0.240000,339,1954011,1369.15,-3972.96,12418.74
241,0.241000,340,1955011,10431.15,-1665.96,2168.74
242,0.242000,341,1956011,4215.15,-1.9599999999999937,-4357.26
243,0.243000,342,1957011,-1178.85,-1751.96,1045.7399999999998
244,0.243999,343,1958010,-10312.85,-2286.96,5737.74
245,0.245000,344,1959011,-24839.85,-2.9599999999999937,2100.74
246,0.246000,345,1960011,-30109.85,3174.04,-3666.26
247,0.247000,346,1961011,-30867.85,6422.04,-8580.26
248,0.248000,347,1962011,-19875.85,5708.04,-7560.26
249,0.249000,348,1963011,5202.15,3104.04,245.73999999999978
250,0.250000,349,1964011,21375.15,-231.95999999999998,8183.74
251,0.251000,350,1965011,32133.15,-3479.96,12849.74
252,0.251999,351,1966010,32133.15,-4510.96,11355.74
253,0.253000,352,1967011,23951.15,-2838.96,2500.74
254,0.254000,353,1968011,7645.15,1923.04,-9534.26
255,0.254999,354,1969010,-11170.85,4666.04,-17122.260000000002
256,0.256000,355,1970011,-26426.85,3707.04,-16137.26
257,0.257000,356,1971011,-28913.85,1882.04,-8627.26
258,0.258000,357,1972011,-18482.85,1813.04,-6924.26
259,0.258999,358,1973010,-5282.85,2327.04,-12760.26
260,0.260000,359,1974011,11069.15,2001.04,-13584.26
261,0.261000,360,1975011,20249.15,383.04,-3294.26
262,0.261999,361,1976010,19413.15,-1315.96,6384.74
263,0.263000,362,1977011,7534.15,-2651.96,9282.74
264,0.264000,363,1978011,4.149999999999977,-4145.96,11980.74
265,0.265000,364,1979011,-4711.85,-3751.96,15159.74
266,0.265999,365,1980010,-8518.85,-3460.96,14247.74
267,0.267000,366,1981011,1698.15,-2777.96,8053.74
268,0.268000,367,1982011,8057.15,-706.96,182.73999999999978
269,0.269000,368,1983011,6334.15,-1262.96,-233.26000000000022
270,0.270000,369,1984011,1939.15,-2115.96,4141.74
271,0.271000,370,1985011,-14188.85,-601.96,1532.7399999999998
272,0.272000,371,1986011,-27920.85,920.04,-1477.2600000000002
273,0.273000,372,1987011,-29238.85,3395.04,-3881.26
274,0.274000,373,1988011,-33401.85,5689.04,-7983.26
275,0.275000,374,1989011,-19523.85,5516.04,-6312.26
276,0.276000,375,1990011,9163.15,3027.04,985.7399999999998
277,0.277000,376,1991011,25884.15,-1050.96,8664.74
278,0.278000,377,1992011,32133.15,-3924.96,12009.74
279,0.279000,378,1993011,32133.15,-4235.96,8377.74
280,0.280000,379,1994011,22890.15,-1690.96,-108.26000000000022
281,0.281000,380,1995011,5674.15,2979.04,-11073.26
282,0.282000,381,1996011,-16784.85,4354.04,-16677.260000000002
283,0.283000,382,1997011,-27880.85,1909.04,-12340.26
284,0.284000,383,1998011,-28002.85,1196.04,-6775.26
285,0.285000,384,1999011,-16095.85,2708.04,-9127.26
286,0.286000,385,2000011,-2555.85,3088.04,-14983.26
287,0.287000,386,2001011,12646.15,1644.04,-11506.26
288,0.287999,387,2002010,21911.15,18.040000000000006,-705.2600000000002
289,0.289000,388,2003011,18412.15,-1691.96,6774.74
290,0.290000,389,2004011,3709.15,-2942.96,9726.74
291,0.291000,390,2005011,-1967.85,-3932.96,10334.74
292,0.291999,391,2006010,-4423.85,-3591.96,13682.74
293,0.293000,392,2007011,-6470.85,-3736.96,17045.739999999998
294,0.293999,393,2008010,2648.15,-3337.96,10691.74
295,0.295000,394,2009011,10439.15,-625.96,-1434.2600000000002
296,0.296000,395,2010011,6905.15,-163.95999999999998,-3957.26
297,0.297000,396,2011011,-1.8500000000000227,-2176.96,3320.74
298,0.298000,397,2012011,-16026.85,-1184.96,3849.74
299,0.299000,398,2013011,-32530.85,1685.04,-1275.2600000000002
300,0.300000,399,2014011,-30879.85,3970.04,-6648.26
301,0.301000,400,2015011,-32323.85,6377.04,-10504.26
302,0.302000,401,2016011,-17238.85,5908.04,-5837.26
303,0.303000,402,2017011,11988.15,1967.04,3898.74
304,0.304000,403,2018011,28771.15,-2268.96,11104.74
305,0.305000,404,2019011,32133.15,-4271.96,12624.74
306,0.306000,405,2020011,32133.15,-3619.96,7417.74
307,0.306999,406,2021010,21815.15,-1464.96,-1480.2600000000002
308,0.308000,407,2022011,-5.850000000000023,2891.04,-12113.26
309,0.309000,408,2023011,-18949.85,4110.04,-15591.26
310,0.310000,409,2024011,-27780.85,1681.04,-12000.26
311,0.311000,410,2025011,-27531.85,2182.04,-9086.26
312,0.312000,411,2026011,-14902.85,3699.04,-8884.26
313,0.313000,412,2027011,-805.85,2384.04,-13791.26
314,0.314000,413,2028011,15002.15,1085.04,-11949.26
315,0.314999,414,2029010,21149.15,123.04,402.7399999999998
316,0.316000,415,2030011,15707.15,-1786.96,8548.74
317,0.317000,416,2031011,4749.15,-3413.96,10702.74
318,0.318000,417,2032011,-3309.85,-4363.96,12095.74
319,0.318999,418,2033010,-5707.85,-3589.96,14666.74
320,0.320000,419,2034011,-4174.85,-3058.96,12093.74
321,0.320999,420,2035010,4671.15,-2456.96,5703.74
322,0.322000,421,2036011,8727.15,-699.96,923.7399999999998
323,0.323000,422,2037011,3442.15,-1739.96,1289.7399999999998
324,0.324000,423,2038011,-239.85000000000002,-3180.96,5624.74
325,0.325000,424,2039011,-17583.85,-314.96,1940.7399999999998
326,0.326000,425,2040011,-29837.85,3337.04,-6242.26
327,0.326999,426,2041010,-32765.85,6309.04,-10918.26
328,0.327999,427,2042010,-32330.85,5981.04,-7188.26
329,0.329000,428,2043011,-11153.85,3770.04,618.7399999999998
330,0.330000,429,2044011,14278.15,521.04,6240.74
331,0.331000,430,2045011,31202.15,-2656.96,9776.74
332,0.332000,431,2046011,32133.15,-3551.96,9517.74
333,0.333000,432,2047011,32133.15,-3112.96,4932.74
334,0.334000,433,2048011,17911.15,-408.96,-1394.2600000000002
335,0.335000,434,2049011,-2569.85,2846.04,-11351.26
336,0.336000,435,2050011,-23494.85,3841.04,-16262.26
337,0.337000,436,2051011,-30564.85,1728.04,-12051.26
338,0.338000,437,2052011,-22666.85,1868.04,-9040.26
339,0.339000,438,2053011,-14047.85,3986.04,-11334.26
340,0.339999,439,2054010,1447.15,2353.04,-13919.26
341,0.341000,440,2055011,18525.15,219.04000000000002,-7353.26
342,0.341999,441,2056010,21958.15,-786.96,2726.74
343,0.342999,442,2057010,15706.15,-1928.96,7462.74
344,0.344000,443,2058011,1642.15,-2758.96,9206.74
345,0.345000,444,2059011,-5911.85,-3857.96,11449.74
346,0.346000,445,2060011,-3598.85,-4283.96,15519.74
347,0.347000,446,2061011,-3982.85,-3660.96,15120.74
348,0.348000,447,2062011,4451.15,-1655.96,4899.74
349,0.349000,448,2063011,10578.15,-619.96,-2403.26
350,0.350000,449,2064011,4572.15,-1677.96,186.73999999999978
351,0.351000,450,2065011,-4840.85,-2185.96,4798.74
352,0.352000,451,2066011,-20882.85,-202.95999999999998,2549.74
353,0.353000,452,2067011,-31997.85,2744.04,-3752.26
354,0.354000,453,2068011,-33257.85,6123.04,-9786.26
355,0.354999,454,2069010,-29988.85,7594.04,-10736.26
356,0.356000,455,2070011,-7087.85,3958.04,-870.2600000000002
357,0.356999,456,2071010,18856.15,-371.96,8238.74
358,0.358000,457,2072011,32133.15,-3397.96,11990.74
359,0.359000,458,2073011,32133.15,-4771.96,11636.74
360,0.360000,459,2074011,30783.15,-3271.96,3811.74
361,0.361000,460,2075011,13604.15,941.04,-5458.26
362,0.362000,461,2076011,-7001.85,4100.04,-13772.26
363,0.363000,462,2077011,-23939.85,2983.04,-15250.26
364,0.364000,463,2078011,-28493.85,864.04,-10219.26
365,0.365000,464,2079011,-22596.85,2007.04,-8605.26
366,0.366000,465,2080011,-12942.85,4314.04,-12906.26
367,0.367000,466,2081011,5152.15,1823.04,-13402.26
368,0.368000,467,2082011,19804.15,-150.95999999999998,-4635.26
369,0.368999,468,2083010,17998.15,119.04,4281.74
370,0.369999,469,2084010,13954.15,-1688.96,7513.74
371,0.371000,470,2085011,2089.15,-4046.96,9344.74
372,0.371999,471,2086010,-4536.85,-4019.96,12073.74
373,0.372999,472,2087010,-5541.85,-3498.96,14136.74
374,0.374000,473,2088011,-2365.85,-3713.96,14939.74
375,0.375000,474,2089011,6394.15,-1638.96,5340.74
376,0.376000,475,2090011,7744.15,-320.96,-2813.26
377,0.377000,476,2091011,6874.15,-1937.96,1740.7399999999998
378,0.378000,477,2092011,-7231.85,-1571.96,3076.74
379,0.379000,478,2093011,-25505.85,639.04,32.73999999999978
380,0.379999,479,2094010,-33177.85,2815.04,-4133.26
381,0.381000,480,2095011,-33401.85,5843.04,-10008.26
382,0.382000,481,2096011,-24895.85,5216.04,-7732.26
383,0.383000,482,2097011,-2479.85,3401.04,469.7399999999998
384,0.384000,483,2098011,19708.15,832.04,7262.74
385,0.385000,484,2099011,32133.15,-3531.96,11423.74
386,0.386000,485,2100011,32133.15,-4330.96,10429.74
387,0.387000,486,2101011,27802.15,-2521.96,4273.74
388,0.388000,487,2102011,8940.15,1617.04,-6749.26
389,0.389000,488,2103011,-7759.85,3505.04,-14835.26
390,0.389999,489,2104010,-23949.85,2424.04,-14259.26
391,0.391000,490,2105011,-30887.85,2275.04,-10307.26
392,0.392000,491,2106011,-23024.85,2433.04,-9530.26
393,0.393000,492,2107011,-9151.85,3023.04,-13396.26
394,0.394000,493,2108011,8878.15,1471.04,-12979.26
395,0.395000,494,2109011,20666.15,-45.959999999999994,-3434.26
396,0.396000,495,2110011,16622.15,-664.96,5325.74
397,0.397000,496,2111011,12002.15,-2430.96,8151.74
398,0.398000,497,2112011,1799.15,-3715.96,10004.74
399,0.398999,498,2113010,-6826.85,-2990.96,13199.74
400,0.400000,499,2114011,-3969.85,-3501.96,15740.74
401,0.400999,500,2115010,-225.85000000000002,-3605.96,12444.74
402,0.401999,501,2116010,8089.15,-830.96,1782.7399999999998
403,0.403000,502,2117011,7714.15,-785.96,-2057.26
404,0.404000,503,2118011,3502.15,-2432.96,2356.74
405,0.404999,504,2119010,-10137.85,-1229.96,2090.74
406,0.406000,505,2120011,-28581.85,1139.04,-17.26000000000022
407,0.407000,506,2121011,-32787.85,3607.04,-4950.26
408,0.408000,507,2122011,-32291.85,5863.04,-10219.26
409,0.409000,508,2123011,-21274.85,3947.04,-4651.26
410,0.410000,509,2124011,2388.15,2595.04,3168.74
411,0.411000,510,2125011,22682.15,780.04,7053.74
412,0.412000,511,2126011,32133.15,-3489.96,11083.74
413,0.413000,512,2127011,32133.15,-3899.96,9344.74
414,0.414000,513,2128011,24363.15,-1888.96,1241.7399999999998
415,0.415000,514,2129011,8136.15,3018.04,-8908.26
416,0.415999,515,2130010,-13621.85,3654.04,-13132.26
417,0.417000,516,2131011,-26894.85,740.04,-11741.26
418,0.418000,517,2132011,-25781.85,1542.04,-9513.26
419,0.419000,518,2133011,-21486.85,3192.04,-10860.26
420,0.420000,519,2134011,-5637.85,3119.04,-14436.26
421,0.420999,520,2135010,11689.15,1168.04,-11262.26
422,0.422000,521,2136011,19369.15,-23.959999999999994,-1584.2600000000002
423,0.422999,522,2137010,15864.15,-855.96,6648.74
424,0.424000,523,2138011,9141.15,-2532.96,7449.74
425,0.425000,524,2139011,-185.85000000000002,-3286.96,8669.74
426,0.426000,525,2140011,-5370.85,-2741.96,13031.74
427,0.427000,526,2141011,-4564.85,-4034.96,15859.74
428,0.428000,527,2142011,1117.15,-4060.96,12029.74
429,0.428999,528,2143010,9809.15,-777.96,1723.7399999999998
430,0.430000,529,2144011,4557.15,-934.96,-2419.26
431,0.431000,530,2145011,1791.15,-2334.96,1279.7399999999998
432,0.432000,531,2146011,-12162.85,-863.96,2260.74
433,0.433000,532,2147011,-28705.85,963.04,-144.26000000000022
434,0.434000,533,2148011,-30542.85,3706.04,-6055.26
435,0.435000,534,2149011,-33401.85,6736.04,-9673.26
436,0.436000,535,2150011,-19161.85,5813.04,-3890.26
437,0.437000,536,2151011,7993.15,1727.04,3461.74
438,0.437999,537,2152010,25892.15,-1572.96,8372.74
439,0.439000,538,2153011,32133.15,-3342.96,10843.74
440,0.440000,539,2154011,32133.15,-3721.96,8951.74
441,0.441000,540,2155011,23942.15,-2437.96,2446.74
442,0.442000,541,2156011,2203.15,2612.04,-10168.26
443,0.443000,542,2157011,-15990.85,4522.04,-16704.260000000002
444,0.444000,543,2158011,-26067.85,2135.04,-13834.26
445,0.445000,544,2159011,-28784.85,2744.04,-9825.26
446,0.445999,545,2160010,-18015.85,2516.04,-9165.26
447,0.447000,546,2161011,-1912.85,1966.04,-14312.26
448,0.448000,547,2162011,12945.15,1651.04,-12046.26
449,0.449000,548,2163011,20108.15,-446.96,-254.26000000000022
450,0.450000,549,2164011,18594.15,-1794.96,8089.74
451,0.451000,550,2165011,4309.15,-2749.96,8955.74
452,0.452000,551,2166011,-2441.85,-4005.96,11141.74
453,0.453000,552,2167011,-2907.85,-3452.96,14204.74
454,0.453999,553,2168010,-5149.85,-3172.96,13826.74
455,0.454999,554,2169010,2030.15,-2285.96,8756.74
456,0.456000,555,2170011,9116.15,-958.96,967.7399999999998
457,0.457000,556,2171011,6619.15,-1418.96,-1591.2600000000002
458,0.458000,557,2172011,-1486.85,-1453.96,1151.7399999999998
459,0.459000,558,2173011,-16807.85,-815.96,2145.74
460,0.459999,559,2174010,-28388.85,1319.04,-734.2600000000002
461,0.461000,560,2175011,-32543.85,4539.04,-7216.26
462,0.462000,561,2176011,-31698.85,5436.04,-6893.26
463,0.462999,562,2177010,-14850.85,4225.04,278.7399999999998
464,0.463999,563,2178010,12571.15,1444.04,3433.74
465,0.465000,564,2179011,30782.15,-1099.96,6550.74
466,0.466000,565,2180011,32133.15,-2557.96,8111.74
467,0.467000,566,2181011,32133.15,-3840.96,6264.74
468,0.468000,567,2182011,18074.15,-839.96,549.7399999999998
469,0.469000,568,2183011,-2534.85,3569.04,-11277.26
470,0.469999,569,2184010,-18705.85,2927.04,-15459.26
471,0.471000,570,2185011,-27509.85,764.04,-10155.26
472,0.472000,571,2186011,-24249.85,1375.04,-7368.26
473,0.473000,572,2187011,-11921.85,3027.04,-11044.26
474,0.474000,573,2188011,273.15,3291.04,-15606.26
475,0.475000,574,2189011,13957.15,1330.04,-10390.26
476,0.476000,575,2190011,21062.15,-191.95999999999998,1626.7399999999998
477,0.477000,576,2191011,12387.15,-1744.96,8984.74
478,0.478000,577,2192011,4403.15,-2789.96,7674.74
479,0.478999,578,2193010,-2402.85,-3428.96,10374.74
480,0.479999,579,2194010,-5748.85,-3142.96,14215.74
481,0.481000,580,2195011,-2395.85,-3217.96,12429.74
482,0.482000,581,2196011,4675.15,-3169.96,7573.74
483,0.483000,582,2197011,8035.15,-1822.96,1962.7399999999998
484,0.483999,583,2198010,5217.15,-2469.96,2867.74
485,0.485000,584,2199011,-1586.85,-1355.96,3224.74
486,0.486000,585,2200011,-20200.85,1017.04,-1043.2600000000002
487,0.486999,586,2201010,-30796.85,2660.04,-4496.26
488,0.488000,587,2202011,-30909.85,4494.04,-7495.26
489,0.489000,588,2203011,-28434.85,5683.04,-6854.26
490,0.490000,589,2204011,-12267.85,4875.04,-1132.2600000000002
491,0.491000,590,2205011,13090.15,1093.04,4580.74
492,0.491999,591,2206010,31234.15,-2212.96,9201.74
493,0.493000,592,2207011,32133.15,-4145.96,10951.74
494,0.494000,593,2208011,31769.15,-3902.96,5610.74
495,0.494999,594,2209010,17284.15,431.04,-2871.26
496,0.496000,595,2210011,-1382.85,3530.04,-11612.26
497,0.497000,596,2211011,-20174.85,3203.04,-16249.26
498,0.498000,597,2212011,-27737.85,1747.04,-12106.26
499,0.499000,598,2213011,-24417.85,1642.04,-8165.26
500,0.500000,599,2214011,-16939.85,2814.04,-11067.26
501,0.501000,600,2215011,3475.15,1802.04,-13669.26
502,0.502000,601,2216011,17768.15,942.04,-8043.26
503,0.503000,602,2217011,20005.15,-40.959999999999994,2870.74
504,0.504000,603,2218011,16274.15,-2326.96,8401.74
505,0.505000,604,2219011,1720.15,-3327.96,10124.74
506,0.506000,605,2220011,-3039.85,-2940.96,12349.74
507,0.506999,606,2221010,-4645.85,-3430.96,13099.74
508,0.508000,607,2222011,-3683.85,-3088.96,11530.74
509,0.509000,608,2223011,4697.15,-1040.96,4858.74
510,0.510000,609,2224011,6056.15,-1215.96,-60.26000000000022
511,0.511000,610,2225011,4349.15,-2449.96,1001.7399999999998
512,0.512000,611,2226011,-2928.85,-2343.96,4110.74
513,0.513000,612,2227011,-20623.85,1.0400000000000063,2146.74
514,0.514000,613,2228011,-31884.85,3220.04,-6236.26
515,0.515000,614,2229011,-33401.85,5148.04,-8036.26
516,0.516000,615,2230011,-26117.85,5255.04,-3462.26
517,0.517000,616,2231011,-5212.85,3490.04,456.7399999999998
518,0.518000,617,2232011,17793.15,975.04,4396.74
519,0.519000,618,2233011,32133.15,-1945.96,7413.74
520,0.520000,619,2234011,32133.15,-3757.96,8625.74
521,0.521000,620,2235011,29876.15,-3400.96,6825.74
522,0.522000,621,2236011,9591.15,323.04,-3991.26
523,0.522999,622,2237010,-6006.85,3899.04,-14904.26
524,0.523999,623,2238010,-23875.85,2767.04,-13839.26
525,0.525000,624,2239011,-28189.85,1012.04,-9830.26
526,0.526000,625,2240011,-18383.85,2112.04,-9752.26
527,0.527000,626,2241011,-14294.85,3787.04,-13164.26
528,0.528000,627,2242011,6399.15,1572.04,-10895.26
529,0.529000,628,2243011,18791.15,-407.96,-3466.26
530,0.530000,629,2244011,19525.15,-288.96,3181.74
531,0.531000,630,2245011,14750.15,-1321.96,7133.74
532,0.532000,631,2246011,1386.15,-2920.96,8930.74
533,0.532999,632,2247010,-5093.85,-3533.96,12204.74
534,0.533999,633,2248010,-6919.85,-3400.96,13378.74
535,0.535000,634,2249011,-1697.85,-3421.96,11996.74
536,0.536000,635,2250011,6460.15,-1125.96,3436.74
537,0.537000,636,2251011,4534.15,-385.96,-3233.26
538,0.538000,637,2252011,3850.15,-2675.96,1880.7399999999998
539,0.538999,638,2253010,-7037.85,-2338.96,6163.74
540,0.540000,639,2254011,-24000.85,-22.959999999999994,2448.74
541,0.541000,640,2255011,-29959.85,3065.04,-4268.26
542,0.542000,641,2256011,-30847.85,5345.04,-8553.26
543,0.543000,642,2257011,-21938.85,5717.04,-8198.26
544,0.544000,643,2258011,-1774.85,4319.04,-1113.2600000000002
545,0.545000,644,2259011,19644.15,275.04,7276.74
546,0.546000,645,2260011,32133.15,-3108.96,11601.74
547,0.547000,646,2261011,32133.15,-4069.96,11079.74
548,0.548000,647,2262011,27039.15,-2761.96,3836.74
549,0.548999,648,2263010,9312.15,1904.04,-8907.26
550,0.550000,649,2264011,-8975.85,3800.04,-16581.260000000002
551,0.551000,650,2265011,-23927.85,2127.04,-13160.26
552,0.551999,651,2266010,-28503.85,1347.04,-7571.26
553,0.552999,652,2267010,-19308.85,2041.04,-8654.26
554,0.554000,653,2268011,-9126.85,3282.04,-14708.26
555,0.554999,654,2269010,8772.15,2030.04,-13847.26
556,0.556000,655,2270011,20136.15,242.04000000000002,-3888.26
557,0.557000,656,2271011,16542.15,-876.96,6064.74
558,0.558000,657,2272011,10790.15,-3029.96,9508.74
559,0.559000,658,2273011,3241.15,-3750.96,11096.74
560,0.560000,659,2274011,-5544.85,-2466.96,12774.74
561,0.561000,660,2275011,-6644.85,-2865.96,12850.74
562,0.562000,661,2276011,41.14999999999998,-3452.96,10911.74
563,0.563000,662,2277011,6649.15,-1519.96,3180.74
564,0.564000,663,2278011,6763.15,-1122.96,-1014.2600000000002
565,0.564999,664,2279010,2121.15,-2160.96,1380.7399999999998
566,0.566000,665,2280011,-9130.85,-1305.96,2788.74
567,0.567000,666,2281011,-25305.85,441.04,398.7399999999998
568,0.568000,667,2282011,-31222.85,3395.04,-4287.26
569,0.568999,668,2283010,-32252.85,5602.04,-8320.26
570,0.569999,669,2284010,-23447.85,4506.04,-6167.26
571,0.570999,670,2285010,2552.15,2948.04,1100.7399999999998
572,0.572000,671,2286011,23335.15,510.04,6772.74
573,0.572999,672,2287010,32133.15,-2779.96,10377.74
574,0.574000,673,2288011,32133.15,-3981.96,9634.74
575,0.574999,674,2289010,24359.15,-1728.96,2996.74
576,0.575999,675,2290010,6097.15,2806.04,-9088.26
577,0.577000,676,2291011,-11942.85,3214.04,-14648.26
578,0.577999,677,2292010,-23838.85,1501.04,-12224.26
579,0.578999,678,2293010,-26825.85,1731.04,-9814.26
580,0.580000,679,2294011,-20761.85,2796.04,-10090.26
581,0.581000,680,2295011,-6228.85,2370.04,-13013.26
582,0.582000,681,2296011,10975.15,1043.04,-10396.26
583,0.583000,682,2297011,18744.15,307.04,-2239.26
584,0.583999,683,2298010,16870.15,-835.96,4752.74
585,0.584999,684,2299010,10829.15,-2798.96,8290.74
586,0.586000,685,2300011,1188.15,-3683.96,10607.74
587,0.587000,686,2301011,-6725.85,-2906.96,13355.74
588,0.588000,687,2302011,-6161.85,-3553.96,14465.74
589,0.589000,688,2303011,1532.15,-3183.96,9696.74
590,0.590000,689,2304011,8439.15,-633.96,497.7399999999998
591,0.591000,690,2305011,5234.15,-716.96,-1898.2600000000002
592,0.592000,691,2306011,1708.15,-1890.96,1644.7399999999998
593,0.593000,692,2307011,-12575.85,-1290.96,3288.74
594,0.594000,693,2308011,-27898.85,310.04,1169.7399999999998
595,0.594999,694,2309010,-31257.85,3032.04,-3746.26
596,0.596000,695,2310011,-30350.85,5866.04,-8027.26
597,0.596999,696,2311010,-17704.85,4850.04,-6376.26
598,0.598000,697,2312011,6328.15,2992.04,486.7399999999998
599,0.598999,698,2313010,24756.15,549.04,7252.74
600,0.600000,699,2314011,32133.15,-3708.96,12459.74
601,0.601000,700,2315011,32133.15,-4543.96,9959.74
602,0.601999,701,2316010,22673.15,-2268.96,1621.7399999999998
603,0.602999,702,2317010,4608.15,2868.04,-10913.26
604,0.604000,703,2318011,-13997.85,4374.04,-16942.260000000002
605,0.605000,704,2319011,-28044.85,1877.04,-12497.26
606,0.606000,705,2320011,-27120.85,1558.04,-7949.26
607,0.607000,706,2321011,-17002.85,2841.04,-10196.26
608,0.608000,707,2322011,-3948.85,3398.04,-15854.26
609,0.609000,708,2323011,12244.15,1602.04,-11146.26
610,0.610000,709,2324011,20788.15,-594.96,497.7399999999998
611,0.611000,710,2325011,17761.15,-1765.96,7365.74
612,0.612000,711,2326011,6823.15,-2704.96,9059.74
613,0.613000,712,2327011,-2086.85,-3965.96,10364.74
614,0.614000,713,2328011,-4450.85,-3589.96,13662.74
615,0.614999,714,2329010,-4917.85,-3137.96,15221.74
616,0.615999,715,2330010,1586.15,-2735.96,8279.74
617,0.617000,716,2331011,8172.15,-802.96,-96.26000000000022
618,0.617999,717,2332010,5774.15,-1034.96,-497.2600000000002
619,0.619000,718,2333011,-647.85,-1715.96,1789.7399999999998
620,0.620000,719,2334011,-15866.85,-635.96,1721.7399999999998
621,0.620999,720,2335010,-28984.85,1075.04,2.7399999999997817
622,0.622000,721,2336011,-31692.85,3710.04,-4725.26
623,0.623000,722,2337011,-30224.85,5805.04,-8694.26
624,0.624000,723,2338011,-13775.85,3900.04,-4245.26
625,0.625000,724,2339011,9856.15,1921.04,3411.74
626,0.626000,725,2340011,27920.15,-340.96,8627.74
627,0.627000,726,2341011,32133.15,-3525.96,10611.74
628,0.628000,727,2342011,32133.15,-3890.96,7499.74
629,0.629000,728,2343011,20738.15,-1068.96,-1219.2600000000002
630,0.630000,729,2344011,1815.15,3894.04,-12187.26
631,0.631000,730,2345011,-19626.85,4081.04,-15417.26
632,0.631999,731,2346010,-27684.85,813.04,-10424.26
633,0.633000,732,2347011,-25346.85,1129.04,-6760.26
634,0.634000,733,2348011,-15074.85,3263.04,-11337.26
635,0.634999,734,2349010,204.14999999999998,2961.04,-16032.26
636,0.635999,735,2350010,13990.15,1319.04,-9395.26
637,0.637000,736,2351011,21361.15,-406.96,1798.7399999999998
638,0.638000,737,2352011,14947.15,-1339.96,7154.74
639,0.639000,738,2353011,3682.15,-3537.96,10287.74
640,0.639999,739,2354010,218.14999999999998,-4671.96,11118.74
641,0.641000,740,2355011,-5675.85,-3285.96,13466.74
642,0.642000,741,2356011,-5650.85,-3052.96,15149.74
643,0.642999,742,2357010,4769.15,-2251.96,6677.74
644,0.643999,743,2358010,7886.15,-336.96,-1580.2600000000002
645,0.645000,744,2359011,4702.15,-1520.96,476.7399999999998
646,0.645999,745,2360010,-1336.85,-2296.96,3424.74
647,0.647000,746,2361011,-17893.85,217.04000000000002,236.73999999999978
648,0.648000,747,2362011,-31163.85,1565.04,-2116.26
649,0.649000,748,2363011,-32344.85,4065.04,-5254.26
650,0.650000,749,2364011,-30351.85,7065.04,-9831.26
651,0.651000,750,2365011,-11169.85,5071.04,-4806.26
652,0.652000,751,2366011,13699.15,855.04,4691.74
653,0.653000,752,2367011,30597.15,-2111.96,10059.74
654,0.654000,753,2368011,32133.15,-4309.96,12113.74
655,0.654999,754,2369010,32133.15,-4676.96,8325.74
656,0.655999,755,2370010,16931.15,14.040000000000006,-3512.26
657,0.657000,756,2371011,-1369.85,4511.04,-13591.26
658,0.657999,757,2372010,-20647.85,3184.04,-14915.26
659,0.658999,758,2373010,-28980.85,1334.04,-12123.26
660,0.660000,759,2374011,-24231.85,1980.04,-8181.26
661,0.661000,760,2375011,-14946.85,3438.04,-11197.26
662,0.661999,761,2376010,3062.15,1694.04,-13472.26
663,0.663000,762,2377011,16805.15,0.04000000000000625,-6666.26
664,0.664000,763,2378011,20924.15,147.04000000000002,2311.74
665,0.665000,764,2379011,16216.15,-1038.96,6797.74
666,0.666000,765,2380011,3529.15,-2455.96,7852.74
667,0.666999,766,2381010,-5307.85,-3903.96,11597.74
668,0.668000,767,2382011,-6961.85,-4136.96,14926.74
669,0.669000,768,2383011,-3377.85,-3603.96,13832.74
670,0.670000,769,2384011,4371.15,-1676.96,5519.74
671,0.671000,770,2385011,7555.15,-393.96,-1544.2600000000002
672,0.672000,771,2386011,5537.15,-1860.96,-337.2600000000002
673,0.673000,772,2387011,-1319.85,-2432.96,3894.74
674,0.674000,773,2388011,-21256.85,-388.96,3433.74
675,0.675000,774,2389011,-32635.85,2359.04,-1853.2600000000002
676,0.676000,775,2390011,-32419.85,5106.04,-8640.26
677,0.677000,776,2391011,-29528.85,5949.04,-9574.26
678,0.678000,777,2392011,-5864.85,4212.04,-1926.2600000000002
679,0.679000,778,2393011,17690.15,1501.04,5424.74
680,0.680000,779,2394011,32133.15,-2616.96,10923.74
681,0.681000,780,2395011,32133.15,-4388.96,10900.74
682,0.682000,781,2396011,29736.15,-3410.96,5416.74
683,0.683000,782,2397011,14463.15,580.04,-4689.26
684,0.684000,783,2398011,-6219.85,3473.04,-13657.26
685,0.685000,784,2399011,-23992.85,2584.04,-14035.26
686,0.686000,785,2400011,-28011.85,2045.04,-11003.26
687,0.687000,786,2401011,-23091.85,2851.04,-10219.26
688,0.687999,787,2402010,-11705.85,3322.04,-13071.26
689,0.689000,788,2403011,4940.15,1923.04,-13075.26
690,0.689999,789,2404010,17737.15,220.04000000000002,-4817.26
691,0.691000,790,2405011,20462.15,-864.96,4244.74
692,0.691999,791,2406010,13205.15,-2159.96,7428.74
693,0.693000,792,2407011,1549.15,-3497.96,9247.74
694,0.694000,793,2408011,-4352.85,-3562.96,13490.74
695,0.695000,794,2409011,-4994.85,-3644.96,15752.74
696,0.695999,795,2410010,-2290.85,-3682.96,12716.74
697,0.696999,796,2411010,5856.15,-921.96,2612.74
698,0.698000,797,2412011,5726.15,183.04000000000002,-3841.26
699,0.699000,798,2413011,5181.15,-2398.96,1088.7399999999998
700,0.700000,799,2414011,-4684.85,-2217.96,3494.74
701,0.701000,800,2415011,-26794.85,734.04,1012.7399999999998
702,0.702000,801,2416011,-30793.85,2213.04,-1497.2600000000002
703,0.703000,802,2417011,-31034.85,4653.04,-6704.26
704,0.704000,803,2418011,-26987.85,7247.04,-9238.26
705,0.705000,804,2419011,-2422.85,4721.04,-2433.26
706,0.706000,805,2420011,20697.15,-471.96,6733.74
707,0.707000,806,2421011,32133.15,-3753.96,11917.74
708,0.708000,807,2422011,32133.15,-4707.96,12161.74
709,0.709000,808,2423011,26549.15,-2829.96,4952.74
710,0.710000,809,2424011,10637.15,1805.04,-7549.26
711,0.711000,810,2425011,-6896.85,3937.04,-16282.26
712,0.712000,811,2426011,-23439.85,2618.04,-14384.26
713,0.713000,812,2427011,-30895.85,1632.04,-8248.26
714,0.714000,813,2428011,-20795.85,2011.04,-7609.26
715,0.715000,814,2429011,-7709.85,3186.04,-14191.26
716,0.715999,815,2430010,6861.15,2321.04,-14855.26
717,0.717000,816,2431011,18428.15,143.04000000000002,-4811.26
718,0.718000,817,2432011,18561.15,-849.96,5779.74
719,0.719000,818,2433011,11005.15,-2402.96,8766.74
720,0.720000,819,2434011,2695.15,-4397.96,11022.74
721,0.720999,820,2435010,-5180.85,-3173.96,12885.74
722,0.722000,821,2436011,-5506.85,-3059.96,13578.74
723,0.723000,822,2437011,-898.85,-3354.96,11888.74
724,0.724000,823,2438011,5677.15,-1079.96,2601.74
725,0.725000,824,2439011,8053.15,-900.96,-981.2600000000002
726,0.726000,825,2440011,4119.15,-2299.96,1558.7399999999998
727,0.727000,826,2441011,-9283.85,-1252.96,1262.7399999999998
728,0.728000,827,2442011,-29107.85,1279.04,-360.2600000000002
729,0.729000,828,2443011,-29906.85,2191.04,-1887.2600000000002
730,0.730000,829,2444011,-30177.85,4855.04,-6378.26
731,0.731000,830,2445011,-23606.85,6024.04,-6770.26
732,0.732000,831,2446011,1183.15,4106.04,-795.2600000000002
733,0.732999,832,2447010,22063.15,667.04,6576.74
734,0.734000,833,2448011,32133.15,-3907.96,12232.74
735,0.735000,834,2449011,32133.15,-5085.96,11997.74
736,0.736000,835,2450011,25282.15,-2423.96,3385.74
737,0.737000,836,2451011,7940.15,1889.04,-9308.26
738,0.738000,837,2452011,-10353.85,4216.04,-16431.260000000002
739,0.739000,838,2453011,-27290.85,3439.04,-15298.26
740,0.740000,839,2454011,-29294.85,1477.04,-8167.26
741,0.741000,840,2455011,-19473.85,1597.04,-7128.26
742,0.742000,841,2456011,-6866.85,2998.04,-13635.26
743,0.743000,842,2457011,12163.15,2214.04,-13527.26
744,0.744000,843,2458011,19231.15,376.04,-4689.26
745,0.745000,844,2459011,17475.15,-813.96,5687.74
746,0.746000,845,2460011,8949.15,-3079.96,10158.74
747,0.747000,846,2461011,95.14999999999998,-4658.96,11571.74
748,0.748000,847,2462011,-5734.85,-3570.96,14437.74
749,0.748999,848,2463010,-5775.85,-3019.96,14097.74
750,0.750000,849,2464011,2362.15,-2598.96,8761.74
751,0.751000,850,2465011,7841.15,-949.96,647.7399999999998
752,0.752000,851,2466011,5819.15,-1208.96,-139.26000000000022
753,0.753000,852,2467011,1453.15,-2331.96,3295.74
754,0.754000,853,2468011,-11617.85,-737.96,1451.7399999999998
755,0.755000,854,2469011,-28931.85,1129.04,-715.2600000000002
756,0.755999,855,2470010,-30187.85,3299.04,-4328.26
757,0.757000,856,2471011,-31594.85,5959.04,-8700.26
758,0.758000,857,2472011,-21841.85,4756.04,-5897.26
759,0.759000,858,2473011,6427.15,2373.04,1735.7399999999998
760,0.760000,859,2474011,26551.15,-136.95999999999998,7956.74
761,0.761000,860,2475011,32133.15,-3335.96,11552.74
762,0.762000,861,2476011,32133.15,-3720.96,8912.74
763,0.763000,862,2477011,23428.15,-1948.96,1120.7399999999998
764,0.763999,863,2478010,5227.15,2151.04,-9862.26
765,0.765000,864,2479011,-15431.85,3859.04,-14881.26
766,0.766000,865,2480011,-27991.85,2193.04,-12624.26
767,0.767000,866,2481011,-27848.85,2016.04,-9843.26
768,0.768000,867,2482011,-17728.85,2480.04,-9078.26
769,0.769000,868,2483011,-2509.85,2520.04,-13207.26
770,0.770000,869,2484011,13012.15,2083.04,-11557.26
771,0.770999,870,2485010,19398.15,-7.959999999999994,-1132.2600000000002
772,0.771999,871,2486010,17729.15,-1435.96,6731.74
773,0.773000,872,2487011,6445.15,-2700.96,8263.74
774,0.774000,873,2488011,-1910.85,-3893.96,9702.74
775,0.774999,874,2489010,-5749.85,-3028.96,14297.74
776,0.776000,875,2490011,-6297.85,-4075.96,16165.74
777,0.777000,876,2491011,3439.15,-3613.96,9308.74
778,0.778000,877,2492011,9686.15,-749.96,15.739999999999782
779,0.779000,878,2493011,7103.15,-835.96,-2227.26
780,0.780000,879,2494011,803.15,-1546.96,984.7399999999998
781,0.781000,880,2495011,-16038.85,-270.96,1950.7399999999998
782,0.782000,881,2496011,-30787.85,738.04,809.7399999999998
783,0.783000,882,2497011,-30337.85,2524.04,-2377.26
784,0.784000,883,2498011,-32448.85,6197.04,-9118.26
785,0.785000,884,2499011,-17781.85,5809.04,-7925.26
786,0.786000,885,2500011,11269.15,2834.04,1288.7399999999998
787,0.787000,886,2501011,27557.15,-184.95999999999998,9331.74
788,0.787999,887,2502010,32133.15,-4351.96,13441.74
789,0.789000,888,2503011,32133.15,-5087.96,9883.74
790,0.790000,889,2504011,20962.15,-1504.96,608.7399999999998
791,0.791000,890,2505011,3474.15,3716.04,-12608.26
792,0.791999,891,2506010,-17582.85,3740.04,-16975.260000000002
793,0.793000,892,2507011,-26993.85,1239.04,-12029.26
794,0.794000,893,2508011,-26105.85,1864.04,-8041.26
795,0.795000,894,2509011,-16427.85,3018.04,-9816.26
796,0.795999,895,2510010,-2062.85,2945.04,-15789.26
797,0.797000,896,2511011,13804.15,1519.04,-11136.26
798,0.797999,897,2512010,19895.15,-339.96,975.7399999999998
799,0.798999,898,2513010,16009.15,-1578.96,7665.74
800,0.800000,899,2514011,4699.15,-2759.96,8575.74
801,0.801000,900,2515011,-2900.85,-3875.96,10516.74
802,0.801999,901,2516010,-3124.85,-3737.96,14876.74
803,0.803000,902,2517011,-3584.85,-3848.96,15925.74
804,0.804000,903,2518011,2999.15,-2710.96,8555.74
805,0.805000,904,2519011,9217.15,-729.96,-409.2600000000002
806,0.806000,905,2520011,5508.15,-897.96,-2226.26
807,0.807000,906,2521011,-3113.85,-1530.96,1038.7399999999998
808,0.807999,907,2522010,-16681.85,-744.96,2452.74
809,0.809000,908,2523011,-29940.85,1779.04,-901.2600000000002
810,0.810000,909,2524011,-33029.85,5047.04,-7983.26
811,0.811000,910,2525011,-31138.85,5478.04,-7621.26
812,0.812000,911,2526011,-13203.85,2479.04,419.7399999999998
813,0.812999,912,2527010,14668.15,1077.04,4704.74
814,0.814000,913,2528011,30737.15,-192.95999999999998,7340.74
815,0.815000,914,2529011,32133.15,-2702.96,8539.74
816,0.816000,915,2530011,32133.15,-3303.96,6721.74
817,0.817000,916,2531011,16414.15,-1050.96,-1493.2600000000002
818,0.817999,917,2532010,-2190.85,3408.04,-13861.26
819,0.819000,918,2533011,-21258.85,3495.04,-14392.26
820,0.820000,919,2534011,-27292.85,318.04,-7085.26
821,0.821000,920,2535011,-24472.85,1310.04,-6733.26
822,0.822000,921,2536011,-11170.85,4113.04,-14477.26
823,0.823000,922,2537011,2193.15,2853.04,-17378.260000000002
824,0.824000,923,2538011,13366.15,627.04,-6585.26
825,0.825000,924,2539011,19723.15,-443.96,5529.74
826,0.826000,925,2540011,11896.15,-1945.96,8543.74
827,0.826999,926,2541010,5592.15,-2412.96,5190.74
828,0.828000,927,2542011,-1392.85,-2824.96,8238.74
829,0.828999,928,2543010,-6580.85,-3060.96,14496.74
830,0.829999,929,2544010,-2687.85,-3642.96,14324.74
831,0.831000,930,2545011,5143.15,-2889.96,7262.74
832,0.832000,931,2546011,7751.15,-1656.96,1313.7399999999998
833,0.833000,932,2547011,5841.15,-2135.96,1224.7399999999998
834,0.834000,933,2548011,-3984.85,-1520.96,2656.74
835,0.835000,934,2549011,-20861.85,-337.96,2328.74
836,0.836000,935,2550011,-30348.85,3104.04,-5290.26
837,0.837000,936,2551011,-31715.85,6021.04,-10271.26
838,0.838000,937,2552011,-26295.85,5578.04,-5500.26
839,0.839000,938,2553011,-9392.85,3590.04,1111.7399999999998
840,0.840000,939,2554011,14386.15,672.04,5187.74
841,0.840999,940,2555010,31764.15,-2196.96,8212.74
842,0.842000,941,2556011,32133.15,-3603.96,9084.74
843,0.843000,942,2557011,30223.15,-2941.96,4974.74
844,0.844000,943,2558011,11549.15,213.04000000000002,-4222.26
845,0.844999,944,2559010,-2408.85,3213.04,-11902.26
846,0.846000,945,2560011,-21024.85,2483.04,-12750.26
847,0.847000,946,2561011,-27937.85,1163.04,-10338.26
848,0.848000,947,2562011,-19766.85,2532.04,-10225.26
849,0.849000,948,2563011,-13068.85,3746.04,-13745.26
850,0.850000,949,2564011,3555.15,2016.04,-12835.26
851,0.851000,950,2565011,15478.15,61.040000000000006,-3879.26
852,0.852000,951,2566011,19290.15,-1200.96,5791.74
853,0.852999,952,2567010,14817.15,-1841.96,7629.74
854,0.853999,953,2568010,3343.15,-2520.96,6502.74
855,0.855000,954,2569011,-2765.85,-2714.96,10287.74
856,0.856000,955,2570011,-6937.85,-2299.96,13263.74
857,0.857000,956,2571011,-2632.85,-3935.96,12087.74
858,0.857999,957,2572010,5659.15,-2234.96,4747.74
859,0.858999,958,2573010,4344.15,-438.96,-861.2600000000002
860,0.860000,959,2574011,3321.15,-2389.96,814.7399999999998
861,0.861000,960,2575011,-4708.85,-2275.96,3568.74
862,0.862000,961,2576011,-20407.85,-449.96,3142.74
863,0.863000,962,2577011,-28580.85,2039.04,-1770.2600000000002
864,0.864000,963,2578011,-29698.85,5367.04,-8377.26
865,0.865000,964,2579011,-26567.85,6990.04,-9067.26
866,0.866000,965,2580011,-5490.85,3881.04,-834.2600000000002
867,0.867000,966,2581011,17558.15,233.04000000000002,6601.74
868,0.867999,967,2582010,30801.15,-2358.96,10494.74
869,0.869000,968,2583011,32133.15,-4545.96,10388.74
870,0.870000,969,2584011,27853.15,-3187.96,4967.74
871,0.870999,970,2585010,12236.15,1722.04,-7293.26
872,0.871999,971,2586010,-6519.85,4126.04,-14550.26
873,0.873000,972,2587011,-21762.85,1977.04,-12252.26
874,0.874000,973,2588011,-25781.85,932.04,-9166.26
875,0.875000,974,2589011,-21653.85,2517.04,-9559.26
876,0.876000,975,2590011,-11337.85,3696.04,-13891.26
877,0.876999,976,2591010,5794.15,1480.04,-12669.26
878,0.878000,977,2592011,16645.15,-31.959999999999994,-4319.26
879,0.879000,978,2593011,18738.15,-512.96,5710.74
880,0.879999,979,2594010,14292.15,-2099.96,7642.74
881,0.881000,980,2595011,1336.15,-3381.96,8704.74
882,0.882000,981,2596011,-4582.85,-3189.96,12057.74
883,0.883000,982,2597011,-4889.85,-2972.96,12266.74
884,0.884000,983,2598011,-853.85,-3341.96,10694.74
885,0.885000,984,2599011,4606.15,-930.96,4458.74
886,0.885999,985,2600010,2759.15,-782.96,-26.26000000000022
887,0.886999,986,2601010,4765.15,-3356.96,1592.7399999999998
888,0.888000,987,2602011,-4844.85,-2107.96,3182.74
889,0.888999,988,2603010,-23379.85,1098.04,923.7399999999998
890,0.889999,989,2604010,-30860.85,3841.04,-5499.26
891,0.891000,990,2605011,-31891.85,4917.04,-7024.26
892,0.891999,991,2606010,-20165.85,3035.04,-1231.2600000000002
893,0.893000,992,2607011,-1843.85,2918.04,1353.7399999999998
894,0.894000,993,2608011,18327.15,2388.04,3284.74
895,0.895000,994,2609011,32133.15,-1732.96,7014.74
896,0.896000,995,2610011,32133.15,-3475.96,8207.74
897,0.897000,996,2611011,24908.15,-2231.96,4964.74
898,0.898000,997,2612011,6216.15,995.04,-6334.26
899,0.899000,998,2613011,-9761.85,3775.04,-16136.26
900,0.899999,999,2614010,-23073.85,2168.04,-12002.26
901,0.901000,1000,2615011,-25358.85,181.04000000000002,-6285.26
902,0.902000,1001,2616011,-17946.85,2085.04,-10310.26
903,0.903000,1002,2617011,-7998.85,3933.04,-16409.260000000002
904,0.904000,1003,2618011,8941.15,1641.04,-11802.26
905,0.905000,1004,2619011,17887.15,-504.96,-803.2600000000002
906,0.906000,1005,2620011,17659.15,-1139.96,7217.74
907,0.906999,1006,2621010,9172.15,-1920.96,8474.74
908,0.908000,1007,2622011,1448.15,-3028.96,7287.74
909,0.909000,1008,2623011,-2404.85,-3388.96,10659.74
910,0.910000,1009,2624011,-6157.85,-2428.96,12919.74
911,0.911000,1010,2625011,-1079.85,-2491.96,9518.74
912,0.912000,1011,2626011,6072.15,-1617.96,3204.74
913,0.912999,1012,2627010,3608.15,-1182.96,-386.2600000000002
914,0.914000,1013,2628011,1770.15,-2344.96,1016.7399999999998
915,0.915000,1014,2629011,-9846.85,-1605.96,3990.74
916,0.916000,1015,2630011,-24655.85,-49.959999999999994,2457.74
917,0.917000,1016,2631011,-29097.85,2429.04,-3365.26
918,0.917999,1017,2632010,-28645.85,5504.04,-6985.26
919,0.919000,1018,2633011,-18414.85,6598.04,-7884.26
920,0.919999,1019,2634010,1356.15,4577.04,-1802.2600000000002
921,0.920999,1020,2635010,21520.15,-443.96,7633.74
922,0.922000,1021,2636011,32133.15,-4220.96,11772.74
923,0.923000,1022,2637011,32133.15,-4117.96,10995.74
924,0.924000,1023,2638011,23638.15,-2358.96,3420.74
925,0.925000,1024,2639011,7714.15,1899.04,-10049.26
926,0.926000,1025,2640011,-10626.85,4584.04,-17798.260000000002
927,0.927000,1026,2641011,-23596.85,2235.04,-12492.26
928,0.927999,1027,2642010,-26786.85,1060.04,-6072.26
929,0.928999,1028,2643010,-17588.85,2296.04,-8881.26
930,0.930000,1029,2644011,-4371.85,3288.04,-16007.26
931,0.931000,1030,2645011,8899.15,2084.04,-13703.26
932,0.932000,1031,2646011,17919.15,-857.96,-969.2600000000002
933,0.933000,1032,2647011,16315.15,-1744.96,7765.74
934,0.933999,1033,2648010,7956.15,-2137.96,8967.74
935,0.935000,1034,2649011,1681.15,-3931.96,9780.74
936,0.935999,1035,2650010,-4631.85,-3120.96,13093.74
937,0.937000,1036,2651011,-4713.85,-2806.96,14294.74
938,0.938000,1037,2652011,2266.15,-2891.96,8543.74
939,0.939000,1038,2653011,5626.15,-648.96,906.7399999999998
940,0.940000,1039,2654011,5170.15,-950.96,-435.2600000000002
941,0.941000,1040,2655011,920.15,-2568.96,2316.74
942,0.942000,1041,2656011,-12938.85,-1049.96,2619.74
943,0.943000,1042,2657011,-27000.85,1089.04,-452.2600000000002
944,0.944000,1043,2658011,-29466.85,3878.04,-7224.26
945,0.945000,1044,2659011,-31015.85,5601.04,-7385.26
946,0.946000,1045,2660011,-17797.85,2841.04,-352.2600000000002
947,0.947000,1046,2661011,7102.15,2042.04,3182.74
948,0.947999,1047,2662010,24192.15,941.04,6039.74
949,0.948999,1048,2663010,32133.15,-2597.96,7842.74
950,0.950000,1049,2664011,32133.15,-3250.96,7148.74
951,0.951000,1050,2665011,19516.15,-856.96,1283.7399999999998
952,0.951999,1051,2666010,4514.15,2502.04,-11601.26
953,0.953000,1052,2667011,-14978.85,3591.04,-14805.26
954,0.954000,1053,2668011,-26189.85,944.04,-7926.26
955,0.955000,1054,2669011,-24866.85,822.04,-7593.26
956,0.956000,1055,2670011,-14946.85,3057.04,-12608.26
957,0.956999,1056,2671010,-2212.85,2639.04,-14505.26
958,0.958000,1057,2672011,11499.15,1310.04,-8337.26
959,0.959000,1058,2673011,17761.15,-451.96,882.7399999999998
960,0.959999,1059,2674010,13639.15,-1668.96,7226.74
961,0.961000,1060,2675011,9681.15,-2319.96,7252.74
962,0.962000,1061,2676011,593.15,-2595.96,7678.74
963,0.963000,1062,2677011,-7069.85,-2334.96,11941.74
964,0.963999,1063,2678010,-4948.85,-3487.96,13344.74
965,0.965000,1064,2679011,3612.15,-3277.96,9081.74
966,0.965999,1065,2680010,7347.15,-1108.96,1236.7399999999998
967,0.966999,1066,2681010,3438.15,-1351.96,-1371.2600000000002
968,0.967999,1067,2682010,-228.85000000000002,-2616.96,3219.74
969,0.969000,1068,2683011,-14298.85,-1120.96,4483.74
970,0.970000,1069,2684011,-27981.85,1500.04,-636.2600000000002
971,0.971000,1070,2685011,-30384.85,3956.04,-7306.26
972,0.972000,1071,2686011,-28058.85,5622.04,-8365.26
973,0.973000,1072,2687011,-14996.85,4780.04,-2565.26
974,0.974000,1073,2688011,8039.15,2562.04,3659.74
975,0.975000,1074,2689011,25627.15,-1190.96,8850.74
976,0.976000,1075,2690011,32133.15,-3532.96,10089.74
977,0.977000,1076,2691011,32133.15,-3223.96,7016.74
978,0.978000,1077,2692011,19193.15,-767.96,-2059.26
979,0.979000,1078,2693011,3872.15,2972.04,-11693.26
980,0.980000,1079,2694011,-15969.85,3112.04,-13577.26
981,0.981000,1080,2695011,-25747.85,1194.04,-9449.26
982,0.981999,1081,2696010,-24732.85,1604.04,-8122.26
983,0.983000,1082,2697011,-15679.85,3868.04,-13733.26
984,0.984000,1083,2698011,-1842.85,2261.04,-14355.26
985,0.985000,1084,2699011,13673.15,-276.96,-6833.26
986,0.986000,1085,2700011,19082.15,11.040000000000006,1302.7399999999998
987,0.987000,1086,2701011,14616.15,-974.96,6530.74
988,0.988000,1087,2702011,6875.15,-3337.96,9886.74
989,0.988999,1088,2703010,-340.85,-3546.96,10483.74
990,0.990000,1089,2704011,-5399.85,-2493.96,12888.74
991,0.991000,1090,2705011,-5496.85,-3385.96,13714.74
992,0.992000,1091,2706011,4905.15,-2319.96,6280.74
993,0.993000,1092,2707011,6478.15,-217.95999999999998,-1571.2600000000002
994,0.994000,1093,2708011,3352.15,-1639.96,-300.2600000000002
995,0.995000,1094,2709011,-2790.85,-2582.96,4201.74
996,0.996000,1095,2710011,-16371.85,-925.96,3374.74
997,0.997000,1096,2711011,-27223.85,1111.04,-867.2600000000002
998,0.997999,1097,2712010,-30919.85,4167.04,-5764.26
999,0.999000,1098,2713011,-28612.85,6561.04,-8611.26
1000,1.000000,1099,2714011,-12517.85,5321.04,-6416.26
1001,1.001000,1100,2715011,11714.15,2303.04,2508.74
1002,1.002000,1101,2716011,27311.15,-1694.96,10600.74
1003,1.003000,1102,2717011,32133.15,-4516.96,12672.74
1004,1.004000,1103,2718011,32133.15,-4073.96,7968.74
1005,1.005000,1104,2719011,19638.15,-1643.96,-1649.2600000000002
1006,1.006000,1105,2720011,856.15,3439.04,-12679.26
1007,1.007000,1106,2721011,-19139.85,4590.04,-16494.260000000002
1008,1.008000,1107,2722011,-27645.85,1418.04,-11276.26
1009,1.009000,1108,2723011,-24979.85,1652.04,-7533.26
1010,1.010000,1109,2724011,-15026.85,2648.04,-9826.26
1011,1.010999,1110,2725010,1063.15,2791.04,-13980.26
1012,1.012000,1111,2726011,13095.15,2114.04,-10955.26
1013,1.013000,1112,2727011,20451.15,-431.96,493.7399999999998
1014,1.014000,1113,2728011,15637.15,-1642.96,8346.74
1015,1.015000,1114,2729011,4702.15,-4150.96,10601.74
1016,1.016000,1115,2730011,-802.85,-5308.96,15054.74
1017,1.016999,1116,2731010,-5975.85,-2746.96,14479.74
1018,1.017999,1117,2732010,-3514.85,-2599.96,10312.74
1019,1.019000,1118,2733011,5396.15,-1952.96,4947.74
1020,1.020000,1119,2734011,7161.15,-154.95999999999998,-1406.2600000000002
1021,1.021000,1120,2735011,2818.15,-996.96,887.7399999999998
1022,1.022000,1121,2736011,-3207.85,-2232.96,3150.74
1023,1.023000,1122,2737011,-19872.85,-617.96,570.7399999999998
1024,1.024000,1123,2738011,-31100.85,2393.04,-2632.26
1025,1.025000,1124,2739011,-32293.85,4746.04,-7028.26
1026,1.026000,1125,2740011,-29836.85,6026.04,-7128.26
1027,1.026999,1126,2741010,-7013.85,3377.04,-2.2600000000002183
1028,1.027999,1127,2742010,18073.15,348.04,5256.74
1029,1.029000,1128,2743011,32021.15,-1592.96,8824.74
1030,1.030000,1129,2744011,32133.15,-4277.96,11270.74
1031,1.031000,1130,2745011,29669.15,-2704.96,5473.74
1032,1.031999,1131,2746010,12605.15,1017.04,-6355.26
1033,1.033000,1132,2747011,-4289.85,3707.04,-15436.26
1034,1.033999,1133,2748010,-24537.85,2919.04,-14082.26
1035,1.035000,1134,2749011,-27060.85,13.040000000000006,-6900.26
1036,1.036000,1135,2750011,-21928.85,1461.04,-6535.26
1037,1.036999,1136,2751010,-13324.85,3980.04,-13178.26
1038,1.038000,1137,2752011,5841.15,2245.04,-14196.26
1039,1.039000,1138,2753011,17393.15,189.04000000000002,-6301.26
1040,1.040000,1139,2754011,21498.15,205.04000000000002,3329.74
1041,1.041000,1140,2755011,13533.15,-1498.96,7750.74
1042,1.042000,1141,2756011,1085.15,-3370.96,9719.74
1043,1.042999,1142,2757010,-3226.85,-4000.96,12436.74
1044,1.044000,1143,2758011,-4879.85,-3922.96,13942.74
1045,1.045000,1144,2759011,-4307.85,-2143.96,10812.74
1046,1.046000,1145,2760011,4722.15,-804.96,3086.74
1047,1.047000,1146,2761011,7968.15,-1327.96,-537.2600000000002
1048,1.048000,1147,2762011,4556.15,-2483.96,952.7399999999998
1049,1.049000,1148,2763011,-4568.85,-1786.96,3009.74
1050,1.050000,1149,2764011,-23599.85,232.04000000000002,1917.7399999999998
1051,1.051000,1150,2765011,-31068.85,2012.04,-1947.2600000000002
1052,1.052000,1151,2766011,-31188.85,4460.04,-6002.26
1053,1.053000,1152,2767011,-26067.85,5912.04,-8077.26
1054,1.054000,1153,2768011,-4659.85,4284.04,-3244.26
1055,1.055000,1154,2769011,18577.15,1027.04,5792.74
1056,1.056000,1155,2770011,32133.15,-2511.96,11843.74
1057,1.056999,1156,2771010,32133.15,-4866.96,12747.74
1058,1.058000,1157,2772011,28742.15,-3255.96,6124.74
1059,1.059000,1158,2773011,11002.15,1495.04,-7051.26
1060,1.060000,1159,2774011,-7169.85,3850.04,-15508.26
1061,1.060999,1160,2775010,-23030.85,3041.04,-15634.26
1062,1.061999,1161,2776010,-29428.85,2063.04,-10449.26
1063,1.063000,1162,2777011,-22089.85,1864.04,-7241.26
1064,1.063999,1163,2778010,-10281.85,2660.04,-10765.26
1065,1.065000,1164,2779011,7911.15,1668.04,-12975.26
1066,1.066000,1165,2780011,18084.15,998.04,-8399.26
1067,1.067000,1166,2781011,19051.15,474.04,1493.7399999999998
1068,1.068000,1167,2782011,12626.15,-2878.96,9269.74
1069,1.069000,1168,2783011,1306.15,-4738.96,12696.74
1070,1.070000,1169,2784011,-5940.85,-3449.96,14144.74
1071,1.071000,1170,2785011,-6260.85,-3687.96,14338.74
1072,1.071999,1171,2786010,460.15,-2941.96,9773.74
1073,1.073000,1172,2787011,6581.15,-225.95999999999998,1757.7399999999998
1074,1.074000,1173,2788011,6747.15,-614.96,-762.2600000000002
1075,1.074999,1174,2789010,3761.15,-2326.96,1488.7399999999998
1076,1.076000,1175,2790011,-5556.85,-2282.96,2991.74
1077,1.077000,1176,2791011,-23990.85,231.04000000000002,1569.7399999999998
1078,1.078000,1177,2792011,-33148.85,3126.04,-2649.26
1079,1.079000,1178,2793011,-32572.85,5117.04,-7065.26
1080,1.079999,1179,2794010,-22841.85,5453.04,-7523.26
1081,1.080999,1180,2795010,-287.85,4255.04,-2222.26
1082,1.082000,1181,2796011,19230.15,878.04,6061.74
1083,1.083000,1182,2797011,32133.15,-3422.96,11974.74
1084,1.084000,1183,2798011,32133.15,-4956.96,12217.74
1085,1.085000,1184,2799011,25842.15,-3057.96,5203.74
1086,1.086000,1185,2800011,8552.15,1809.04,-8498.26
1087,1.086999,1186,2801010,-9226.85,4354.04,-16307.26
1088,1.087999,1187,2802010,-24138.85,3307.04,-14834.26
1089,1.089000,1188,2803011,-28104.85,1677.04,-9810.26
1090,1.090000,1189,2804011,-20378.85,1691.04,-7350.26
1091,1.091000,1190,2805011,-6603.85,2746.04,-11607.26
1092,1.092000,1191,2806011,9135.15,1982.04,-12979.26
1093,1.093000,1192,2807011,18528.15,546.04,-5258.26
1094,1.094000,1193,2808011,16997.15,-495.96,4048.74
1095,1.095000,1194,2809011,10902.15,-3334.96,9998.74
1096,1.096000,1195,2810011,1366.15,-4187.96,11234.74
1097,1.097000,1196,2811011,-8794.85,-2395.96,11692.74
1098,1.097999,1197,2812010,-3564.85,-3161.96,13278.74
1099,1.098999,1198,2813010,1673.15,-2982.96,10295.74
1100,1.100000,1199,2814011,6116.15,-809.96,2138.74
1101,1.101000,1200,2815011,7597.15,-1508.96,-961.2600000000002
1102,1.102000,1201,2816011,2444.15,-2806.96,2051.74
1103,1.103000,1202,2817011,-7277.85,-1764.96,3790.74
1104,1.104000,1203,2818011,-25023.85,847.04,979.7399999999998
1105,1.104999,1204,2819010,-32353.85,3692.04,-4317.26
1106,1.106000,1205,2820011,-33220.85,5364.04,-8580.26
1107,1.107000,1206,2821011,-21391.85,5680.04,-7945.26
1108,1.108000,1207,2822011,1796.15,3797.04,1017.7399999999998
1109,1.108999,1208,2823010,20528.15,-395.96,8375.74
1110,1.110000,1209,2824011,32133.15,-3606.96,11377.74
1111,1.111000,1210,2825011,32133.15,-4025.96,10086.74
1112,1.112000,1211,2826011,26234.15,-2312.96,3466.74
1113,1.113000,1212,2827011,7173.15,2530.04,-9531.26
1114,1.114000,1213,2828011,-11047.85,4374.04,-17300.260000000002
1115,1.115000,1214,2829011,-23786.85,1989.04,-12529.26
1116,1.116000,1215,2830011,-27838.85,529.04,-6456.26
1117,1.117000,1216,2831011,-19785.85,1459.04,-8274.26
1118,1.118000,1217,2832011,-6660.85,3668.04,-14879.26
1119,1.119000,1218,2833011,8512.15,1905.04,-13507.26
1120,1.120000,1219,2834011,19972.15,-308.96,-3467.26
1121,1.121000,1220,2835011,16875.15,-363.96,6181.74
1122,1.122000,1221,2836011,9437.15,-2756.96,9144.74
1123,1.123000,1222,2837011,2029.15,-3681.96,11297.74
1124,1.124000,1223,2838011,-5185.85,-3038.96,13237.74
1125,1.125000,1224,2839011,-4572.85,-3773.96,13236.74
1126,1.126000,1225,2840011,970.15,-2451.96,9595.74
1127,1.127000,1226,2841011,6153.15,-379.96,957.7399999999998
1128,1.128000,1227,2842011,4510.15,-1079.96,-1295.2600000000002
1129,1.129000,1228,2843011,2058.15,-2598.96,2004.7399999999998
1130,1.130000,1229,2844011,-9561.85,-1596.96,2548.74
1131,1.131000,1230,2845011,-27500.85,775.04,559.7399999999998
1132,1.131999,1231,2846010,-31690.85,2968.04,-3471.26
1133,1.133000,1232,2847011,-31477.85,5516.04,-7944.26
1134,1.134000,1233,2848011,-19419.85,4803.04,-6080.26
1135,1.135000,1234,2849011,5289.15,2981.04,610.7399999999998
1136,1.136000,1235,2850011,22805.15,610.04,7232.74
1137,1.137000,1236,2851011,32133.15,-3145.96,12194.74
1138,1.138000,1237,2852011,32133.15,-4386.96,10345.74
1139,1.139000,1238,2853011,23755.15,-2718.96,2681.74
1140,1.140000,1239,2854011,5664.15,2470.04,-10325.26
1141,1.140999,1240,2855010,-12391.85,5004.04,-17828.260000000002
1142,1.142000,1241,2856011,-27470.85,2373.04,-13346.26
1143,1.143000,1242,2857011,-27655.85,887.04,-6747.26
1144,1.144000,1243,2858011,-17882.85,2869.04,-9880.26
1145,1.145000,1244,2859011,-5777.85,3224.04,-14760.26
1146,1.146000,1245,2860011,11824.15,957.04,-9855.26
1147,1.147000,1246,2861011,21056.15,-436.96,-2288.26
1148,1.148000,1247,2862011,17845.15,-1191.96,4880.74
1149,1.148999,1248,2863010,8838.15,-2854.96,9407.74
1150,1.149999,1249,2864010,-119.85000000000002,-3457.96,10751.74
1151,1.150999,1250,2865010,-7101.85,-2763.96,13684.74
1152,1.151999,1251,2866010,-5735.85,-3551.96,13915.74
1153,1.153000,1252,2867011,1860.15,-2731.96,7702.74
1154,1.154000,1253,2868011,6425.15,-665.96,878.7399999999998
1155,1.155000,1254,2869011,5863.15,-1521.96,-152.26000000000022
1156,1.156000,1255,2870011,1982.15,-2646.96,4012.74
1157,1.156999,1256,2871010,-12864.85,-1326.96,4284.74
1158,1.158000,1257,2872011,-27910.85,1211.04,-597.2600000000002
1159,1.159000,1258,2873011,-31800.85,4269.04,-6872.26
1160,1.159999,1259,2874010,-30129.85,6556.04,-9531.26
1161,1.161000,1260,2875011,-15878.85,5956.04,-4919.26
1162,1.162000,1261,2876011,5142.15,1976.04,2777.74
1163,1.163000,1262,2877011,25277.15,-1945.96,8888.74
1164,1.164000,1263,2878011,32133.15,-3507.96,11317.74
1165,1.165000,1264,2879011,32133.15,-3914.96,8186.74
1166,1.166000,1265,2880011,22017.15,-1311.96,-253.26000000000022
1167,1.167000,1266,2881011,2656.15,2928.04,-11126.26
1168,1.168000,1267,2882011,-14397.85,3491.04,-14962.26
1169,1.169000,1268,2883011,-27026.85,1808.04,-11632.26
1170,1.170000,1269,2884011,-27287.85,1761.04,-8404.26
1171,1.170999,1270,2885010,-17169.85,3079.04,-11356.26
1172,1.172000,1271,2886011,-1861.85,2487.04,-14687.26
1173,1.173000,1272,2887011,14148.15,1139.04,-8700.26
1174,1.174000,1273,2888011,20553.15,-76.96,424.7399999999998
1175,1.175000,1274,2889011,16788.15,-1364.96,6487.74
1176,1.176000,1275,2890011,6879.15,-3339.96,10504.74
1177,1.177000,1276,2891011,-297.85,-4396.96,11573.74
1178,1.178000,1277,2892011,-7467.85,-2669.96,13268.74
1179,1.179000,1278,2893011,-7324.85,-3009.96,13987.74
1180,1.180000,1279,2894011,4259.15,-2381.96,7067.74
1181,1.181000,1280,2895011,8817.15,-665.96,-168.26000000000022
1182,1.182000,1281,2896011,7696.15,-1735.96,-486.2600000000002
1183,1.182999,1282,2897010,-1569.85,-1728.96,1800.7399999999998
1184,1.184000,1283,2898011,-18152.85,-744.96,2605.74
1185,1.184999,1284,2899010,-29274.85,573.04,498.7399999999998
1186,1.186000,1285,2900011,-33319.85,3568.04,-4214.26
1187,1.187000,1286,2901011,-30175.85,6171.04,-8501.26
1188,1.188000,1287,2902011,-12063.85,4490.04,-6403.26
1189,1.189000,1288,2903011,11771.15,2999.04,1024.7399999999998
1190,1.189999,1289,2904010,27203.15,324.04,8792.74
1191,1.191000,1290,2905011,32133.15,-4672.96,13224.74
1192,1.192000,1291,2906011,32133.15,-4862.96,8967.74
1193,1.193000,1292,2907011,20385.15,-1617.96,-636.2600000000002
1194,1.194000,1293,2908011,-311.85,3343.04,-12125.26
1195,1.195000,1294,2909011,-18209.85,4076.04,-16250.26
1196,1.196000,1295,2910011,-28789.85,1903.04,-13264.26
1197,1.197000,1296,2911011,-26700.85,2376.04,-9488.26
1198,1.198000,1297,2912011,-14600.85,3029.04,-9708.26
1199,1.198999,1298,2913010,-1150.85,2317.04,-13480.26
1200,1.200000,1299,2914011,15815.15,693.04,-9002.26
1201,1.201000,1300,2915011,21968.15,-290.96,545.7399999999998
1202,1.202000,1301,2916011,17654.15,-1169.96,6968.74
1203,1.203000,1302,2917011,3755.15,-3160.96,9814.74
1204,1.204000,1303,2918011,-4167.85,-4643.96,13367.74
1205,1.205000,1304,2919011,-5195.85,-3854.96,15459.74
1206,1.205999,1305,2920010,-4652.85,-3143.96,12753.74
1207,1.207000,1306,2921011,4664.15,-1780.96,5449.74
1208,1.208000,1307,2922011,7155.15,-457.96,-806.2600000000002
1209,1.209000,1308,2923011,5335.15,-1473.96,481.7399999999998
1210,1.209999,1309,2924010,-1925.85,-1780.96,2291.74
1211,1.211000,1310,2925011,-18074.85,4.040000000000006,794.7399999999998
1212,1.212000,1311,2926011,-31093.85,2195.04,-1419.2600000000002
1213,1.213000,1312,2927011,-33401.85,4370.04,-6439.26
1214,1.214000,1313,2928011,-30896.85,6108.04,-8453.26
1215,1.214999,1314,2929010,-8164.85,4158.04,-1886.2600000000002
1216,1.215999,1315,2930010,17128.15,696.04,5216.74
1217,1.217000,1316,2931011,32133.15,-1797.96,9522.74
1218,1.218000,1317,2932011,32133.15,-4007.96,10596.74
1219,1.219000,1318,2933011,32133.15,-4020.96,5572.74
1220,1.220000,1319,2934011,14459.15,247.04000000000002,-3535.26
1221,1.221000,1320,2935011,-5597.85,3913.04,-12755.26
1222,1.221999,1321,2936010,-22179.85,3102.04,-15876.26
1223,1.222999,1322,2937010,-28834.85,1619.04,-11232.26
1224,1.224000,1323,2938011,-24455.85,1767.04,-7706.26
1225,1.225000,1324,2939011,-12458.85,3469.04,-10444.26
1226,1.226000,1325,2940011,4096.15,2189.04,-13741.26
1227,1.227000,1326,2941011,17902.15,-67.96,-7664.26
1228,1.227999,1327,2942010,21319.15,-671.96,4017.74
1229,1.229000,1328,2943011,14530.15,-1673.96,8428.74
1230,1.230000,1329,2944011,1992.15,-3295.96,9369.74
1231,1.231000,1330,2945011,-4100.85,-3370.96,11837.74
1232,1.232000,1331,2946011,-6722.85,-3129.96,13762.74
1233,1.233000,1332,2947011,-2596.85,-3433.96,12561.74
1234,1.234000,1333,2948011,6931.15,-1127.96,3864.74
1235,1.235000,1334,2949011,4584.15,-647.96,-1236.2600000000002
1236,1.236000,1335,2950011,4504.15,-2319.96,723.7399999999998
1237,1.237000,1336,2951011,-3291.85,-2063.96,2677.74
1238,1.238000,1337,2952011,-23347.85,46.040000000000006,2102.74
1239,1.239000,1338,2953011,-31184.85,2619.04,-3022.26
1240,1.240000,1339,2954011,-32243.85,4959.04,-7175.26
1241,1.240999,1340,2955010,-26537.85,6273.04,-7373.26
1242,1.242000,1341,2956011,-4025.85,3999.04,-206.26000000000022
1243,1.243000,1342,2957011,19343.15,-189.95999999999998,6881.74
1244,1.244000,1343,2958011,32133.15,-2440.96,8964.74
1245,1.245000,1344,2959011,32133.15,-3641.96,9588.74
1246,1.246000,1345,2960011,27287.15,-2994.96,5501.74
1247,1.247000,1346,2961011,10196.15,1129.04,-5955.26
1248,1.247999,1347,2962010,-6591.85,3647.04,-14915.26
1249,1.249000,1348,2963011,-24528.85,2874.04,-14686.26
1250,1.249999,1349,2964010,-28467.85,1643.04,-10193.26
1251,1.251000,1350,2965011,-21363.85,1703.04,-8005.26
1252,1.252000,1351,2966011,-11401.85,2810.04,-11931.26
1253,1.253000,1352,2967011,8137.15,1446.04,-12058.26
1254,1.253999,1353,2968010,19107.15,-68.96,-5315.26
1255,1.255000,1354,2969011,20846.15,-185.95999999999998,3668.74
1256,1.255999,1355,2970010,13519.15,-2056.96,8288.74
1257,1.257000,1356,2971011,-313.85,-3754.96,9991.74
1258,1.258000,1357,2972011,-5717.85,-3343.96,13086.74
1259,1.259000,1358,2973011,-6078.85,-3214.96,13696.74
1260,1.260000,1359,2974011,-2174.85,-2596.96,10212.74
1261,1.261000,1360,2975011,5820.15,-710.96,1765.7399999999998
1262,1.262000,1361,2976011,5077.15,-1314.96,-720.2600000000002
1263,1.263000,1362,2977011,4247.15,-2966.96,2843.74
1264,1.264000,1363,2978011,-6111.85,-1643.96,2682.74
1265,1.265000,1364,2979011,-26271.85,739.04,906.7399999999998
1266,1.266000,1365,2980011,-31011.85,3275.04,-5342.26
1267,1.267000,1366,2981011,-31018.85,5606.04,-7658.26
1268,1.268000,1367,2982011,-21860.85,4555.04,-2578.26
1269,1.269000,1368,2983011,1401.15,3095.04,1520.7399999999998
1270,1.270000,1369,2984011,21461.15,934.04,5442.74
1271,1.271000,1370,2985011,32133.15,-2425.96,8844.74
1272,1.271999,1371,2986010,32133.15,-3992.96,9442.74
1273,1.272999,1372,2987010,22475.15,-2520.96,4384.74
1274,1.273999,1373,2988010,6742.15,2049.04,-8365.26
1275,1.275000,1374,2989011,-9765.85,3498.04,-15658.26
1276,1.276000,1375,2990011,-25792.85,2023.04,-13881.26
1277,1.277000,1376,2991011,-26297.85,1898.04,-10034.26
1278,1.277999,1377,2992010,-20381.85,2585.04,-9368.26
1279,1.279000,1378,2993011,-8081.85,2115.04,-12407.26
1280,1.280000,1379,2994011,11982.15,996.04,-10942.26
1281,1.281000,1380,2995011,19524.15,556.04,-4149.26
1282,1.281999,1381,2996010,19398.15,-415.96,4430.74
1283,1.282999,1382,2997010,9979.15,-2730.96,8859.74
1284,1.283999,1383,2998010,-770.85,-4140.96,11187.74
1285,1.284999,1384,2999010,-4998.85,-3158.96,14132.74
1286,1.286000,1385,3000011,-7430.85,-3047.96,14665.74
1287,1.287000,1386,3001011,342.15,-2714.96,9499.74
1288,1.288000,1387,3002011,7920.15,-854.96,409.7399999999998
1289,1.288999,1388,3003010,5855.15,-892.96,-1983.2600000000002
1290,1.289999,1389,3004010,2400.15,-2052.96,1777.7399999999998
1291,1.291000,1390,3005011,-13072.85,-1492.96,3118.74
1292,1.292000,1391,3006011,-30070.85,518.04,1631.7399999999998
1293,1.293000,1392,3007011,-29635.85,2411.04,-2591.26
1294,1.294000,1393,3008011,-28929.85,6026.04,-8472.26
1295,1.295000,1394,3009011,-17000.85,5730.04,-6633.26
1296,1.295999,1395,3010010,6123.15,3019.04,823.7399999999998
1297,1.296999,1396,3011010,23728.15,24.040000000000006,7157.74
1298,1.298000,1397,3012011,32133.15,-4185.96,12161.74
1299,1.298999,1398,3013010,32133.15,-4117.96,9529.74
1300,1.300000,1399,3014011,21492.15,-914.96,-1020.2600000000002
1301,1.301000,1400,3015011,6006.15,3482.04,-11569.26
1302,1.302000,1401,3016011,-15841.85,3454.04,-14767.26
1303,1.303000,1402,3017011,-25999.85,631.04,-11592.26
1304,1.304000,1403,3018011,-26655.85,1591.04,-8424.26
1305,1.304999,1404,3019010,-19087.85,3329.04,-10120.26
1306,1.306000,1405,3020011,-3188.85,2631.04,-13538.26
1307,1.307000,1406,3021011,13264.15,1225.04,-10754.26
1308,1.308000,1407,3022011,21798.15,-285.96,-385.2600000000002
1309,1.309000,1408,3023011,18107.15,-1376.96,7546.74
1310,1.310000,1409,3024011,7319.15,-2618.96,8140.74
1311,1.310999,1410,3025010,-3377.85,-3545.96,10163.74
1312,1.312000,1411,3026011,-5804.85,-3271.96,14173.74
1313,1.313000,1412,3027011,-3920.85,-3970.96,14499.74
1314,1.314000,1413,3028011,448.15,-2054.96,7114.74
1315,1.315000,1414,3029011,6055.15,62.040000000000006,-308.2600000000002
1316,1.315999,1415,3030010,7541.15,-1974.96,-447.2600000000002
1317,1.316999,1416,3031010,1089.15,-2068.96,1672.7399999999998
1318,1.317999,1417,3032010,-17055.85,-509.96,2878.74
1319,1.319000,1418,3033011,-29370.85,808.04,1010.7399999999998
1320,1.320000,1419,3034011,-31079.85,3426.04,-5401.26
1321,1.320999,1420,3035010,-30447.85,5747.04,-7843.26
1322,1.322000,1421,3036011,-12279.85,3986.04,-2225.26
1323,1.323000,1422,3037011,11334.15,2161.04,2745.74
1324,1.323999,1423,3038010,27067.15,-83.96,7135.74
1325,1.325000,1424,3039011,32133.15,-3748.96,9849.74
1326,1.326000,1425,3040011,32133.15,-3422.96,6743.74
1327,1.327000,1426,3041011,19568.15,-603.96,-1808.2600000000002
1328,1.328000,1427,3042011,-849.85,3416.04,-11403.26
1329,1.328999,1428,3043010,-20072.85,3311.04,-14702.26
1330,1.330000,1429,3044011,-27046.85,1100.04,-11702.26
1331,1.331000,1430,3045011,-25058.85,1682.04,-7922.26
1332,1.332000,1431,3046011,-14721.85,2769.04,-10211.26
1333,1.333000,1432,3047011,1104.15,2569.04,-13724.26
1334,1.334000,1433,3048011,15424.15,1131.04,-8998.26
1335,1.335000,1434,3049011,22596.15,-412.96,1333.7399999999998
1336,1.336000,1435,3050011,16094.15,-1625.96,7545.74
1337,1.337000,1436,3051011,4437.15,-2929.96,9412.74
1338,1.338000,1437,3052011,-4086.85,-3721.96,11421.74
1339,1.338999,1438,3053010,-8413.85,-3348.96,13840.74
1340,1.340000,1439,3054011,-3160.85,-3701.96,13520.74
1341,1.340999,1440,3055010,3973.15,-1603.96,4578.74
1342,1.342000,1441,3056011,6543.15,0.04000000000000625,-2032.2600000000002
1343,1.343000,1442,3057011,5299.15,-2127.96,809.7399999999998
1344,1.344000,1443,3058011,-1753.85,-2069.96,3445.74
1345,1.344999,1444,3059010,-18923.85,-248.95999999999998,2455.74
1346,1.345999,1445,3060010,-30566.85,1472.04,-975.2600000000002
1347,1.346999,1446,3061010,-31701.85,4103.04,-5969.26
1348,1.348000,1447,3062011,-26751.85,6092.04,-8406.26
1349,1.349000,1448,3063011,-8127.85,5126.04,-2764.26
1350,1.349999,1449,3064010,13550.15,1297.04,4566.74
1351,1.351000,1450,3065011,29897.15,-2431.96,9366.74
1352,1.352000,1451,3066011,32133.15,-4413.96,11905.74
1353,1.353000,1452,3067011,31194.15,-3246.96,6454.74
1354,1.354000,1453,3068011,15334.15,1037.04,-5237.26
1355,1.355000,1454,3069011,-3086.85,3328.04,-14104.26
1356,1.356000,1455,3070011,-21402.85,3084.04,-14431.26
1357,1.357000,1456,3071011,-27686.85,1338.04,-10510.26
1358,1.358000,1457,3072011,-22749.85,1454.04,-8281.26
1359,1.359000,1458,3073011,-13027.85,3662.04,-11943.26
1360,1.360000,1459,3074011,2646.15,2406.04,-13968.26
1361,1.360999,1460,3075010,16451.15,196.04000000000002,-6480.26
1362,1.362000,1461,3076011,21665.15,-923.96,4037.74
1363,1.363000,1462,3077011,15707.15,-2035.96,7960.74
1364,1.364000,1463,3078011,2046.15,-3292.96,8747.74
1365,1.365000,1464,3079011,-3992.85,-3213.96,11430.74
1366,1.365999,1465,3080010,-6474.85,-3681.96,14455.74
1367,1.367000,1466,3081011,-3598.85,-3634.96,13179.74
1368,1.367999,1467,3082010,4759.15,-784.96,4348.74
1369,1.369000,1468,3083011,4916.15,-240.95999999999998,-769.2600000000002
1370,1.370000,1469,3084011,6637.15,-1969.96,-382.2600000000002
1371,1.371000,1470,3085011,-3399.85,-1626.96,1367.7399999999998
1372,1.372000,1471,3086011,-23077.85,177.04000000000002,2475.74
1373,1.372999,1472,3087010,-31021.85,1909.04,-1960.2600000000002
1374,1.374000,1473,3088011,-33401.85,4705.04,-7569.26
1375,1.374999,1474,3089010,-25206.85,4912.04,-4974.26
1376,1.376000,1475,3090011,-2217.85,3083.04,1103.7399999999998
1377,1.377000,1476,3091011,18136.15,1640.04,4202.74
1378,1.378000,1477,3092011,32133.15,-1765.96,7822.74
1379,1.379000,1478,3093011,32133.15,-3379.96,8784.74
1380,1.379999,1479,3094010,28511.15,-2815.96,4999.74
1381,1.380999,1480,3095010,9907.15,824.04,-6004.26
1382,1.382000,1481,3096011,-8768.85,3305.04,-13931.26
1383,1.383000,1482,3097011,-22902.85,1951.04,-13009.26
1384,1.384000,1483,3098011,-28663.85,1975.04,-10797.26
1385,1.385000,1484,3099011,-22509.85,2382.04,-9670.26
1386,1.385999,1485,3100010,-8624.85,2843.04,-11593.26
1387,1.387000,1486,3101011,8071.15,1403.04,-11602.26
1388,1.387999,1487,3102010,18426.15,-53.959999999999994,-4964.26
1389,1.388999,1488,3103010,20928.15,-717.96,4647.74
1390,1.390000,1489,3104011,12612.15,-2112.96,7818.74
1391,1.391000,1490,3105011,241.14999999999998,-3150.96,9164.74
1392,1.391999,1491,3106010,-6274.85,-3108.96,12837.74
1393,1.393000,1492,3107011,-6320.85,-3584.96,14761.74
1394,1.393999,1493,3108010,-1313.85,-2949.96,11335.74
1395,1.395000,1494,3109011,6388.15,-183.95999999999998,1030.7399999999998
1396,1.396000,1495,3110011,5954.15,-753.96,-2130.26
1397,1.397000,1496,3111011,3468.15,-2327.96,1364.7399999999998
1398,1.397999,1497,3112010,-8048.85,-1385.96,2416.74
1399,1.399000,1498,3113011,-26645.85,-1.9599999999999937,2143.74
1400,1.399999,1499,3114010,-29831.85,1776.04,-1497.2600000000002
1401,1.401000,1500,3115011,-31946.85,5620.04,-7616.26
1402,1.402000,1501,3116011,-23676.85,6589.04,-7508.26
1403,1.402999,1502,3117010,3383.15,3081.04,86.73999999999978
1404,1.403999,1503,3118010,23003.15,-143.95999999999998,6644.74
1405,1.405000,1504,3119011,32133.15,-3085.96,11370.74
1406,1.405999,1505,3120010,32133.15,-4366.96,10406.74
1407,1.407000,1506,3121011,23939.15,-3042.96,3404.74
1408,1.407999,1507,3122010,7933.15,2306.04,-9039.26
1409,1.409000,1508,3123011,-11020.85,5196.04,-17598.260000000002
1410,1.410000,1509,3124011,-25226.85,2231.04,-13899.26
1411,1.411000,1510,3125011,-28359.85,1073.04,-7729.26
1412,1.412000,1511,3126011,-21097.85,2216.04,-7843.26
1413,1.412999,1512,3127010,-6230.85,2999.04,-13686.26
1414,1.414000,1513,3128011,10770.15,1642.04,-13025.26
1415,1.415000,1514,3129011,20639.15,-105.96,-2620.26
1416,1.416000,1515,3130011,18923.15,-822.96,7285.74
1417,1.417000,1516,3131011,9667.15,-2950.96,10292.74
1418,1.418000,1517,3132011,767.15,-4660.96,10906.74
1419,1.419000,1518,3133011,-6029.85,-2920.96,13167.74
1420,1.420000,1519,3134011,-4903.85,-3016.96,13475.74
1421,1.421000,1520,3135011,530.15,-2655.96,7979.74
1422,1.422000,1521,3136011,4821.15,-172.95999999999998,103.73999999999978
1423,1.423000,1522,3137011,3838.15,-1495.96,707.7399999999998
1424,1.424000,1523,3138011,1973.15,-2723.96,4228.74
1425,1.425000,1524,3139011,-10413.85,-755.96,1900.7399999999998
1426,1.425999,1525,3140010,-28427.85,1367.04,-1051.2600000000002
1427,1.427000,1526,3141011,-29986.85,3605.04,-4942.26
1428,1.428000,1527,3142011,-29903.85,5418.04,-8136.26
1429,1.429000,1528,3143011,-17409.85,4183.04,-4222.26
1430,1.430000,1529,3144011,6049.15,2663.04,2379.74
1431,1.431000,1530,3145011,22868.15,219.04000000000002,7412.74
1432,1.432000,1531,3146011,32133.15,-3470.96,10537.74
1433,1.432999,1532,3147010,32133.15,-4321.96,8056.74
1434,1.434000,1533,3148011,21531.15,-1093.96,-783.2600000000002
1435,1.435000,1534,3149011,5292.15,2390.04,-9974.26
1436,1.436000,1535,3150011,-14537.85,3265.04,-14178.26
1437,1.437000,1536,3151011,-26992.85,2511.04,-13259.26
1438,1.438000,1537,3152011,-27824.85,1936.04,-8723.26
1439,1.439000,1538,3153011,-19000.85,3023.04,-9855.26
1440,1.440000,1539,3154011,-1839.85,2544.04,-13678.26
1441,1.441000,1540,3155011,12572.15,752.04,-10046.26
1442,1.442000,1541,3156011,22370.15,-563.96,547.7399999999998
1443,1.443000,1542,3157011,18119.15,-1526.96,7387.74
1444,1.443999,1543,3158010,6987.15,-2807.96,8931.74
1445,1.445000,1544,3159011,386.15,-3659.96,11242.74
1446,1.446000,1545,3160011,-7553.85,-2616.96,13050.74
1447,1.447000,1546,3161011,-7744.85,-2726.96,12959.74
1448,1.448000,1547,3162011,1975.15,-2395.96,6168.74
1449,1.449000,1548,3163011,7757.15,-1184.96,-143.26000000000022
1450,1.450000,1549,3164011,5765.15,-1548.96,357.7399999999998
1451,1.450999,1550,3165010,-216.85000000000002,-1874.96,2668.74
1452,1.452000,1551,3166011,-15237.85,-1110.96,3297.74
1453,1.453000,1552,3167011,-28775.85,978.04,-468.2600000000002
1454,1.454000,1553,3168011,-31071.85,3647.04,-5263.26
1455,1.455000,1554,3169011,-30708.85,6428.04,-8619.26
1456,1.456000,1555,3170011,-13944.85,5312.04,-4499.26
1457,1.457000,1556,3171011,11135.15,1615.04,3248.74
1458,1.458000,1557,3172011,27394.15,-953.96,8163.74
1459,1.459000,1558,3173011,32133.15,-3620.96,11338.74
1460,1.460000,1559,3174011,32133.15,-4307.96,8045.74
1461,1.460999,1560,3175010,20296.15,-884.96,-1983.2600000000002
1462,1.462000,1561,3176011,2003.15,3314.04,-11661.26
1463,1.463000,1562,3177011,-20499.85,4080.04,-16376.26
1464,1.464000,1563,3178011,-28692.85,2390.04,-13992.26
1465,1.464999,1564,3179010,-26189.85,1098.04,-6695.26
1466,1.466000,1565,3180011,-15068.85,2241.04,-8181.26
1467,1.466999,1566,3181010,1966.15,2276.04,-14035.26
1468,1.468000,1567,3182011,15229.15,625.04,-9542.26
1469,1.469000,1568,3183011,23444.15,-43.959999999999994,1807.7399999999998
1470,1.470000,1569,3184011,16139.15,-1309.96,6691.74
1471,1.470999,1570,3185010,3180.15,-3369.96,9410.74
1472,1.472000,1571,3186011,-2628.85,-3665.96,11575.74
1473,1.473000,1572,3187011,-7118.85,-3019.96,12949.74
1474,1.474000,1573,3188011,-5324.85,-2702.96,12884.74
1475,1.475000,1574,3189011,3407.15,-1434.96,5888.74
1476,1.476000,1575,3190011,7022.15,-1149.96,88.73999999999978
1477,1.477000,1576,3191011,6420.15,-2593.96,984.7399999999998
1478,1.477999,1577,3192010,-1875.85,-2181.96,3458.74
1479,1.479000,1578,3193011,-18666.85,-384.96,2184.74
1480,1.480000,1579,3194011,-30440.85,1915.04,-1780.2600000000002
1481,1.480999,1580,3195010,-33401.85,5679.04,-8225.26
1482,1.481999,1581,3196010,-27453.85,6175.04,-7633.26
1483,1.483000,1582,3197011,-8554.85,3388.04,-832.2600000000002
1484,1.484000,1583,3198011,13724.15,1283.04,4187.74
1485,1.485000,1584,3199011,30928.15,-1429.96,8841.74
1486,1.485999,1585,3200010,32133.15,-4566.96,10729.74
1487,1.486999,1586,3201010,31387.15,-3306.96,6382.74
1488,1.488000,1587,3202011,15934.15,475.04,-4884.26
1489,1.489000,1588,3203011,-3149.85,3042.04,-13356.26
1490,1.490000,1589,3204011,-23669.85,3628.04,-15383.26
1491,1.491000,1590,3205011,-28346.85,2012.04,-11967.26
1492,1.492000,1591,3206011,-22730.85,1347.04,-7254.26
1493,1.492999,1592,3207010,-12774.85,2306.04,-10214.26
1494,1.493999,1593,3208010,3985.15,1723.04,-12632.26
1495,1.494999,1594,3209010,16575.15,964.04,-7407.26
1496,1.496000,1595,3210011,22960.15,-122.96,2993.74
1497,1.497000,1596,3211011,15875.15,-2282.96,8335.74
1498,1.498000,1597,3212011,2396.15,-3295.96,9572.74
1499,1.499000,1598,3213011,-5784.85,-3227.96,12556.74
1500,1.499999,1599,3214010,-7228.85,-3182.96,12887.74
1501,1.500999,1600,3215010,-4157.85,-3026.96,10983.74
1502,1.502000,1601,3216011,3172.15,-883.96,3449.74
1503,1.503000,1602,3217011,5608.15,-500.96,-2025.2600000000002
1504,1.504000,1603,3218011,5532.15,-2671.96,2019.7399999999998
1505,1.505000,1604,3219011,-2838.85,-2344.96,4723.74
1506,1.506000,1605,3220011,-21893.85,497.04,1497.7399999999998
1507,1.507000,1606,3221011,-31226.85,2628.04,-3576.26
1508,1.508000,1607,3222011,-29920.85,4375.04,-6573.26
1509,1.509000,1608,3223011,-25538.85,6284.04,-5937.26
1510,1.509999,1609,3224010,-5382.85,4201.04,-1005.2600000000002
1511,1.511000,1610,3225011,19043.15,507.04,5003.74
1512,1.512000,1611,3226011,32133.15,-2785.96,9418.74
1513,1.513000,1612,3227011,32133.15,-4595.96,11004.74
1514,1.513999,1613,3228010,24636.15,-2773.96,4763.74
1515,1.515000,1614,3229011,10771.15,939.04,-6548.26
1516,1.516000,1615,3230011,-6427.85,4383.04,-15845.26
1517,1.517000,1616,3231011,-23788.85,3530.04,-17028.260000000002
1518,1.518000,1617,3232011,-27491.85,1524.04,-9630.26
1519,1.519000,1618,3233011,-23482.85,1582.04,-5586.26
1520,1.519999,1619,3234010,-8477.85,1480.04,-10163.26
1521,1.521000,1620,3235011,9093.15,1187.04,-12993.26
1522,1.522000,1621,3236011,20839.15,659.04,-5358.26
1523,1.523000,1622,3237011,20075.15,-80.96,4990.74
1524,1.523999,1623,3238010,11592.15,-2283.96,8122.74
1525,1.525000,1624,3239011,680.15,-3917.96,10393.74
1526,1.526000,1625,3240011,-6345.85,-2887.96,12693.74
1527,1.526999,1626,3241010,-6203.85,-2719.96,11942.74
1528,1.528000,1627,3242011,-4056.85,-1862.96,8365.74
1529,1.529000,1628,3243011,4185.15,-935.96,1952.7399999999998
1530,1.530000,1629,3244011,6767.15,-1978.96,610.7399999999998
1531,1.530999,1630,3245010,4254.15,-2555.96,2632.74
1532,1.531999,1631,3246010,-7109.85,-1827.96,4559.74
1533,1.533000,1632,3247011,-23915.85,565.04,2292.74
1534,1.533999,1633,3248010,-31584.85,3599.04,-6181.26
1535,1.535000,1634,3249011,-31059.85,5306.04,-8601.26
1536,1.536000,1635,3250011,-21961.85,5008.04,-3788.26
1537,1.537000,1636,3251011,1103.15,2521.04,1624.7399999999998
1538,1.538000,1637,3252011,24303.15,-19.959999999999994,6425.74
1539,1.539000,1638,3253011,32133.15,-2039.96,9032.74
1540,1.540000,1639,3254011,32133.15,-3341.96,7630.74
1541,1.541000,1640,3255011,22251.15,-2114.96,2417.74
1542,1.541999,1641,3256010,7252.15,2000.04,-8303.26
1543,1.542999,1642,3257010,-12035.85,3976.04,-16159.26
1544,1.544000,1643,3258011,-25317.85,1917.04,-13720.26
1545,1.545000,1644,3259011,-27071.85,1167.04,-8317.26
1546,1.546000,1645,3260011,-21103.85,2276.04,-8585.26
1547,1.547000,1646,3261011,-2876.85,2521.04,-12073.26
1548,1.548000,1647,3262011,11859.15,1070.04,-10598.26
1549,1.549000,1648,3263011,20878.15,-230.95999999999998,-2483.26
1550,1.550000,1649,3264011,18536.15,-848.96,6420.74
1551,1.551000,1650,3265011,8861.15,-2493.96,9228.74
1552,1.552000,1651,3266011,-734.85,-3941.96,10884.74
1553,1.553000,1652,3267011,-7117.85,-2948.96,11838.74
1554,1.554000,1653,3268011,-5990.85,-2469.96,11580.74
1555,1.555000,1654,3269011,-1480.85,-987.96,6925.74
1556,1.556000,1655,3270011,5412.15,-602.96,1136.7399999999998
1557,1.557000,1656,3271011,6948.15,-2608.96,731.7399999999998
1558,1.558000,1657,3272011,2364.15,-2692.96,2387.74
1559,1.559000,1658,3273011,-12455.85,-1782.96,5039.74
1560,1.559999,1659,3274010,-26515.85,481.04,1576.7399999999998
1561,1.561000,1660,3275011,-30551.85,3498.04,-6153.26
1562,1.562000,1661,3276011,-29162.85,5817.04,-8432.26
1563,1.563000,1662,3277011,-14955.85,4735.04,-3241.26
1564,1.564000,1663,3278011,5921.15,2919.04,2462.74
1565,1.565000,1664,3279011,23646.15,451.04,6402.74
1566,1.566000,1665,3280011,32133.15,-3359.96,9232.74
1567,1.567000,1666,3281011,32133.15,-4120.96,7972.74
1568,1.568000,1667,3282011,20936.15,-1274.96,1198.7399999999998
1569,1.569000,1668,3283011,5289.15,2741.04,-9747.26
1570,1.570000,1669,3284011,-16241.85,4102.04,-16332.26
1571,1.571000,1670,3285011,-27670.85,1991.04,-13844.26
1572,1.572000,1671,3286011,-25011.85,976.04,-7990.26
1573,1.573000,1672,3287011,-17213.85,2273.04,-8212.26
1574,1.574000,1673,3288011,375.15,2189.04,-12248.26
1575,1.575000,1674,3289011,13563.15,742.04,-9621.26
1576,1.575999,1675,3290010,21248.15,-113.96,-939.2600000000002
1577,1.577000,1676,3291011,18451.15,-729.96,5501.74
1578,1.578000,1677,3292011,5773.15,-2992.96,9334.74
1579,1.579000,1678,3293011,-3423.85,-3779.96,11864.74
1580,1.579999,1679,3294010,-7387.85,-2985.96,12947.74
1581,1.581000,1680,3295011,-6718.85,-2931.96,12506.74
1582,1.582000,1681,3296011,3041.15,-1402.96,6001.74
1583,1.583000,1682,3297011,6636.15,-292.96,-1366.2600000000002
1584,1.584000,1683,3298011,4740.15,-1810.96,360.7399999999998
1585,1.585000,1684,3299011,1161.15,-2943.96,5311.74
1586,1.586000,1685,3300011,-15838.85,-1423.96,4057.74
1587,1.587000,1686,3301011,-29809.85,1647.04,-1798.2600000000002
1588,1.587999,1687,3302010,-29167.85,3883.04,-6794.26
1589,1.588999,1688,3303010,-27838.85,5978.04,-7724.26
1590,1.589999,1689,3304010,-13377.85,4138.04,-2414.26
1591,1.591000,1690,3305011,10963.15,1752.04,3449.74
1592,1.592000,1691,3306011,26856.15,-66.96,7642.74
1593,1.593000,1692,3307011,32133.15,-3761.96,10496.74
1594,1.594000,1693,3308011,32133.15,-4054.96,7411.74
1595,1.595000,1694,3309011,18539.15,217.04000000000002,-2887.26
1596,1.595999,1695,3310010,529.15,3332.04,-11706.26
1597,1.597000,1696,3311011,-18598.85,2808.04,-15185.26
1598,1.598000,1697,3312011,-27807.85,1943.04,-13226.26
1599,1.599000,1698,3313011,-25010.85,1492.04,-7417.26
1600,1.600000,1699,3314011,-14864.85,2819.04,-9652.26
1601,1.601000,1700,3315011,793.15,2290.04,-13731.26
1602,1.602000,1701,3316011,14935.15,448.04,-8504.26
1603,1.603000,1702,3317011,23221.15,-264.96,2352.74
1604,1.604000,1703,3318011,16670.15,-1590.96,6866.74
1605,1.605000,1704,3319011,3902.15,-3472.96,9782.74
1606,1.606000,1705,3320011,-3498.85,-3761.96,13500.74
1607,1.607000,1706,3321011,-6053.85,-3334.96,13650.74
1608,1.608000,1707,3322011,-4849.85,-2315.96,11500.74
1609,1.608999,1708,3323010,2811.15,-240.95999999999998,3145.74
1610,1.610000,1709,3324011,4513.15,-966.96,-1556.2600000000002
1611,1.611000,1710,3325011,4451.15,-2936.96,1834.7399999999998
1612,1.612000,1711,3326011,-2260.85,-2417.96,4025.74
1613,1.613000,1712,3327011,-18487.85,-505.96,2764.74
1614,1.614000,1713,3328011,-27568.85,1766.04,-1506.2600000000002
1615,1.615000,1714,3329011,-31197.85,4942.04,-7045.26
1616,1.616000,1715,3330011,-27312.85,6376.04,-8408.26
1617,1.617000,1716,3331011,-9150.85,4041.04,-2155.26
1618,1.617999,1717,3332010,15233.15,894.04,5063.74
1619,1.619000,1718,3333011,31156.15,-1702.96,9362.74
1620,1.620000,1719,3334011,32133.15,-4324.96,10892.74
1621,1.621000,1720,3335011,29267.15,-3315.96,4990.74
1622,1.621999,1721,3336010,14070.15,909.04,-5409.26
1623,1.622999,1722,3337010,-3220.85,3208.04,-11912.26
1624,1.624000,1723,3338011,-22290.85,3275.04,-15103.26
1625,1.624999,1724,3339010,-27869.85,1714.04,-12060.26
1626,1.625999,1725,3340010,-23968.85,1651.04,-7539.26
1627,1.627000,1726,3341011,-13335.85,3716.04,-11005.26
1628,1.628000,1727,3342011,4638.15,1714.04,-12878.26
1629,1.629000,1728,3343011,18935.15,-357.96,-6509.26
1630,1.629999,1729,3344010,22286.15,45.040000000000006,3347.74
1631,1.631000,1730,3345011,15114.15,-2015.96,7436.74
1632,1.631999,1731,3346010,2220.15,-3602.96,10520.74
1633,1.633000,1732,3347011,-4794.85,-3806.96,13890.74
1634,1.633999,1733,3348010,-7027.85,-3551.96,13792.74
1635,1.634999,1734,3349010,-4292.85,-2499.96,10098.74
1636,1.635999,1735,3350010,4823.15,-1123.96,2645.74
1637,1.637000,1736,3351011,6152.15,-975.96,202.73999999999978
1638,1.638000,1737,3352011,4993.15,-2412.96,1938.7399999999998
1639,1.638999,1738,3353010,-3604.85,-2377.96,4346.74
1640,1.640000,1739,3354011,-23008.85,577.04,1889.7399999999998
1641,1.640999,1740,3355010,-31285.85,3365.04,-6140.26
1642,1.642000,1741,3356011,-32279.85,4683.04,-7501.26
1643,1.642999,1742,3357010,-25708.85,6019.04,-4346.26
1644,1.644000,1743,3358011,-3825.85,4149.04,-504.2600000000002
1645,1.645000,1744,3359011,19393.15,12.040000000000006,5025.74
1646,1.646000,1745,3360011,32133.15,-2733.96,8795.74
1647,1.647000,1746,3361011,32133.15,-3889.96,9309.74
1648,1.648000,1747,3362011,26810.15,-2398.96,4124.74
1649,1.649000,1748,3363011,10432.15,1243.04,-6142.26
1650,1.649999,1749,3364010,-7918.85,3134.04,-13792.26
1651,1.650999,1750,3365010,-23052.85,2780.04,-15437.26
1652,1.651999,1751,3366010,-28830.85,2632.04,-11471.26
1653,1.653000,1752,3367011,-22011.85,1518.04,-7190.26
1654,1.654000,1753,3368011,-8911.85,1868.04,-10042.26
1655,1.655000,1754,3369011,8054.15,1334.04,-10807.26
1656,1.656000,1755,3370011,20087.15,9.040000000000006,-5335.26
1657,1.657000,1756,3371011,21111.15,-74.96,2840.74
1658,1.658000,1757,3372011,12014.15,-2182.96,8855.74
1659,1.659000,1758,3373011,698.15,-3711.96,10978.74
1660,1.660000,1759,3374011,-7675.85,-3294.96,13420.74
1661,1.660999,1760,3375010,-7339.85,-2590.96,12245.74
1662,1.662000,1761,3376011,-2093.85,-1740.96,7839.74
1663,1.663000,1762,3377011,5781.15,-1016.96,1439.7399999999998
1664,1.663999,1763,3378010,5966.15,-1816.96,-23.26000000000022
1665,1.664999,1764,3379010,3100.15,-3189.96,3552.74
1666,1.666000,1765,3380011,-7141.85,-2420.96,5160.74
1667,1.666999,1766,3381010,-24013.85,366.04,2021.7399999999998
1668,1.668000,1767,3382011,-30327.85,3783.04,-5412.26
1669,1.669000,1768,3383011,-32715.85,6190.04,-9325.26
1670,1.670000,1769,3384011,-19930.85,5107.04,-6324.26
1671,1.671000,1770,3385011,3222.15,2939.04,1860.7399999999998
1672,1.672000,1771,3386011,21652.15,375.04,7312.74
1673,1.673000,1772,3387011,32133.15,-2784.96,9471.74
1674,1.674000,1773,3388011,32133.15,-4100.96,9224.74
1675,1.675000,1774,3389011,22244.15,-2430.96,3935.74
1676,1.675999,1775,3390010,7472.15,1739.04,-8175.26
1677,1.677000,1776,3391011,-10808.85,4357.04,-17630.260000000002
1678,1.678000,1777,3392011,-25564.85,3005.04,-15374.26
1679,1.678999,1778,3393010,-26283.85,1409.04,-8229.26
1680,1.680000,1779,3394011,-20384.85,2159.04,-6872.26
1681,1.681000,1780,3395011,-5377.85,2444.04,-12530.26
1682,1.681999,1781,3396010,12752.15,990.04,-13025.26
1683,1.682999,1782,3397010,21136.15,-115.96,-3222.26
1684,1.684000,1783,3398011,19571.15,-702.96,6080.74
1685,1.684999,1784,3399010,7792.15,-2652.96,10000.74
1686,1.685999,1785,3400010,-2513.85,-4139.96,11316.74
1687,1.687000,1786,3401011,-5732.85,-3731.96,12895.74
1688,1.688000,1787,3402011,-6634.85,-2735.96,13174.74
1689,1.689000,1788,3403011,-405.85,-1654.96,7205.74
1690,1.690000,1789,3404011,6578.15,-999.96,1296.7399999999998
1691,1.691000,1790,3405011,5869.15,-1774.96,674.7399999999998
1692,1.692000,1791,3406011,2439.15,-2622.96,3640.74
1693,1.693000,1792,3407011,-11423.85,-1344.96,3813.74
1694,1.694000,1793,3408011,-27556.85,1575.04,-1122.2600000000002
1695,1.695000,1794,3409011,-31412.85,4161.04,-6259.26
1696,1.696000,1795,3410011,-30258.85,5839.04,-7907.26
1697,1.696999,1796,3411010,-19276.85,5103.04,-4674.26
1698,1.698000,1797,3412011,6574.15,2127.04,1776.7399999999998
1699,1.699000,1798,3413011,27523.15,-792.96,7926.74
1700,1.700000,1799,3414011,32133.15,-3265.96,10656.74
1701,1.701000,1800,3415011,32133.15,-3858.96,8621.74
1702,1.701999,1801,3416010,22240.15,-1206.96,-380.2600000000002
1703,1.703000,1802,3417011,4192.15,2380.04,-10263.26
1704,1.704000,1803,3418011,-15796.85,3797.04,-15502.26
1705,1.704999,1804,3419010,-27027.85,2506.04,-14970.26
1706,1.706000,1805,3420011,-27507.85,1327.04,-8070.26
1707,1.707000,1806,3421011,-17413.85,2132.04,-7124.26
1708,1.708000,1807,3422011,-2627.85,2327.04,-13184.26
1709,1.709000,1808,3423011,14093.15,1306.04,-11870.26
1710,1.710000,1809,3424011,24106.15,290.04,-455.2600000000002
1711,1.710999,1810,3425010,17122.15,-1087.96,6558.74
1712,1.711999,1811,3426010,4746.15,-3165.96,9666.74
1713,1.712999,1812,3427010,-1528.85,-4451.96,12321.74
1714,1.713999,1813,3428010,-7077.85,-3249.96,13665.74
1715,1.715000,1814,3429011,-6210.85,-2605.96,13103.74
1716,1.716000,1815,3430011,2750.15,-1868.96,6329.74
1717,1.716999,1816,3431010,7379.15,-741.96,-350.2600000000002
1718,1.718000,1817,3432011,5986.15,-2170.96,856.7399999999998
1719,1.719000,1818,3433011,59.14999999999998,-2265.96,4380.74
1720,1.719999,1819,3434010,-14852.85,-486.96,2348.74
1721,1.721000,1820,3435011,-29002.85,1629.04,-1963.2600000000002
1722,1.721999,1821,3436010,-33015.85,4446.04,-7049.26
1723,1.723000,1822,3437011,-29659.85,5671.04,-8614.26
1724,1.724000,1823,3438011,-14310.85,4781.04,-3290.26
1725,1.725000,1824,3439011,10555.15,2023.04,3924.74
1726,1.725999,1825,3440010,28633.15,-1810.96,9038.74
1727,1.727000,1826,3441011,32133.15,-4283.96,11184.74
1728,1.727999,1827,3442010,32133.15,-4013.96,7418.74
1729,1.729000,1828,3443011,19175.15,18.040000000000006,-2843.26
1730,1.730000,1829,3444011,530.15,3464.04,-11577.26
1731,1.731000,1830,3445011,-20613.85,3989.04,-16408.260000000002
1732,1.732000,1831,3446011,-26796.85,1829.04,-12999.26
1733,1.733000,1832,3447011,-26574.85,1015.04,-6894.26
1734,1.733999,1833,3448010,-16454.85,2954.04,-9381.26
1735,1.735000,1834,3449011,3028.15,1896.04,-13206.26
1736,1.736000,1835,3450011,16504.15,1072.04,-10348.26
1737,1.736999,1836,3451010,22061.15,1079.04,-125.26000000000022
1738,1.738000,1837,3452011,15856.15,-1713.96,7510.74
1739,1.738999,1838,3453010,4092.15,-4566.96,11817.74
1740,1.740000,1839,3454011,-3626.85,-4562.96,13772.74
1741,1.741000,1840,3455011,-7568.85,-2997.96,13425.74
1742,1.742000,1841,3456011,-5267.85,-2383.96,12129.74
1743,1.743000,1842,3457011,5335.15,-1258.96,4436.74
1744,1.744000,1843,3458011,7565.15,-385.96,-1758.2600000000002
1745,1.745000,1844,3459011,4651.15,-2700.96,1796.7399999999998
1746,1.746000,1845,3460011,-1904.85,-3028.96,6147.74
1747,1.747000,1846,3461011,-19758.85,-47.959999999999994,2688.74
1748,1.748000,1847,3462011,-29329.85,2122.04,-4158.26
1749,1.749000,1848,3463011,-31059.85,5570.04,-9437.26
1750,1.749999,1849,3464010,-29774.85,7506.04,-9683.26
1751,1.751000,1850,3465011,-10266.85,4633.04,-2284.26
1752,1.751999,1851,3466010,15116.15,-144.95999999999998,5990.74
1753,1.753000,1852,3467011,31803.15,-3244.96,11044.74
1754,1.754000,1853,3468011,32133.15,-3943.96,11049.74
1755,1.754999,1854,3469010,31097.15,-3195.96,5294.74
1756,1.756000,1855,3470011,17139.15,218.04000000000002,-5235.26
1757,1.757000,1856,3471011,-3311.85,3427.04,-13237.26
1758,1.758000,1857,3472011,-22542.85,3303.04,-14715.26
1759,1.759000,1858,3473011,-29170.85,1980.04,-11630.26
1760,1.759999,1859,3474010,-25172.85,2261.04,-8056.26
1761,1.761000,1860,3475011,-12430.85,3435.04,-11277.26
1762,1.762000,1861,3476011,4267.15,1713.04,-12783.26
1763,1.762999,1862,3477010,18818.15,-93.96,-6468.26
1764,1.764000,1863,3478011,21662.15,-358.96,2758.74
1765,1.765000,1864,3479011,15018.15,-2284.96,8113.74
1766,1.766000,1865,3480011,3522.15,-3943.96,11077.74
1767,1.767000,1866,3481011,-7449.85,-3597.96,14548.74
1768,1.768000,1867,3482011,-7260.85,-2682.96,13182.74
1769,1.769000,1868,3483011,-2535.85,-2523.96,9197.74
1770,1.770000,1869,3484011,5133.15,-881.96,2384.74
1771,1.771000,1870,3485011,5451.15,-826.96,-570.2600000000002
1772,1.772000,1871,3486011,5825.15,-2818.96,2096.74
1773,1.773000,1872,3487011,-2267.85,-2204.96,2896.74
1774,1.774000,1873,3488011,-23699.85,5.040000000000006,2051.74
1775,1.775000,1874,3489011,-31414.85,2365.04,-1666.2600000000002
1776,1.776000,1875,3490011,-32861.85,4813.04,-6521.26
1777,1.777000,1876,3491011,-24343.85,4693.04,-6937.26
1778,1.777999,1877,3492010,-3168.85,4526.04,-2223.26
1779,1.778999,1878,3493010,17449.15,2675.04,4124.74
1780,1.780000,1879,3494011,32133.15,-2478.96,9810.74
1781,1.780999,1880,3495010,32133.15,-4922.96,11524.74
1782,1.782000,1881,3496011,27585.15,-3653.96,5851.74
1783,1.783000,1882,3497011,10258.15,1169.04,-6368.26
1784,1.784000,1883,3498011,-7466.85,4003.04,-14980.26
1785,1.785000,1884,3499011,-23095.85,3147.04,-16329.26
1786,1.786000,1885,3500011,-29467.85,1941.04,-11158.26
1787,1.787000,1886,3501011,-23348.85,1706.04,-6739.26
1788,1.787999,1887,3502010,-9330.85,2649.04,-10641.26
1789,1.789000,1888,3503011,8964.15,1789.04,-12583.26
1790,1.789999,1889,3504010,20370.15,331.04,-6556.26
1791,1.791000,1890,3505011,20839.15,-159.95999999999998,2621.74
1792,1.792000,1891,3506011,12074.15,-2188.96,8826.74
1793,1.793000,1892,3507011,402.15,-4316.96,12254.74
1794,1.793999,1893,3508010,-6211.85,-3639.96,14413.74
1795,1.795000,1894,3509011,-7537.85,-3084.96,13888.74
1796,1.796000,1895,3510011,-1730.85,-2432.96,9506.74
1797,1.797000,1896,3511011,7689.15,-906.96,984.7399999999998
1798,1.798000,1897,3512011,5128.15,-1351.96,-1234.2600000000002
1799,1.799000,1898,3513011,3764.15,-2793.96,3345.74
1800,1.800000,1899,3514011,-6777.85,-1509.96,3071.74
1801,1.801000,1900,3515011,-26496.85,909.04,-193.26000000000022
1802,1.802000,1901,3516011,-30312.85,2895.04,-3446.26
1803,1.803000,1902,3517011,-32560.85,5814.04,-7000.26
1804,1.804000,1903,3518011,-23777.85,4893.04,-5388.26
1805,1.805000,1904,3519011,2859.15,2979.04,84.73999999999978
1806,1.806000,1905,3520011,22867.15,1284.04,6004.74
1807,1.807000,1906,3521011,32133.15,-3007.96,11171.74
1808,1.807999,1907,3522010,32133.15,-4593.96,10211.74
1809,1.809000,1908,3523011,23426.15,-2372.96,2958.74
1810,1.810000,1909,3524011,6858.15,1827.04,-8539.26
1811,1.811000,1910,3525011,-11554.85,3883.04,-16434.260000000002
1812,1.812000,1911,3526011,-26574.85,2768.04,-15500.26
1813,1.812999,1912,3527010,-28581.85,1794.04,-9183.26
1814,1.814000,1913,3528011,-19627.85,1919.04,-7277.26
1815,1.815000,1914,3529011,-4724.85,2640.04,-12689.26
1816,1.816000,1915,3530011,11014.15,1894.04,-12539.26
1817,1.816999,1916,3531010,20394.15,205.04000000000002,-3957.26
1818,1.818000,1917,3532011,19845.15,-795.96,5146.74
1819,1.819000,1918,3533011,8214.15,-2691.96,9697.74
1820,1.820000,1919,3534011,-958.85,-4484.96,12418.74
1821,1.821000,1920,3535011,-5806.85,-3586.96,15024.74
1822,1.822000,1921,3536011,-6046.85,-2987.96,14381.74
1823,1.823000,1922,3537011,140.14999999999998,-1754.96,6614.74
1824,1.824000,1923,3538011,6714.15,-1048.96,-281.2600000000002
1825,1.825000,1924,3539011,8605.15,-2240.96,945.7399999999998
1826,1.826000,1925,3540011,1551.15,-2092.96,3739.74
1827,1.827000,1926,3541011,-13939.85,-1253.96,3988.74
1828,1.827999,1927,3542010,-27182.85,566.04,-14.260000000000218
1829,1.828999,1928,3543010,-31297.85,4150.04,-7157.26
1830,1.830000,1929,3544011,-31336.85,6307.04,-8820.26
1831,1.831000,1930,3545011,-16445.85,4054.04,-3820.26
1832,1.832000,1931,3546011,5323.15,2924.04,1273.7399999999998
1833,1.833000,1932,3547011,23567.15,143.04000000000002,7274.74
1834,1.833999,1933,3548010,32133.15,-4032.96,10805.74
1835,1.834999,1934,3549010,32133.15,-4189.96,8945.74
1836,1.836000,1935,3550011,21279.15,-1190.96,583.7399999999998
1837,1.837000,1936,3551011,4908.15,2398.04,-10049.26
1838,1.838000,1937,3552011,-14486.85,3157.04,-14269.26
1839,1.839000,1938,3553011,-26044.85,2651.04,-13473.26
1840,1.840000,1939,3554011,-26894.85,2545.04,-10286.26
1841,1.841000,1940,3555011,-19835.85,2872.04,-9941.26
1842,1.842000,1941,3556011,-608.85,2028.04,-12410.26
1843,1.843000,1942,3557011,13192.15,779.04,-8953.26
1844,1.844000,1943,3558011,20656.15,-95.96,-772.2600000000002
1845,1.845000,1944,3559011,18415.15,-1074.96,4596.74
1846,1.846000,1945,3560011,4063.15,-2479.96,7920.74
1847,1.847000,1946,3561011,-690.85,-4238.96,12522.74
1848,1.848000,1947,3562011,-5104.85,-3755.96,15233.74
1849,1.849000,1948,3563011,-6670.85,-2898.96,13453.74
1850,1.849999,1949,3564010,1857.15,-1933.96,6457.74
1851,1.851000,1950,3565011,6831.15,-606.96,-193.26000000000022
1852,1.852000,1951,3566011,8368.15,-1931.96,915.7399999999998
1853,1.853000,1952,3567011,998.15,-1923.96,2441.74
1854,1.854000,1953,3568011,-17072.85,-522.96,2366.74
1855,1.855000,1954,3569011,-29166.85,879.04,-468.2600000000002
1856,1.856000,1955,3570011,-32010.85,3645.04,-5507.26
1857,1.857000,1956,3571011,-30184.85,6081.04,-7380.26
1858,1.858000,1957,3572011,-13941.85,5143.04,-4725.26
1859,1.859000,1958,3573011,9685.15,2507.04,1473.7399999999998
1860,1.860000,1959,3574011,27822.15,-1067.96,8027.74
1861,1.861000,1960,3575011,32133.15,-4175.96,11803.74
1862,1.862000,1961,3576011,32133.15,-4158.96,8844.74
1863,1.862999,1962,3577010,20363.15,-1207.96,-1953.2600000000002
1864,1.864000,1963,3578011,2375.15,3360.04,-13052.26
1865,1.864999,1964,3579010,-20315.85,4233.04,-15913.26
1866,1.865999,1965,3580010,-27846.85,1568.04,-12441.26
1867,1.867000,1966,3581011,-25576.85,1415.04,-6884.26
1868,1.868000,1967,3582011,-15486.85,2650.04,-8610.26
1869,1.869000,1968,3583011,1317.15,1741.04,-13690.26
1870,1.870000,1969,3584011,15900.15,610.04,-9596.26
1871,1.871000,1970,3585011,22073.15,691.04,-37.26000000000022
1872,1.871999,1971,3586010,15565.15,-423.96,6241.74
1873,1.873000,1972,3587011,4740.15,-3087.96,9743.74
1874,1.874000,1973,3588011,-4936.85,-4211.96,12427.74
1875,1.875000,1974,3589011,-7256.85,-3797.96,14606.74
1876,1.875999,1975,3590010,-4887.85,-3131.96,13912.74
1877,1.876999,1976,3591010,4425.15,-1861.96,5479.74
1878,1.878000,1977,3592011,9442.15,-426.96,-2263.26
1879,1.879000,1978,3593011,6450.15,-1759.96,781.7399999999998
1880,1.880000,1979,3594011,-1061.85,-2477.96,4643.74
1881,1.881000,1980,3595011,-19841.85,-406.96,2075.74
1882,1.881999,1981,3596010,-31547.85,2200.04,-2619.26
1883,1.882999,1982,3597010,-32799.85,4981.04,-7576.26
1884,1.883999,1983,3598010,-30890.85,5763.04,-6840.26
1885,1.884999,1984,3599010,-9840.85,3638.04,-1246.2600000000002
1886,1.886000,1985,3600011,15462.15,1122.04,4540.74
1887,1.887000,1986,3601011,32133.15,-1493.96,8980.74
1888,1.887999,1987,3602010,32133.15,-3524.96,9568.74
1889,1.888999,1988,3603010,31774.15,-3348.96,5619.74
1890,1.890000,1989,3604011,15175.15,220.04000000000002,-3378.26
1891,1.890999,1990,3605010,-4086.85,3356.04,-12301.26
1892,1.892000,1991,3606011,-22292.85,2238.04,-13578.26
1893,1.893000,1992,3607011,-27449.85,1520.04,-10730.26
1894,1.894000,1993,3608011,-22386.85,2048.04,-9594.26
1895,1.895000,1994,3609011,-14054.85,3306.04,-11597.26
1896,1.896000,1995,3610011,3208.15,2286.04,-12331.26
1897,1.897000,1996,3611011,16442.15,290.04,-6768.26
1898,1.898000,1997,3612011,22528.15,134.04000000000002,2329.74
1899,1.898999,1998,3613010,14472.15,-1446.96,6686.74
1900,1.900000,1999,3614011,1998.15,-3511.96,9224.74
1901,1.901000,2000,3615011,-4671.85,-3467.96,11948.74
1902,1.902000,2001,3616011,-7318.85,-3643.96,13937.74
1903,1.902999,2002,3617010,-2776.85,-3907.96,13108.74
1904,1.904000,2003,3618011,5994.15,-1670.96,6386.74
1905,1.904999,2004,3619010,7827.15,129.04000000000002,-2249.26
1906,1.905999,2005,3620010,1667.15,-1353.96,-947.2600000000002
1907,1.907000,2006,3621011,-3522.85,-2672.96,4547.74
1908,1.908000,2007,3622011,-20840.85,-624.96,1820.7399999999998
1909,1.909000,2008,3623011,-29763.85,2526.04,-3647.26
1910,1.910000,2009,3624011,-30448.85,5670.04,-8531.26
1911,1.911000,2010,3625011,-27608.85,5465.04,-6407.26
1912,1.912000,2011,3626011,-4694.85,3244.04,-197.26000000000022
1913,1.912999,2012,3627010,16662.15,759.04,5262.74
1914,1.914000,2013,3628011,32133.15,-2226.96,10041.74
1915,1.915000,2014,3629011,32133.15,-3917.96,10921.74
1916,1.916000,2015,3630011,28119.15,-3161.96,5358.74
1917,1.917000,2016,3631011,12849.15,1048.04,-6779.26
1918,1.918000,2017,3632011,-7241.85,4351.04,-16688.260000000002
1919,1.919000,2018,3633011,-24281.85,3468.04,-15386.26
1920,1.919999,2019,3634010,-27776.85,1154.04,-7915.26
1921,1.921000,2020,3635011,-22597.85,1515.04,-6368.26
1922,1.921999,2021,3636010,-8832.85,2942.04,-12218.26
1923,1.923000,2022,3637011,6835.15,1976.04,-13522.26
1924,1.923999,2023,3638010,19140.15,-96.96,-5648.26
1925,1.925000,2024,3639011,21897.15,-588.96,4374.74
1926,1.926000,2025,3640011,11018.15,-1547.96,8297.74
1927,1.927000,2026,3641011,1197.15,-4044.96,10182.74
1928,1.928000,2027,3642011,-5193.85,-3524.96,12581.74
1929,1.929000,2028,3643011,-7190.85,-2611.96,12786.74
1930,1.930000,2029,3644011,-1227.85,-3391.96,11284.74
1931,1.930999,2030,3645010,5206.15,-838.96,2104.74
1932,1.931999,2031,3646010,3441.15,88.04,-2558.26
1933,1.932999,2032,3647010,4354.15,-2963.96,2521.74
1934,1.934000,2033,3648011,-4712.85,-2476.96,3738.74
1935,1.935000,2034,3649011,-24456.85,540.04,2166.74
1936,1.936000,2035,3650011,-30354.85,2652.04,-2403.26
1937,1.937000,2036,3651011,-31509.85,5247.04,-7727.26
1938,1.938000,2037,3652011,-21990.85,6225.04,-7258.26
1939,1.939000,2038,3653011,-786.85,3880.04,-1713.2600000000002
1940,1.939999,2039,3654010,20100.15,132.04000000000002,5969.74
1941,1.941000,2040,3655011,32133.15,-2963.96,11628.74
1942,1.942000,2041,3656011,32133.15,-4569.96,11211.74
1943,1.943000,2042,3657011,24662.15,-3195.96,3765.74
1944,1.944000,2043,3658011,8499.15,1212.04,-7967.26
1945,1.945000,2044,3659011,-8250.85,3979.04,-14994.26
1946,1.946000,2045,3660011,-25902.85,3935.04,-16057.26
1947,1.947000,2046,3661011,-27874.85,1879.04,-9695.26
1948,1.947999,2047,3662010,-19213.85,856.04,-6862.26
1949,1.949000,2048,3663011,-8108.85,3174.04,-12478.26
1950,1.950000,2049,3664011,9808.15,2729.04,-12424.26
1951,1.951000,2050,3665011,19396.15,352.04,-5584.26
1952,1.952000,2051,3666011,21346.15,-484.96,3411.74
1953,1.953000,2052,3667011,8835.15,-2564.96,9047.74
1954,1.954000,2053,3668011,-2411.85,-4826.96,13625.74
1955,1.955000,2054,3669011,-4018.85,-4323.96,15369.74
1956,1.956000,2055,3670011,-4797.85,-3872.96,13165.74
1957,1.957000,2056,3671011,-206.85000000000002,-1939.96,8463.74
1958,1.958000,2057,3672011,4857.15,134.04000000000002,-53.26000000000022
1959,1.958999,2058,3673010,6181.15,-1103.96,-1131.2600000000002
1960,1.960000,2059,3674011,3200.15,-2492.96,3808.74
1961,1.961000,2060,3675011,-9680.85,-1395.96,3037.74
1962,1.961999,2061,3676010,-27115.85,1169.04,-217.26000000000022
1963,1.963000,2062,3677011,-30121.85,3176.04,-3577.26
1964,1.964000,2063,3678011,-31731.85,5346.04,-7865.26
1965,1.964999,2064,3679010,-20071.85,4886.04,-6126.26
1966,1.966000,2065,3680011,4786.15,2797.04,814.7399999999998
1967,1.967000,2066,3681011,22724.15,171.04000000000002,7698.74
1968,1.967999,2067,3682010,32133.15,-3258.96,11897.74
1969,1.969000,2068,3683011,32133.15,-4749.96,9873.74
1970,1.969999,2069,3684010,23641.15,-1590.96,1105.7399999999998
1971,1.970999,2070,3685010,4691.15,2802.04,-10715.26
1972,1.972000,2071,3686011,-11030.85,3124.04,-14775.26
1973,1.973000,2072,3687011,-26427.85,2655.04,-12987.26
1974,1.974000,2073,3688011,-28993.85,1752.04,-8752.26
1975,1.975000,2074,3689011,-16926.85,2081.04,-8780.26
1976,1.976000,2075,3690011,-5446.85,3269.04,-13716.26
1977,1.976999,2076,3691010,11271.15,1347.04,-10680.26
1978,1.977999,2077,3692010,21106.15,-155.95999999999998,-2628.26
1979,1.979000,2078,3693011,17111.15,-279.96,3990.74
1980,1.980000,2079,3694011,8195.15,-2704.96,9005.74
1981,1.981000,2080,3695011,-2156.85,-4138.96,12314.74
1982,1.981999,2081,3696010,-6051.85,-3614.96,14751.74
1983,1.982999,2082,3697010,-3964.85,-3838.96,14566.74
1984,1.984000,2083,3698011,100.14999999999998,-2133.96,8089.74
1985,1.984999,2084,3699010,8039.15,-442.96,-300.2600000000002
1986,1.986000,2085,3700011,8400.15,-1637.96,-1364.2600000000002
1987,1.987000,2086,3701011,1705.15,-2057.96,1838.7399999999998
1988,1.987999,2087,3702010,-13299.85,-321.96,2251.74
1989,1.989000,2088,3703011,-28961.85,916.04,486.7399999999998
1990,1.990000,2089,3704011,-31947.85,2724.04,-3116.26
1991,1.991000,2090,3705011,-30969.85,5312.04,-7632.26
1992,1.992000,2091,3706011,-17075.85,5585.04,-6105.26
1993,1.993000,2092,3707011,7082.15,2968.04,876.7399999999998
1994,1.993999,2093,3708010,24087.15,-617.96,7373.74
1995,1.995000,2094,3709011,32133.15,-3670.96,12364.74
1996,1.996000,2095,3710011,32133.15,-4330.96,10265.74
1997,1.997000,2096,3711011,21813.15,-1528.96,0.7399999999997817
1998,1.998000,2097,3712011,3698.15,3523.04,-11782.26
1999,1.999000,2098,3713011,-16134.85,4025.04,-15565.26
2000,2.000000,2099,3714011,-26577.85,1663.04,-12913.26
2001,2.001000,2100,3715011,-26512.85,1086.04,-8174.26
2002,2.002000,2101,3716011,-16119.85,2023.04,-8585.26
2003,2.003000,2102,3717011,-3144.85,2984.04,-13411.26
2004,2.004000,2103,3718011,12242.15,1537.04,-11019.26
2005,2.005000,2104,3719011,21919.15,-100.96,-2514.26
2006,2.005999,2105,3720010,17545.15,-730.96,5452.74
2007,2.006999,2106,3721010,4701.15,-2359.96,9013.74
2008,2.008000,2107,3722011,-1776.85,-4848.96,13790.74
2009,2.008999,2108,3723010,-4710.85,-4221.96,15384.74
2010,2.010000,2109,3724011,-4642.85,-2874.96,11633.74
2011,2.011000,2110,3725011,1565.15,-1968.96,6933.74
2012,2.012000,2111,3726011,8150.15,-609.96,375.7399999999998
2013,2.013000,2112,3727011,5364.15,-1733.96,239.73999999999978
2014,2.013999,2113,3728010,-464.85,-2451.96,3817.74
2015,2.015000,2114,3729011,-14628.85,-453.96,1926.7399999999998
2016,2.016000,2115,3730011,-29655.85,1913.04,-2275.26
2017,2.017000,2116,3731011,-30885.85,4261.04,-6166.26
2018,2.018000,2117,3732011,-30210.85,5438.04,-8085.26
2019,2.019000,2118,3733011,-13673.85,4644.04,-3857.26
2020,2.020000,2119,3734011,9001.15,2515.04,3002.74
2021,2.021000,2120,3735011,26719.15,-1373.96,8831.74
2022,2.022000,2121,3736011,32133.15,-4183.96,11446.74
2023,2.022999,2122,3737010,32133.15,-4288.96,8487.74
2024,2.024000,2123,3738011,19540.15,-553.96,-647.2600000000002
2025,2.024999,2124,3739010,649.15,3964.04,-13581.26
2026,2.025999,2125,3740010,-16809.85,3419.04,-16372.26
2027,2.027000,2126,3741011,-28506.85,1276.04,-10605.26
2028,2.028000,2127,3742011,-27352.85,1418.04,-7198.26
2029,2.029000,2128,3743011,-15085.85,2847.04,-9936.26
2030,2.029999,2129,3744010,-80.85000000000002,2593.04,-13868.26
2031,2.031000,2130,3745011,16002.15,1042.04,-9227.26
2032,2.031999,2131,3746010,21689.15,44.040000000000006,-252.26000000000022
2033,2.032999,2132,3747010,15769.15,-1145.96,6684.74
2034,2.034000,2133,3748011,6526.15,-3151.96,9737.74
2035,2.035000,2134,3749011,-5093.85,-3388.96,9923.74
2036,2.036000,2135,3750011,-8387.85,-3148.96,13175.74
2037,2.036999,2136,3751010,-4662.85,-4047.96,14063.74
2038,2.038000,2137,3752011,5026.15,-3095.96,7593.74
2039,2.039000,2138,3753011,8359.15,-565.96,113.73999999999978
2040,2.040000,2139,3754011,2628.15,-757.96,-1821.2600000000002
2041,2.041000,2140,3755011,-181.85000000000002,-3157.96,4597.74
2042,2.041999,2141,3756010,-14541.85,-1072.96,4350.74
2043,2.043000,2142,3757011,-30058.85,3076.04,-3132.26
2044,2.044000,2143,3758011,-31001.85,4906.04,-8055.26
2045,2.045000,2144,3759011,-27936.85,5988.04,-8281.26
2046,2.046000,2145,3760011,-12658.85,5617.04,-2438.26
2047,2.046999,2146,3761010,12165.15,1655.04,4313.74
2048,2.047999,2147,3762010,27450.15,-2872.96,9663.74
2049,2.049000,2148,3763011,32133.15,-4399.96,11367.74
2050,2.050000,2149,3764011,32133.15,-3587.96,6990.74
2051,2.051000,2150,3765011,16525.15,-42.959999999999994,-4695.26
2052,2.052000,2151,3766011,1259.15,3747.04,-13588.26
2053,2.053000,2152,3767011,-19818.85,3208.04,-13813.26
2054,2.054000,2153,3768011,-28633.85,1355.04,-10759.26
2055,2.054999,2154,3769010,-23285.85,1300.04,-7743.26
2056,2.055999,2155,3770010,-14998.85,2819.04,-10257.26
2057,2.056999,2156,3771010,2484.15,1885.04,-12711.26
2058,2.058000,2157,3772011,15981.15,-63.959999999999994,-7896.26
2059,2.059000,2158,3773011,21621.15,547.04,500.7399999999998
2060,2.060000,2159,3774011,16456.15,-495.96,6983.74
2061,2.061000,2160,3775011,2525.15,-2718.96,9744.74
2062,2.062000,2161,3776011,-7219.85,-3394.96,10682.74
2063,2.062999,2162,3777010,-6491.85,-3533.96,12701.74
2064,2.064000,2163,3778011,-3281.85,-3760.96,12411.74
2065,2.065000,2164,3779011,3230.15,-1679.96,5188.74
2066,2.066000,2165,3780011,7966.15,-732.96,950.7399999999998
2067,2.067000,2166,3781011,6280.15,-2436.96,1660.7399999999998
2068,2.068000,2167,3782011,796.15,-2340.96,2886.74
2069,2.069000,2168,3783011,-19476.85,-117.96,1708.7399999999998
2070,2.069999,2169,3784010,-30700.85,2181.04,-1690.2600000000002
2071,2.071000,2170,3785011,-30778.85,4151.04,-5380.26
2072,2.072000,2171,3786011,-27994.85,6062.04,-8710.26
2073,2.072999,2172,3787010,-8616.85,4811.04,-4250.26
2074,2.074000,2173,3788011,12133.15,1664.04,3660.74
2075,2.075000,2174,3789011,29629.15,-2234.96,9966.74
2076,2.075999,2175,3790010,32133.15,-4591.96,11967.74
2077,2.077000,2176,3791011,30313.15,-3163.96,6684.74
2078,2.078000,2177,3792011,15194.15,516.04,-3818.26
2079,2.078999,2178,3793010,-3455.85,3538.04,-12866.26
2080,2.080000,2179,3794011,-20671.85,3328.04,-15083.26
2081,2.081000,2180,3795011,-26924.85,1748.04,-11840.26
2082,2.082000,2181,3796011,-23793.85,1648.04,-8133.26
2083,2.083000,2182,3797011,-11059.85,2682.04,-10285.26
2084,2.083999,2183,3798010,5477.15,1850.04,-11699.26
2085,2.085000,2184,3799011,15675.15,766.04,-6800.26
2086,2.085999,2185,3800010,21173.15,-66.96,1197.7399999999998
2087,2.086999,2186,3801010,13170.15,-1351.96,7224.74
2088,2.088000,2187,3802011,-97.85000000000002,-3543.96,9260.74
2089,2.089000,2188,3803011,-4233.85,-4678.96,13835.74
2090,2.090000,2189,3804011,-4622.85,-3205.96,14510.74
2091,2.091000,2190,3805011,-2888.85,-2300.96,10093.74
2092,2.092000,2191,3806011,4378.15,-601.96,2740.74
2093,2.093000,2192,3807011,6680.15,-722.96,-1271.2600000000002
2094,2.094000,2193,3808011,6363.15,-3108.96,2827.74
2095,2.095000,2194,3809011,-3211.85,-2306.96,4061.74
2096,2.096000,2195,3810011,-22918.85,226.04000000000002,1292.7399999999998
2097,2.097000,2196,3811011,-29987.85,2262.04,-2505.26
2098,2.098000,2197,3812011,-31671.85,4370.04,-6712.26
2099,2.099000,2198,3813011,-24797.85,5955.04,-7716.26
2100,2.100000,2199,3814011,-5649.85,5103.04,-2029.2600000000002
2101,2.101000,2200,3815011,14901.15,1431.04,4959.74
2102,2.102000,2201,3816011,31565.15,-2657.96,10092.74
2103,2.103000,2202,3817011,32133.15,-4654.96,11265.74
2104,2.103999,2203,3818010,31292.15,-3665.96,6298.74
2105,2.105000,2204,3819011,11578.15,1017.04,-6241.26
2106,2.105999,2205,3820010,-5654.85,3425.04,-14486.26
2107,2.107000,2206,3821011,-20785.85,2616.04,-13037.26
2108,2.107999,2207,3822010,-29553.85,2263.04,-10981.26
2109,2.109000,2208,3823011,-21724.85,2137.04,-9346.26
2110,2.110000,2209,3824011,-10326.85,2845.04,-11119.26
2111,2.111000,2210,3825011,6540.15,2014.04,-12927.26
2112,2.112000,2211,3826011,17246.15,293.04,-6484.26
2113,2.113000,2212,3827011,20028.15,-320.96,3501.74
2114,2.114000,2213,3828011,13470.15,-1762.96,7405.74
2115,2.115000,2214,3829011,898.15,-3875.96,9408.74
2116,2.116000,2215,3830011,-5082.85,-4072.96,13787.74
2117,2.117000,2216,3831011,-7631.85,-3336.96,14337.74
2118,2.118000,2217,3832011,-3094.85,-2742.96,10863.74
2119,2.118999,2218,3833010,7343.15,-1000.96,2464.74
2120,2.120000,2219,3834011,6967.15,-559.96,-1988.2600000000002
2121,2.120999,2220,3835010,5782.15,-2419.96,2503.74
2122,2.122000,2221,3836011,-5341.85,-2162.96,3295.74
2123,2.122999,2222,3837010,-25533.85,548.04,1017.7399999999998
2124,2.124000,2223,3838011,-29267.85,2214.04,-1790.2600000000002
2125,2.124999,2224,3839010,-32221.85,4956.04,-6835.26
2126,2.125999,2225,3840010,-24697.85,5302.04,-6923.26
2127,2.127000,2226,3841011,-1198.85,3672.04,-1429.2600000000002
2128,2.128000,2227,3842011,17683.15,1371.04,5105.74
2129,2.129000,2228,3843011,32133.15,-2535.96,10857.74
2130,2.130000,2229,3844011,32133.15,-4186.96,10798.74
2131,2.130999,2230,3845010,27514.15,-2773.96,3381.74
2132,2.132000,2231,3846011,9760.15,1498.04,-7794.26
2133,2.133000,2232,3847011,-10001.85,3903.04,-14778.26
2134,2.134000,2233,3848011,-23124.85,2918.04,-13127.26
2135,2.134999,2234,3849010,-28928.85,1200.04,-9540.26
2136,2.135999,2235,3850010,-19348.85,1959.04,-9275.26
2137,2.137000,2236,3851011,-7974.85,3382.04,-12264.26
2138,2.138000,2237,3852011,7633.15,2025.04,-11708.26
2139,2.139000,2238,3853011,19658.15,-264.96,-3594.26
2140,2.140000,2239,3854011,19187.15,-1094.96,4637.74
2141,2.141000,2240,3855011,11099.15,-2110.96,7731.74
2142,2.141999,2241,3856010,-555.85,-3457.96,9026.74
2143,2.143000,2242,3857011,-6570.85,-3418.96,13912.74
2144,2.143999,2243,3858010,-6946.85,-3981.96,16022.74
2145,2.145000,2244,3859011,-493.85,-3343.96,11027.74
2146,2.146000,2245,3860011,8597.15,-421.96,2638.74
2147,2.147000,2246,3861011,6481.15,54.040000000000006,-2290.26
2148,2.148000,2247,3862011,4244.15,-2303.96,494.7399999999998
2149,2.148999,2248,3863010,-6449.85,-1882.96,2245.74
2150,2.150000,2249,3864011,-27753.85,748.04,897.7399999999998
