row,seconds,esp32_index,micros,ax,ay,az
0,0.000000,69465,71079993,-8690.62,-68.41,4111.86
1,0.001000,69466,71080993,-2910.62,28.59,2763.8599999999997
2,0.002000,69467,71081993,3711.38,-823.41,3332.8599999999997
3,0.003000,69468,71082993,4304.38,-1016.41,3224.8599999999997
4,0.004000,69469,71083993,-1815.62,384.59,395.8599999999997
5,0.005000,69470,71084993,-7784.62,-486.41,864.8599999999997
6,0.006000,69471,71085993,-18065.62,-1386.41,3228.8599999999997
7,0.007000,69472,71086993,-21121.62,-134.41,2799.8599999999997
8,0.007999,69473,71087992,-17756.62,133.59,1596.8599999999997
9,0.009000,69474,71088993,-8495.62,-340.41,2590.8599999999997
10,0.010000,69475,71089993,2994.38,209.59,2541.8599999999997
11,0.011000,69476,71090993,6190.38,-207.41,805.8599999999997
12,0.012000,69477,71091993,4595.38,194.59,-434.1400000000003
13,0.013000,69478,71092993,2599.38,888.59,-2046.1400000000003
14,0.014000,69479,71093993,4618.38,1093.59,-3289.1400000000003
15,0.014999,69480,71094992,7014.38,287.59,-2857.1400000000003
16,0.016000,69481,71095993,7193.38,-679.41,-2151.1400000000003
17,0.017000,69482,71096993,1321.38,13.59,-3035.1400000000003
18,0.018000,69483,71097993,-2814.62,122.59,-3533.1400000000003
19,0.019000,69484,71098993,2012.38,310.59,-4312.14
20,0.020000,69485,71099993,11531.38,302.59,-4953.14
21,0.021000,69486,71100993,19434.38,-449.41,-2301.1400000000003
22,0.022000,69487,71101993,16099.38,14.59,-724.1400000000003
23,0.023000,69488,71102993,4451.38,637.59,-711.1400000000003
24,0.024000,69489,71103993,-6783.62,838.59,1889.8599999999997
25,0.025000,69490,71104993,-9498.62,278.59,4165.86
26,0.026000,69491,71105993,-4325.62,-364.41,3011.8599999999997
27,0.027000,69492,71106993,1966.38,-540.41,3132.8599999999997
28,0.028000,69493,71107993,4907.38,-724.41,3605.8599999999997
29,0.029000,69494,71108993,-29.620000000000005,-280.41,929.8599999999997
30,0.030000,69495,71109993,-6527.62,-120.41,656.8599999999997
31,0.031000,69496,71110993,-16736.62,-1008.41,2681.8599999999997
32,0.032000,69497,71111993,-21328.62,-747.41,3015.8599999999997
33,0.033000,69498,71112993,-19177.62,477.59,1823.8599999999997
34,0.034000,69499,71113993,-10606.62,-203.41,2139.8599999999997
35,0.035000,69500,71114993,1785.38,-96.41,2664.8599999999997
36,0.036000,69501,71115993,5982.38,78.59,815.8599999999997
37,0.037000,69502,71116993,5773.38,-211.41,-392.1400000000003
38,0.038000,69503,71117993,2669.38,850.59,-1649.1400000000003
39,0.039000,69504,71118993,3870.38,1035.59,-3149.1400000000003
40,0.040000,69505,71119993,7665.38,464.59,-3137.1400000000003
41,0.040999,69506,71120992,7348.38,-351.41,-2224.1400000000003
42,0.042000,69507,71121993,2452.38,-436.41,-2544.1400000000003
43,0.043000,69508,71122993,-3331.62,491.59,-3566.1400000000003
44,0.044000,69509,71123993,1390.38,262.59,-3815.1400000000003
45,0.045000,69510,71124993,10154.38,12.59,-4736.14
46,0.046000,69511,71125993,17483.38,14.59,-2990.1400000000003
47,0.047000,69512,71126993,17859.38,-278.41,-610.1400000000003
48,0.048000,69513,71127993,6334.38,551.59,-859.1400000000003
49,0.049000,69514,71128993,-5428.62,955.59,1212.8599999999997
50,0.050000,69515,71129993,-9671.62,209.59,3936.8599999999997
51,0.050999,69516,71130992,-5573.62,22.59,3066.8599999999997
52,0.052000,69517,71131993,1260.38,-675.41,2939.8599999999997
53,0.053000,69518,71132993,5262.38,-961.41,3850.8599999999997
54,0.054000,69519,71133993,1013.38,-215.41,1359.8599999999997
55,0.055000,69520,71134993,-4720.62,-322.41,416.8599999999997
56,0.056000,69521,71135993,-16192.62,-517.41,2102.8599999999997
57,0.057000,69522,71136993,-22601.62,-785.41,2710.8599999999997
58,0.058000,69523,71137993,-18202.62,-13.41,2109.8599999999997
59,0.058999,69524,71138992,-11818.62,158.59,2317.8599999999997
60,0.060000,69525,71139993,265.38,-249.41,3048.8599999999997
61,0.060999,69526,71140992,5884.38,-196.41,1317.8599999999997
62,0.061999,69527,71141992,5878.38,57.59,-269.1400000000003
63,0.063000,69528,71142993,3014.38,709.59,-1402.1400000000003
64,0.064000,69529,71143993,2855.38,1047.59,-3061.1400000000003
65,0.065000,69530,71144993,7330.38,659.59,-3187.1400000000003
66,0.066000,69531,71145993,7476.38,-453.41,-2354.1400000000003
67,0.067000,69532,71146993,3054.38,-271.41,-2562.1400000000003
68,0.068000,69533,71147993,-3276.62,186.59,-3447.1400000000003
69,0.068999,69534,71148992,748.38,11.59,-3752.1400000000003
70,0.069999,69535,71149992,9168.38,270.59,-4761.14
71,0.071000,69536,71150993,16558.38,31.59,-3588.1400000000003
72,0.071999,69537,71151992,18160.38,-74.41,-1076.1400000000003
73,0.072999,69538,71152992,8367.38,414.59,-745.1400000000003
74,0.074000,69539,71153993,-3142.62,680.59,875.8599999999997
75,0.074999,69540,71154992,-9394.62,546.59,3603.8599999999997
76,0.076000,69541,71155993,-6540.62,-16.41,3655.8599999999997
77,0.076999,69542,71156992,39.379999999999995,-589.41,2969.8599999999997
78,0.078000,69543,71157993,4246.38,-801.41,3568.8599999999997
79,0.078999,69544,71158992,2094.38,-397.41,1937.8599999999997
80,0.080000,69545,71159993,-2845.62,-133.41,401.8599999999997
81,0.080999,69546,71160992,-14333.62,-351.41,1853.8599999999997
82,0.082000,69547,71161993,-22524.62,-990.41,2857.8599999999997
83,0.083000,69548,71162993,-19168.62,-297.41,1873.8599999999997
84,0.084000,69549,71163993,-13119.62,113.59,2206.8599999999997
85,0.085000,69550,71164993,-2627.62,-99.41,3126.8599999999997
86,0.086000,69551,71165993,5329.38,-123.41,1465.8599999999997
87,0.086999,69552,71166992,6812.38,-213.41,75.85999999999967
88,0.087999,69553,71167992,3798.38,603.59,-1142.1400000000003
89,0.089000,69554,71168993,3126.38,1120.59,-2779.1400000000003
90,0.089999,69555,71169992,6505.38,754.59,-3184.1400000000003
91,0.090999,69556,71170992,6988.38,-201.41,-2672.1400000000003
92,0.092000,69557,71171993,4125.38,-418.41,-2377.1400000000003
93,0.093000,69558,71172993,-2011.62,-67.41,-3088.1400000000003
94,0.094000,69559,71173993,-527.62,177.59,-3673.1400000000003
95,0.094999,69560,71174992,7663.38,383.59,-4748.14
96,0.096000,69561,71175993,14985.38,71.59,-4013.1400000000003
97,0.097000,69562,71176993,18370.38,-157.41,-1161.1400000000003
98,0.098000,69563,71177993,10669.38,292.59,-714.1400000000003
99,0.099000,69564,71178993,-1857.62,777.59,230.85999999999967
100,0.100000,69565,71179993,-8816.62,595.59,3453.8599999999997
101,0.101000,69566,71180993,-7488.62,67.59,3707.8599999999997
102,0.101999,69567,71181992,-739.62,-448.41,2683.8599999999997
103,0.103000,69568,71182993,4738.38,-1042.41,3736.8599999999997
104,0.104000,69569,71183993,3008.38,-526.41,2341.8599999999997
105,0.105000,69570,71184993,-3024.62,78.59,75.85999999999967
106,0.106000,69571,71185993,-11993.62,-447.41,1433.8599999999997
107,0.107000,69572,71186993,-21575.62,-885.41,2844.8599999999997
108,0.108000,69573,71187993,-19958.62,-456.41,2154.8599999999997
109,0.109000,69574,71188993,-13712.62,-188.41,2082.8599999999997
110,0.110000,69575,71189993,-4319.62,-102.41,2998.8599999999997
111,0.111000,69576,71190993,4415.38,55.59,1907.8599999999997
112,0.112000,69577,71191993,6055.38,-153.41,237.85999999999967
113,0.113000,69578,71192993,3819.38,468.59,-912.1400000000003
114,0.113999,69579,71193992,3177.38,1122.59,-2515.1400000000003
115,0.115000,69580,71194993,6305.38,855.59,-3050.1400000000003
116,0.116000,69581,71195993,6900.38,57.59,-2564.1400000000003
117,0.117000,69582,71196993,5203.38,-558.41,-2200.1400000000003
118,0.118000,69583,71197993,-692.62,-218.41,-2934.1400000000003
119,0.119000,69584,71198993,-2227.62,408.59,-3634.1400000000003
120,0.120000,69585,71199993,4928.38,340.59,-4699.14
121,0.120999,69586,71200992,14203.38,-48.41,-4523.14
122,0.122000,69587,71201993,19058.38,-116.41,-1712.1400000000003
123,0.123000,69588,71202993,13192.38,140.59,-687.1400000000003
124,0.123999,69589,71203992,478.38,648.59,-135.14000000000033
125,0.125000,69590,71204993,-8773.62,737.59,2800.8599999999997
126,0.126000,69591,71205993,-8361.62,89.59,3925.8599999999997
127,0.127000,69592,71206993,-1948.62,-354.41,2875.8599999999997
128,0.127999,69593,71207992,4193.38,-821.41,3636.8599999999997
129,0.129000,69594,71208993,3901.38,-582.41,2846.8599999999997
130,0.130000,69595,71209993,-2347.62,48.59,170.85999999999967
131,0.131000,69596,71210993,-9225.62,-324.41,1081.8599999999997
132,0.132000,69597,71211993,-19444.62,-1084.41,3228.8599999999997
133,0.133000,69598,71212993,-20725.62,-490.41,2553.8599999999997
134,0.134000,69599,71213993,-16380.62,13.59,1603.8599999999997
135,0.135000,69600,71214993,-6878.62,-268.41,2775.8599999999997
136,0.135999,69601,71215992,3771.38,136.59,2278.8599999999997
137,0.137000,69602,71216993,5838.38,-2.41,311.8599999999997
138,0.138000,69603,71217993,4586.38,267.59,-741.1400000000003
139,0.139000,69604,71218993,3137.38,990.59,-2142.1400000000003
140,0.139999,69605,71219992,5640.38,951.59,-3001.1400000000003
141,0.141000,69606,71220993,6646.38,219.59,-2767.1400000000003
142,0.142000,69607,71221993,5761.38,-425.41,-2219.1400000000003
143,0.143000,69608,71222993,770.38,-325.41,-2702.1400000000003
144,0.144000,69609,71223993,-2691.62,418.59,-3527.1400000000003
145,0.145000,69610,71224993,3342.38,534.59,-4718.14
146,0.146000,69611,71225993,13492.38,-225.41,-4681.14
147,0.147000,69612,71226993,19173.38,-231.41,-1847.1400000000003
148,0.148000,69613,71227993,14358.38,205.59,-782.1400000000003
149,0.148999,69614,71228992,2441.38,536.59,-586.1400000000003
150,0.150000,69615,71229993,-8081.62,807.59,2333.8599999999997
151,0.151000,69616,71230993,-9046.62,278.59,4035.8599999999997
152,0.152000,69617,71231993,-2422.62,-413.41,2952.8599999999997
153,0.152999,69618,71232992,3463.38,-735.41,3366.8599999999997
154,0.154000,69619,71233993,4145.38,-575.41,3238.8599999999997
155,0.155000,69620,71234993,-1432.62,-125.41,760.8599999999997
156,0.156000,69621,71235993,-8487.62,-210.41,776.8599999999997
157,0.157000,69622,71236993,-17691.62,-1234.41,3016.8599999999997
158,0.157999,69623,71237992,-20736.62,-519.41,2810.8599999999997
159,0.158999,69624,71238992,-18020.62,320.59,1629.8599999999997
160,0.160000,69625,71239993,-8305.62,-408.41,2514.8599999999997
161,0.161000,69626,71240993,2911.38,136.59,2232.8599999999997
162,0.162000,69627,71241993,5673.38,-79.41,597.8599999999997
163,0.163000,69628,71242993,4974.38,43.59,-449.1400000000003
164,0.164000,69629,71243993,2443.38,1034.59,-2148.1400000000003
165,0.165000,69630,71244993,4887.38,979.59,-3151.1400000000003
166,0.166000,69631,71245993,7355.38,376.59,-2772.1400000000003
167,0.167000,69632,71246993,6780.38,-477.41,-2043.1400000000003
168,0.168000,69633,71247993,1941.38,-251.41,-2556.1400000000003
169,0.169000,69634,71248993,-3284.62,485.59,-3586.1400000000003
170,0.170000,69635,71249993,2033.38,286.59,-4031.1400000000003
171,0.170999,69636,71250992,11281.38,52.59,-4678.14
172,0.171999,69637,71251992,18439.38,-225.41,-2621.1400000000003
173,0.172999,69638,71252992,16335.38,-88.41,-546.1400000000003
174,0.173999,69639,71253992,4218.38,708.59,-647.1400000000003
175,0.175000,69640,71254993,-6598.62,816.59,1653.8599999999997
176,0.176000,69641,71255993,-9164.62,155.59,3961.8599999999997
177,0.177000,69642,71256993,-4392.62,-162.41,3096.8599999999997
178,0.178000,69643,71257993,1913.38,-643.41,3207.8599999999997
179,0.179000,69644,71258993,4480.38,-835.41,3433.8599999999997
180,0.179999,69645,71259992,194.38,-121.41,947.8599999999997
181,0.181000,69646,71260993,-5539.62,-337.41,718.8599999999997
182,0.182000,69647,71261993,-16032.62,-933.41,2587.8599999999997
183,0.183000,69648,71262993,-20972.62,-564.41,2757.8599999999997
184,0.184000,69649,71263993,-18564.62,246.59,1764.8599999999997
185,0.185000,69650,71264993,-11130.62,-153.41,2283.8599999999997
186,0.186000,69651,71265993,1083.38,-138.41,2703.8599999999997
187,0.186999,69652,71266992,5656.38,-83.41,904.8599999999997
188,0.188000,69653,71267993,5941.38,-60.41,-360.1400000000003
189,0.189000,69654,71268993,2797.38,735.59,-1667.1400000000003
190,0.189999,69655,71269992,3406.38,1083.59,-3073.1400000000003
191,0.191000,69656,71270993,7397.38,468.59,-2858.1400000000003
192,0.191999,69657,71271992,6726.38,-400.41,-2151.1400000000003
193,0.193000,69658,71272993,2471.38,-202.41,-2372.1400000000003
194,0.194000,69659,71273993,-3552.62,275.59,-3324.1400000000003
195,0.195000,69660,71274993,1245.38,101.59,-3749.1400000000003
196,0.196000,69661,71275993,10175.38,184.59,-4697.14
197,0.197000,69662,71276993,16747.38,17.59,-3320.1400000000003
198,0.197999,69663,71277992,17546.38,-157.41,-886.1400000000003
199,0.198999,69664,71278992,6859.38,521.59,-961.1400000000003
200,0.200000,69665,71279993,-4491.62,809.59,1044.8599999999997
201,0.200999,69666,71280992,-8959.62,391.59,3895.8599999999997
202,0.202000,69667,71281993,-5403.62,-70.41,3390.8599999999997
203,0.203000,69668,71282993,844.38,-530.41,2918.8599999999997
204,0.204000,69669,71283993,4644.38,-919.41,3659.8599999999997
205,0.205000,69670,71284993,1741.38,-285.41,1566.8599999999997
206,0.206000,69671,71285993,-3623.62,-155.41,332.8599999999997
207,0.207000,69672,71286993,-15018.62,-535.41,1955.8599999999997
208,0.208000,69673,71287993,-22093.62,-892.41,2726.8599999999997
209,0.209000,69674,71288993,-18693.62,-157.41,1850.8599999999997
210,0.210000,69675,71289993,-12725.62,22.59,2243.8599999999997
211,0.210999,69676,71290992,-1694.62,-222.41,2974.8599999999997
212,0.212000,69677,71291993,5198.38,-137.41,1289.8599999999997
213,0.213000,69678,71292993,6153.38,-121.41,72.85999999999967
214,0.213999,69679,71293992,3405.38,739.59,-1216.1400000000003
215,0.215000,69680,71294993,3230.38,1129.59,-2784.1400000000003
216,0.216000,69681,71295993,6938.38,637.59,-2903.1400000000003
217,0.217000,69682,71296993,7285.38,-212.41,-2358.1400000000003
218,0.218000,69683,71297993,3617.38,-310.41,-2308.1400000000003
219,0.219000,69684,71298993,-2685.62,42.59,-3196.1400000000003
220,0.219999,69685,71299992,-192.62,195.59,-3739.1400000000003
221,0.220999,69686,71300992,8333.38,301.59,-4704.14
222,0.221999,69687,71301992,15628.38,55.59,-3925.1400000000003
223,0.223000,69688,71302993,18161.38,-159.41,-1241.1400000000003
224,0.223999,69689,71303992,9970.38,296.59,-755.1400000000003
225,0.225000,69690,71304993,-2482.62,738.59,389.8599999999997
226,0.226000,69691,71305993,-9137.62,549.59,3486.8599999999997
227,0.227000,69692,71306993,-7365.62,22.59,3671.8599999999997
228,0.228000,69693,71307993,-460.62,-415.41,2777.8599999999997
229,0.229000,69694,71308993,4836.38,-807.41,3655.8599999999997
230,0.229999,69695,71309992,2929.38,-488.41,2168.8599999999997
231,0.231000,69696,71310993,-2269.62,21.59,268.8599999999997
232,0.232000,69697,71311993,-12824.62,-372.41,1617.8599999999997
233,0.233000,69698,71312993,-22240.62,-925.41,2857.8599999999997
234,0.234000,69699,71313993,-19449.62,-468.41,2090.8599999999997
235,0.235000,69700,71314993,-13831.62,-106.41,2039.8599999999997
236,0.236000,69701,71315993,-4085.62,-95.41,2951.8599999999997
237,0.237000,69702,71316993,4573.38,-104.41,1645.8599999999997
238,0.238000,69703,71317993,6324.38,-176.41,68.85999999999967
239,0.239000,69704,71318993,3929.38,568.59,-967.1400000000003
240,0.240000,69705,71319993,3068.38,1111.59,-2584.1400000000003
241,0.241000,69706,71320993,6335.38,845.59,-3065.1400000000003
242,0.242000,69707,71321993,6842.38,3.59,-2496.1400000000003
243,0.243000,69708,71322993,4853.38,-444.41,-2149.1400000000003
244,0.244000,69709,71323993,-994.62,-87.41,-2914.1400000000003
245,0.245000,69710,71324993,-1381.62,232.59,-3484.1400000000003
246,0.246000,69711,71325993,5779.38,347.59,-4682.14
247,0.247000,69712,71326993,14308.38,79.59,-4411.14
248,0.248000,69713,71327993,18826.38,-184.41,-1381.1400000000003
249,0.248999,69714,71328992,12201.38,151.59,-773.1400000000003
250,0.250000,69715,71329993,-406.62,740.59,-270.1400000000003
251,0.250999,69716,71330992,-8602.62,635.59,3014.8599999999997
252,0.252000,69717,71331993,-7935.62,18.59,3863.8599999999997
253,0.253000,69718,71332993,-1671.62,-279.41,2636.8599999999997
254,0.254000,69719,71333993,4559.38,-945.41,3670.8599999999997
255,0.255000,69720,71334993,3677.38,-651.41,2792.8599999999997
256,0.255999,69721,71335992,-2703.62,87.59,140.85999999999967
257,0.257000,69722,71336993,-9955.62,-380.41,1161.8599999999997
258,0.258000,69723,71337993,-20179.62,-990.41,3039.8599999999997
259,0.259000,69724,71338993,-20522.62,-408.41,2493.8599999999997
260,0.260000,69725,71339993,-15411.62,-82.41,1751.8599999999997
261,0.261000,69726,71340993,-5994.62,-210.41,2840.8599999999997
262,0.262000,69727,71341993,3940.38,107.59,2257.8599999999997
263,0.262999,69728,71342992,5561.38,-84.41,340.8599999999997
264,0.264000,69729,71343993,4294.38,401.59,-702.1400000000003
265,0.264999,69730,71344992,2876.38,1012.59,-2360.1400000000003
266,0.266000,69731,71345993,5943.38,962.59,-3119.1400000000003
267,0.267000,69732,71346993,6896.38,204.59,-2572.1400000000003
268,0.268000,69733,71347993,5409.38,-512.41,-2237.1400000000003
269,0.268999,69734,71348992,992.38,-272.41,-2939.1400000000003
270,0.269999,69735,71349992,-2650.62,385.59,-3555.1400000000003
271,0.271000,69736,71350993,3669.38,380.59,-4571.14
272,0.272000,69737,71351993,13306.38,-80.41,-4780.14
273,0.272999,69738,71352992,18931.38,-133.41,-1890.1400000000003
274,0.274000,69739,71353993,14797.38,-27.41,-632.1400000000003
275,0.275000,69740,71354993,1898.38,640.59,-481.1400000000003
276,0.276000,69741,71355993,-8465.62,941.59,2458.8599999999997
277,0.277000,69742,71356993,-8796.62,14.59,3984.8599999999997
278,0.277999,69743,71357992,-2821.62,-213.41,2872.8599999999997
279,0.279000,69744,71358993,3542.38,-687.41,3573.8599999999997
280,0.280000,69745,71359993,4364.38,-807.41,3174.8599999999997
281,0.281000,69746,71360993,-1660.62,12.59,438.8599999999997
282,0.282000,69747,71361993,-8249.62,-246.41,945.8599999999997
283,0.283000,69748,71362993,-18125.62,-1264.41,3214.8599999999997
284,0.284000,69749,71363993,-20978.62,-477.41,2762.8599999999997
285,0.285000,69750,71364993,-18022.62,309.59,1469.8599999999997
286,0.285999,69751,71365992,-8383.62,-345.41,2509.8599999999997
287,0.287000,69752,71366993,3430.38,93.59,2450.8599999999997
288,0.288000,69753,71367993,6065.38,-9.41,462.8599999999997
289,0.288999,69754,71368992,4885.38,41.59,-587.1400000000003
290,0.289999,69755,71369992,2903.38,886.59,-1982.1400000000003
291,0.291000,69756,71370993,5000.38,1065.59,-3145.1400000000003
292,0.292000,69757,71371993,6990.38,387.59,-2870.1400000000003
293,0.293000,69758,71372993,6566.38,-462.41,-2205.1400000000003
294,0.294000,69759,71373993,1839.38,-476.41,-2667.1400000000003
295,0.295000,69760,71374993,-3078.62,520.59,-3504.1400000000003
296,0.296000,69761,71375993,2375.38,542.59,-4208.14
297,0.297000,69762,71376993,11809.38,-292.41,-4826.14
298,0.298000,69763,71377993,18778.38,-152.41,-2406.1400000000003
299,0.298999,69764,71378992,15830.38,103.59,-614.1400000000003
300,0.300000,69765,71379993,3843.38,506.59,-800.1400000000003
301,0.301000,69766,71380993,-7448.62,1010.59,1751.8599999999997
302,0.302000,69767,71381993,-9097.62,147.59,4154.86
303,0.302999,69768,71382992,-3474.62,-310.41,2943.8599999999997
304,0.304000,69769,71383993,2440.38,-573.41,3100.8599999999997
305,0.305000,69770,71384993,4805.38,-961.41,3722.8599999999997
306,0.306000,69771,71385993,-687.62,-123.41,853.8599999999997
307,0.307000,69772,71386993,-7210.62,-135.41,401.8599999999997
308,0.308000,69773,71387993,-16923.62,-1224.41,2691.8599999999997
309,0.309000,69774,71388993,-20840.62,-453.41,3039.8599999999997
310,0.310000,69775,71389993,-18561.62,450.59,1769.8599999999997
311,0.311000,69776,71390993,-9888.62,-316.41,2171.8599999999997
312,0.312000,69777,71391993,1896.38,-5.41,2659.8599999999997
313,0.313000,69778,71392993,5595.38,-67.41,938.8599999999997
314,0.314000,69779,71393993,5442.38,62.59,-324.1400000000003
315,0.314999,69780,71394992,2680.38,819.59,-1872.1400000000003
316,0.316000,69781,71395993,4031.38,960.59,-3214.1400000000003
317,0.317000,69782,71396993,7546.38,501.59,-2762.1400000000003
318,0.318000,69783,71397993,7098.38,-488.41,-2119.1400000000003
319,0.319000,69784,71398993,2302.38,-220.41,-2778.1400000000003
320,0.320000,69785,71399993,-3223.62,311.59,-3510.1400000000003
321,0.320999,69786,71400992,1623.38,114.59,-3718.1400000000003
322,0.322000,69787,71401993,10540.38,174.59,-4800.14
323,0.323000,69788,71402993,17520.38,-133.41,-3105.1400000000003
324,0.324000,69789,71403993,16854.38,-17.41,-848.1400000000003
325,0.325000,69790,71404993,6149.38,402.59,-861.1400000000003
326,0.326000,69791,71405993,-4874.62,691.59,1391.8599999999997
327,0.327000,69792,71406993,-9499.62,509.59,3895.8599999999997
328,0.328000,69793,71407993,-5166.62,-195.41,3256.8599999999997
329,0.329000,69794,71408993,772.38,-596.41,3042.8599999999997
330,0.330000,69795,71409993,4654.38,-848.41,3665.8599999999997
331,0.330999,69796,71410992,1237.38,-206.41,1263.8599999999997
332,0.332000,69797,71411993,-4776.62,-216.41,629.8599999999997
333,0.333000,69798,71412993,-15396.62,-840.41,2631.8599999999997
334,0.334000,69799,71413993,-21968.62,-662.41,2778.8599999999997
335,0.335000,69800,71414993,-19410.62,217.59,1764.8599999999997
336,0.336000,69801,71415993,-12099.62,1.5899999999999999,2246.8599999999997
337,0.337000,69802,71416993,-72.62,-286.41,2985.8599999999997
338,0.338000,69803,71417993,6009.38,-90.41,1064.8599999999997
339,0.339000,69804,71418993,6385.38,-55.41,-332.1400000000003
340,0.340000,69805,71419993,3135.38,687.59,-1406.1400000000003
341,0.341000,69806,71420993,3339.38,1135.59,-2956.1400000000003
342,0.341999,69807,71421992,6650.38,550.59,-3166.1400000000003
343,0.343000,69808,71422993,7513.38,-315.41,-2342.1400000000003
344,0.344000,69809,71423993,3112.38,-314.41,-2339.1400000000003
345,0.344999,69810,71424992,-3027.62,199.59,-3355.1400000000003
346,0.346000,69811,71425993,1101.38,112.59,-3817.1400000000003
347,0.347000,69812,71426993,9334.38,243.59,-4909.14
348,0.348000,69813,71427993,16318.38,144.59,-3449.1400000000003
349,0.349000,69814,71428993,17734.38,-189.41,-836.1400000000003
350,0.350000,69815,71429993,8105.38,501.59,-1089.1400000000003
351,0.351000,69816,71430993,-3606.62,739.59,909.8599999999997
352,0.352000,69817,71431993,-8880.62,290.59,4300.86
353,0.353000,69818,71432993,-6265.62,346.59,3386.8599999999997
354,0.354000,69819,71433993,452.38,-655.41,2736.8599999999997
355,0.355000,69820,71434993,4504.38,-1108.41,3748.8599999999997
356,0.356000,69821,71435993,1884.38,-15.41,1696.8599999999997
357,0.357000,69822,71436993,-3109.62,-245.41,316.8599999999997
358,0.358000,69823,71437993,-15028.62,-517.41,1830.8599999999997
359,0.359000,69824,71438993,-22830.62,-751.41,2676.8599999999997
360,0.360000,69825,71439993,-19012.62,-325.41,1943.8599999999997
361,0.360999,69826,71440992,-12781.62,29.59,2299.8599999999997
362,0.362000,69827,71441993,-2003.62,-38.41,3015.8599999999997
363,0.363000,69828,71442993,5516.38,-229.41,1537.8599999999997
364,0.363999,69829,71443992,6477.38,-159.41,20.859999999999673
365,0.365000,69830,71444993,3453.38,767.59,-1246.1400000000003
366,0.366000,69831,71445993,2989.38,1136.59,-2878.1400000000003
367,0.366999,69832,71446992,6619.38,738.59,-3067.1400000000003
368,0.367999,69833,71447992,7490.38,-281.41,-2322.1400000000003
369,0.368999,69834,71448992,4534.38,-389.41,-2413.1400000000003
370,0.370000,69835,71449993,-2228.62,56.59,-3160.1400000000003
371,0.370999,69836,71450992,-481.62,47.59,-3542.1400000000003
372,0.372000,69837,71451993,7284.38,519.59,-4970.14
373,0.373000,69838,71452993,15095.38,29.59,-4157.14
374,0.374000,69839,71453993,18780.38,-351.41,-1083.1400000000003
375,0.375000,69840,71454993,10555.38,342.59,-745.1400000000003
376,0.376000,69841,71455993,-2010.62,737.59,255.85999999999967
377,0.376999,69842,71456992,-9169.62,663.59,3371.8599999999997
378,0.378000,69843,71457993,-7533.62,-80.41,3785.8599999999997
379,0.379000,69844,71458993,-1076.62,-407.41,2680.8599999999997
380,0.380000,69845,71459993,4801.38,-728.41,3642.8599999999997
381,0.381000,69846,71460993,3550.38,-671.41,2608.8599999999997
382,0.382000,69847,71461993,-2703.62,112.59,234.85999999999967
383,0.383000,69848,71462993,-12326.62,-259.41,1498.8599999999997
384,0.384000,69849,71463993,-22071.62,-1107.41,2910.8599999999997
385,0.385000,69850,71464993,-20311.62,-246.41,2171.8599999999997
386,0.386000,69851,71465993,-13781.62,-55.41,2134.8599999999997
387,0.387000,69852,71466993,-3959.62,-217.41,3036.8599999999997
388,0.388000,69853,71467993,4584.38,30.59,1628.8599999999997
389,0.388999,69854,71468992,6331.38,-307.41,44.85999999999967
390,0.389999,69855,71469992,3817.38,585.59,-860.1400000000003
391,0.391000,69856,71470993,2703.38,1195.59,-2695.1400000000003
392,0.392000,69857,71471993,6408.38,722.59,-3184.1400000000003
393,0.393000,69858,71472993,7029.38,43.59,-2584.1400000000003
394,0.394000,69859,71473993,4842.38,-402.41,-2226.1400000000003
395,0.395000,69860,71474993,-328.62,-344.41,-2879.1400000000003
396,0.396000,69861,71475993,-1873.62,503.59,-3713.1400000000003
397,0.397000,69862,71476993,5665.38,392.59,-4667.14
398,0.398000,69863,71477993,14306.38,-279.41,-4226.14
399,0.399000,69864,71478993,18247.38,137.59,-1647.1400000000003
400,0.399999,69865,71479992,13310.38,13.59,-683.1400000000003
401,0.401000,69866,71480993,100.38,623.59,-116.14000000000033
402,0.402000,69867,71481993,-9052.62,978.59,2940.8599999999997
403,0.403000,69868,71482993,-7948.62,-85.41,3824.8599999999997
404,0.404000,69869,71483993,-1874.62,-266.41,2526.8599999999997
405,0.405000,69870,71484993,4161.38,-778.41,3806.8599999999997
406,0.406000,69871,71485993,4172.38,-821.41,3048.8599999999997
407,0.407000,69872,71486993,-2777.62,187.59,60.85999999999967
408,0.407999,69873,71487992,-10127.62,-437.41,1102.8599999999997
409,0.409000,69874,71488993,-19848.62,-1146.41,3332.8599999999997
410,0.410000,69875,71489993,-20585.62,-269.41,2658.8599999999997
411,0.410999,69876,71490992,-15588.62,-106.41,1583.8599999999997
412,0.411999,69877,71491992,-6203.62,-213.41,2657.8599999999997
413,0.413000,69878,71492993,3765.38,103.59,2262.8599999999997
414,0.414000,69879,71493993,5929.38,-178.41,348.8599999999997
415,0.414999,69880,71494992,4020.38,431.59,-879.1400000000003
416,0.416000,69881,71495993,2523.38,1054.59,-2536.1400000000003
417,0.417000,69882,71496993,6474.38,776.59,-3078.1400000000003
418,0.418000,69883,71497993,6637.38,259.59,-2672.1400000000003
419,0.418999,69884,71498992,5956.38,-399.41,-2312.1400000000003
420,0.420000,69885,71499993,1066.38,-277.41,-2794.1400000000003
421,0.420999,69886,71500992,-2667.62,369.59,-3461.1400000000003
422,0.422000,69887,71501993,3311.38,366.59,-4455.14
423,0.423000,69888,71502993,12691.38,-30.41,-4766.14
424,0.424000,69889,71503993,19295.38,-151.41,-1887.1400000000003
425,0.425000,69890,71504993,14967.38,12.59,-389.1400000000003
426,0.426000,69891,71505993,2468.38,584.59,-495.1400000000003
427,0.426999,69892,71506992,-8655.62,961.59,1989.8599999999997
428,0.428000,69893,71507993,-8999.62,16.59,4233.86
429,0.429000,69894,71508993,-3020.62,-288.41,3055.8599999999997
430,0.430000,69895,71509993,3277.38,-605.41,3173.8599999999997
431,0.431000,69896,71510993,4712.38,-957.41,3315.8599999999997
432,0.432000,69897,71511993,-1656.62,-63.41,514.8599999999997
433,0.433000,69898,71512993,-8430.62,-98.41,724.8599999999997
434,0.434000,69899,71513993,-17909.62,-1243.41,3191.8599999999997
435,0.435000,69900,71514993,-20669.62,-541.41,2767.8599999999997
436,0.436000,69901,71515993,-18008.62,401.59,1466.8599999999997
437,0.437000,69902,71516993,-8104.62,-413.41,2761.8599999999997
438,0.438000,69903,71517993,3167.38,111.59,2405.8599999999997
439,0.439000,69904,71518993,6117.38,87.59,494.8599999999997
440,0.440000,69905,71519993,4924.38,11.59,-486.1400000000003
441,0.441000,69906,71520993,2584.38,876.59,-2112.1400000000003
442,0.442000,69907,71521993,4891.38,1057.59,-3082.1400000000003
443,0.442999,69908,71522992,6950.38,382.59,-2831.1400000000003
444,0.443999,69909,71523992,6640.38,-482.41,-2164.1400000000003
445,0.445000,69910,71524993,1746.38,-282.41,-2706.1400000000003
446,0.446000,69911,71525993,-3295.62,397.59,-3590.1400000000003
447,0.447000,69912,71526993,2033.38,300.59,-4106.14
448,0.448000,69913,71527993,11298.38,39.59,-4791.14
449,0.449000,69914,71528993,18612.38,-76.41,-2478.1400000000003
450,0.450000,69915,71529993,16626.38,-212.41,-558.1400000000003
451,0.451000,69916,71530993,4126.38,603.59,-839.1400000000003
452,0.452000,69917,71531993,-6917.62,1006.59,1668.8599999999997
453,0.453000,69918,71532993,-9092.62,98.59,4197.86
454,0.453999,69919,71533992,-3752.62,-253.41,3206.8599999999997
455,0.455000,69920,71534993,2009.38,-466.41,2959.8599999999997
456,0.455999,69921,71535992,4722.38,-1050.41,3521.8599999999997
457,0.457000,69922,71536993,-275.62,-222.41,919.8599999999997
458,0.458000,69923,71537993,-6673.62,95.59,427.8599999999997
459,0.459000,69924,71538993,-16101.62,-1154.41,2819.8599999999997
460,0.460000,69925,71539993,-20838.62,-684.41,3014.8599999999997
461,0.461000,69926,71540993,-18938.62,486.59,1623.8599999999997
462,0.462000,69927,71541993,-10614.62,-303.41,2333.8599999999997
463,0.462999,69928,71542992,1557.38,-32.41,2921.8599999999997
464,0.464000,69929,71543993,5856.38,30.59,911.8599999999997
465,0.465000,69930,71544993,5514.38,-152.41,-381.1400000000003
466,0.466000,69931,71545993,2639.38,797.59,-1808.1400000000003
467,0.467000,69932,71546993,3773.38,1052.59,-3073.1400000000003
468,0.468000,69933,71547993,7071.38,535.59,-3002.1400000000003
469,0.468999,69934,71548992,7079.38,-502.41,-2347.1400000000003
470,0.470000,69935,71549993,2775.38,-339.41,-2625.1400000000003
471,0.471000,69936,71550993,-3166.62,238.59,-3486.1400000000003
472,0.471999,69937,71551992,1124.38,188.59,-3718.1400000000003
473,0.473000,69938,71552993,10104.38,321.59,-4863.14
474,0.474000,69939,71553993,17175.38,81.59,-3407.1400000000003
475,0.475000,69940,71554993,18214.38,-374.41,-546.1400000000003
476,0.476000,69941,71555993,6663.38,588.59,-543.1400000000003
477,0.477000,69942,71556993,-4920.62,1086.59,1089.8599999999997
478,0.478000,69943,71557993,-9044.62,110.59,4063.8599999999997
479,0.479000,69944,71558993,-6660.62,105.59,3255.8599999999997
480,0.480000,69945,71559993,1198.38,-639.41,2943.8599999999997
481,0.481000,69946,71560993,5056.38,-910.41,3611.8599999999997
482,0.481999,69947,71561992,1182.38,-60.41,1318.8599999999997
483,0.483000,69948,71562993,-3425.62,-566.41,741.8599999999997
484,0.484000,69949,71563993,-15800.62,-623.41,2011.8599999999997
485,0.485000,69950,71564993,-23293.62,-800.41,2614.8599999999997
486,0.486000,69951,71565993,-19175.62,-90.41,2014.8599999999997
487,0.487000,69952,71566993,-12381.62,337.59,2078.8599999999997
488,0.488000,69953,71567993,-443.62,-311.41,2843.8599999999997
489,0.489000,69954,71568993,6458.38,-339.41,1299.8599999999997
490,0.490000,69955,71569993,6502.38,142.59,16.859999999999673
491,0.491000,69956,71570993,3269.38,732.59,-1044.1400000000003
492,0.492000,69957,71571993,2540.38,1211.59,-2972.1400000000003
493,0.493000,69958,71572993,6891.38,624.59,-3189.1400000000003
494,0.494000,69959,71573993,7791.38,-462.41,-2063.1400000000003
495,0.495000,69960,71574993,3925.38,-192.41,-2238.1400000000003
496,0.496000,69961,71575993,-2955.62,278.59,-3497.1400000000003
497,0.497000,69962,71576993,183.38,127.59,-3943.1400000000003
498,0.498000,69963,71577993,8907.38,45.59,-4815.14
499,0.499000,69964,71578993,15715.38,49.59,-3635.1400000000003
500,0.500000,69965,71579993,17840.38,-173.41,-1019.1400000000003
501,0.501000,69966,71580993,9009.38,212.59,-884.1400000000003
502,0.502000,69967,71581993,-3209.62,963.59,424.8599999999997
503,0.503000,69968,71582993,-9318.62,538.59,3730.8599999999997
504,0.503999,69969,71583992,-6122.62,-245.41,3614.8599999999997
505,0.505000,69970,71584993,-240.62,-195.41,2710.8599999999997
506,0.506000,69971,71585993,5125.38,-938.41,4032.8599999999997
507,0.507000,69972,71586993,2551.38,-466.41,2048.8599999999997
508,0.508000,69973,71587993,-3959.62,102.59,148.85999999999967
509,0.509000,69974,71588993,-13893.62,-565.41,1863.8599999999997
510,0.510000,69975,71589993,-22519.62,-790.41,3002.8599999999997
511,0.511000,69976,71590993,-18499.62,-356.41,2309.8599999999997
512,0.512000,69977,71591993,-12303.62,-192.41,2088.8599999999997
513,0.513000,69978,71592993,-3349.62,-82.41,2649.8599999999997
514,0.514000,69979,71593993,4589.38,-191.41,1589.8599999999997
515,0.514999,69980,71594992,5531.38,-163.41,-60.14000000000033
516,0.516000,69981,71595993,3246.38,847.59,-1353.1400000000003
517,0.517000,69982,71596993,3630.38,866.59,-2714.1400000000003
518,0.518000,69983,71597993,7118.38,747.59,-3060.1400000000003
519,0.519000,69984,71598993,7180.38,12.59,-2380.1400000000003
520,0.520000,69985,71599993,4887.38,-388.41,-2355.1400000000003
521,0.521000,69986,71600993,-1426.62,26.59,-3171.1400000000003
522,0.522000,69987,71601993,-1332.62,116.59,-3435.1400000000003
523,0.523000,69988,71602993,6332.38,271.59,-4537.14
524,0.524000,69989,71603993,14708.38,258.59,-4353.14
525,0.525000,69990,71604993,18640.38,-215.41,-1331.1400000000003
526,0.526000,69991,71605993,11710.38,13.59,-316.1400000000003
527,0.526999,69992,71606992,-930.62,784.59,-28.140000000000327
528,0.528000,69993,71607993,-9114.62,554.59,2821.8599999999997
529,0.528999,69994,71608992,-8974.62,235.59,3768.8599999999997
530,0.530000,69995,71609993,-1560.62,-394.41,2878.8599999999997
531,0.531000,69996,71610993,5186.38,-867.41,3471.8599999999997
532,0.532000,69997,71611993,3390.38,-498.41,2485.8599999999997
533,0.533000,69998,71612993,-2149.62,-102.41,559.8599999999997
534,0.534000,69999,71613993,-10639.62,-201.41,1432.8599999999997
535,0.535000,70000,71614993,-20672.62,-931.41,3149.8599999999997
536,0.536000,70001,71615993,-20445.62,-484.41,2342.8599999999997
537,0.537000,70002,71616993,-14559.62,32.59,1897.8599999999997
538,0.538000,70003,71617993,-4836.62,-275.41,3162.8599999999997
539,0.539000,70004,71618993,4300.38,-18.41,1728.8599999999997
540,0.540000,70005,71619993,6023.38,-76.41,-130.14000000000033
541,0.540999,70006,71620992,3770.38,309.59,-1025.1400000000003
542,0.542000,70007,71621993,2402.38,926.59,-2559.1400000000003
543,0.543000,70008,71622993,5590.38,943.59,-3177.1400000000003
544,0.544000,70009,71623993,6762.38,162.59,-2772.1400000000003
545,0.545000,70010,71624993,5663.38,-544.41,-2106.1400000000003
546,0.546000,70011,71625993,839.38,-172.41,-2666.1400000000003
547,0.547000,70012,71626993,-2083.62,461.59,-3457.1400000000003
548,0.548000,70013,71627993,3504.38,492.59,-4302.14
549,0.549000,70014,71628993,12936.38,46.59,-4370.14
550,0.550000,70015,71629993,18863.38,-131.41,-1731.1400000000003
551,0.551000,70016,71630993,14147.38,94.59,-525.1400000000003
552,0.552000,70017,71631993,1811.38,616.59,-245.14000000000033
553,0.553000,70018,71632993,-8241.62,826.59,2447.8599999999997
554,0.554000,70019,71633993,-8718.62,44.59,3961.8599999999997
555,0.555000,70020,71634993,-2729.62,-435.41,2831.8599999999997
556,0.555999,70021,71635992,3208.38,-845.41,3118.8599999999997
557,0.557000,70022,71636993,4137.38,-776.41,2943.8599999999997
558,0.557999,70023,71637992,-1588.62,-69.41,350.8599999999997
559,0.559000,70024,71638993,-8423.62,-258.41,599.8599999999997
560,0.560000,70025,71639993,-17917.62,-1126.41,2988.8599999999997
561,0.560999,70026,71640992,-20388.62,-505.41,2795.8599999999997
562,0.562000,70027,71641993,-17287.62,301.59,1682.8599999999997
563,0.563000,70028,71642993,-7747.62,-251.41,2811.8599999999997
564,0.564000,70029,71643993,3577.38,84.59,2621.8599999999997
565,0.565000,70030,71644993,5987.38,-7.41,684.8599999999997
566,0.566000,70031,71645993,4655.38,203.59,-616.1400000000003
567,0.567000,70032,71646993,2332.38,938.59,-2244.1400000000003
568,0.568000,70033,71647993,4675.38,944.59,-3119.1400000000003
569,0.569000,70034,71648993,6801.38,314.59,-2877.1400000000003
570,0.570000,70035,71649993,6085.38,-451.41,-2290.1400000000003
571,0.571000,70036,71650993,1888.38,-448.41,-2655.1400000000003
572,0.572000,70037,71651993,-3305.62,438.59,-3548.1400000000003
573,0.573000,70038,71652993,1732.38,562.59,-4253.14
574,0.574000,70039,71653993,12060.38,-194.41,-4658.14
575,0.575000,70040,71654993,18597.38,-129.41,-2447.1400000000003
576,0.576000,70041,71655993,16393.38,24.59,-514.1400000000003
577,0.576999,70042,71656992,4321.38,524.59,-517.1400000000003
578,0.578000,70043,71657993,-7079.62,1039.59,1707.8599999999997
579,0.579000,70044,71658993,-9233.62,187.59,4073.8599999999997
580,0.579999,70045,71659992,-3738.62,-359.41,3209.8599999999997
581,0.581000,70046,71660993,2499.38,-593.41,3181.8599999999997
582,0.582000,70047,71661993,4788.38,-734.41,3373.8599999999997
583,0.583000,70048,71662993,-58.620000000000005,-159.41,943.8599999999997
584,0.584000,70049,71663993,-6567.62,-271.41,687.8599999999997
585,0.584999,70050,71664992,-16746.62,-1155.41,2541.8599999999997
586,0.585999,70051,71665992,-21386.62,-664.41,2672.8599999999997
587,0.587000,70052,71666993,-18858.62,347.59,1681.8599999999997
588,0.588000,70053,71667993,-10757.62,-163.41,2178.8599999999997
589,0.589000,70054,71668993,1765.38,-68.41,2455.8599999999997
590,0.590000,70055,71669993,6253.38,-142.41,904.8599999999997
591,0.591000,70056,71670993,5625.38,78.59,-67.14000000000033
592,0.592000,70057,71671993,2538.38,948.59,-1480.1400000000003
593,0.593000,70058,71672993,3822.38,942.59,-3004.1400000000003
594,0.593999,70059,71673992,7170.38,532.59,-2935.1400000000003
595,0.595000,70060,71674993,7182.38,-346.41,-1991.1400000000003
596,0.596000,70061,71675993,2942.38,-363.41,-2500.1400000000003
597,0.597000,70062,71676993,-3403.62,492.59,-3796.1400000000003
598,0.598000,70063,71677993,1530.38,162.59,-3858.1400000000003
599,0.599000,70064,71678993,10089.38,64.59,-4687.14
600,0.600000,70065,71679993,16988.38,51.59,-3260.1400000000003
601,0.600999,70066,71680992,17691.38,-445.41,-607.1400000000003
602,0.602000,70067,71681993,6435.38,525.59,-710.1400000000003
603,0.603000,70068,71682993,-4904.62,1031.59,1102.8599999999997
604,0.604000,70069,71683993,-9300.62,155.59,3869.8599999999997
605,0.605000,70070,71684993,-5578.62,-110.41,3234.8599999999997
606,0.605999,70071,71685992,1146.38,-414.41,2918.8599999999997
607,0.607000,70072,71686993,4464.38,-1001.41,3575.8599999999997
608,0.608000,70073,71687993,1254.38,-338.41,1479.8599999999997
609,0.609000,70074,71688993,-4021.62,-225.41,636.8599999999997
610,0.609999,70075,71689992,-16050.62,-597.41,2188.8599999999997
611,0.611000,70076,71690993,-22103.62,-760.41,2840.8599999999997
612,0.612000,70077,71691993,-18683.62,-25.41,1964.8599999999997
613,0.613000,70078,71692993,-12177.62,95.59,2183.8599999999997
614,0.614000,70079,71693993,-253.62,-322.41,3000.8599999999997
615,0.615000,70080,71694993,5562.38,-58.41,1067.8599999999997
616,0.616000,70081,71695993,6386.38,-23.41,-147.14000000000033
617,0.617000,70082,71696993,2924.38,646.59,-1293.1400000000003
618,0.617999,70083,71697992,3108.38,1165.59,-3148.1400000000003
619,0.619000,70084,71698993,7338.38,529.59,-2985.1400000000003
620,0.620000,70085,71699993,7252.38,-303.41,-2122.1400000000003
621,0.621000,70086,71700993,3474.38,-262.41,-2557.1400000000003
622,0.622000,70087,71701993,-3244.62,207.59,-3587.1400000000003
623,0.623000,70088,71702993,615.38,45.59,-3451.1400000000003
624,0.624000,70089,71703993,9033.38,178.59,-4508.14
625,0.624999,70090,71704992,15666.38,320.59,-3868.1400000000003
626,0.626000,70091,71705993,18231.38,-421.41,-1059.1400000000003
627,0.627000,70092,71706993,8454.38,311.59,-738.1400000000003
628,0.627999,70093,71707992,-3102.62,886.59,740.8599999999997
629,0.628999,70094,71708992,-9193.62,447.59,3501.8599999999997
630,0.630000,70095,71709993,-6906.62,137.59,3381.8599999999997
631,0.631000,70096,71710993,202.38,-741.41,2881.8599999999997
632,0.632000,70097,71711993,4795.38,-565.41,3499.8599999999997
633,0.633000,70098,71712993,2519.38,-264.41,1942.8599999999997
634,0.634000,70099,71713993,-1997.62,-544.41,753.8599999999997
635,0.635000,70100,71714993,-14212.62,-16.41,1778.8599999999997
636,0.636000,70101,71715993,-23174.62,-932.41,2634.8599999999997
637,0.637000,70102,71716993,-18874.62,-512.41,2144.8599999999997
638,0.638000,70103,71717993,-13441.62,341.59,2298.8599999999997
639,0.638999,70104,71718992,-2542.62,-474.41,3048.8599999999997
640,0.639999,70105,71719992,5132.38,-128.41,1135.8599999999997
641,0.641000,70106,71720993,6103.38,64.59,20.859999999999673
642,0.642000,70107,71721993,3674.38,365.59,-824.1400000000003
643,0.643000,70108,71722993,2488.38,1322.59,-2953.1400000000003
644,0.644000,70109,71723993,6509.38,740.59,-3300.1400000000003
645,0.645000,70110,71724993,7585.38,-320.41,-2355.1400000000003
646,0.646000,70111,71725993,4383.38,-241.41,-2029.1400000000003
647,0.646999,70112,71726992,-1072.62,-113.41,-3132.1400000000003
648,0.648000,70113,71727993,-1075.62,293.59,-3846.1400000000003
649,0.649000,70114,71728993,6401.38,256.59,-4592.14
650,0.650000,70115,71729993,15044.38,-57.41,-4030.1400000000003
651,0.651000,70116,71730993,18635.38,107.59,-1313.1400000000003
652,0.652000,70117,71731993,11213.38,158.59,-699.1400000000003
653,0.652999,70118,71732992,-597.62,487.59,131.85999999999967
654,0.654000,70119,71733993,-9183.62,747.59,3145.8599999999997
655,0.655000,70120,71734993,-7889.62,133.59,3823.8599999999997
656,0.656000,70121,71735993,-1105.62,-527.41,2742.8599999999997
657,0.657000,70122,71736993,4091.38,-860.41,3548.8599999999997
658,0.658000,70123,71737993,3636.38,-535.41,2571.8599999999997
659,0.659000,70124,71738993,-3194.62,25.59,22.859999999999673
660,0.660000,70125,71739993,-11103.62,-314.41,1438.8599999999997
661,0.661000,70126,71740993,-20774.62,-961.41,3298.8599999999997
662,0.661999,70127,71741992,-20068.62,-350.41,2322.8599999999997
663,0.663000,70128,71742993,-14052.62,-156.41,2036.8599999999997
664,0.664000,70129,71743993,-5042.62,-139.41,3047.8599999999997
665,0.665000,70130,71744993,4086.38,235.59,1956.8599999999997
666,0.666000,70131,71745993,6104.38,-320.41,264.8599999999997
667,0.667000,70132,71746993,3826.38,450.59,-1086.1400000000003
668,0.668000,70133,71747993,2813.38,1131.59,-2658.1400000000003
669,0.669000,70134,71748993,6499.38,685.59,-3016.1400000000003
670,0.670000,70135,71749993,6923.38,216.59,-2812.1400000000003
671,0.670999,70136,71750992,4867.38,-351.41,-2548.1400000000003
672,0.671999,70137,71751992,442.38,-608.41,-2846.1400000000003
673,0.672999,70138,71752992,-2570.62,570.59,-3433.1400000000003
674,0.674000,70139,71753993,4004.38,586.59,-4383.14
675,0.675000,70140,71754993,13867.38,-390.41,-4493.14
676,0.676000,70141,71755993,18693.38,92.59,-1797.1400000000003
677,0.677000,70142,71756993,14239.38,80.59,-357.1400000000003
678,0.678000,70143,71757993,885.38,603.59,-234.14000000000033
679,0.679000,70144,71758993,-8684.62,967.59,2529.8599999999997
680,0.680000,70145,71759993,-8773.62,33.59,3932.8599999999997
681,0.681000,70146,71760993,-2402.62,-353.41,2862.8599999999997
682,0.682000,70147,71761993,4140.38,-798.41,3533.8599999999997
683,0.683000,70148,71762993,4303.38,-621.41,2981.8599999999997
684,0.683999,70149,71763992,-1525.62,-45.41,368.8599999999997
685,0.685000,70150,71764993,-8819.62,-331.41,775.8599999999997
686,0.686000,70151,71765993,-18317.62,-1142.41,3018.8599999999997
687,0.686999,70152,71766992,-20775.62,-524.41,2731.8599999999997
688,0.688000,70153,71767993,-17199.62,180.59,1484.8599999999997
689,0.689000,70154,71768993,-7523.62,-227.41,2564.8599999999997
690,0.690000,70155,71769993,3386.38,123.59,2335.8599999999997
691,0.691000,70156,71770993,5908.38,-130.41,448.8599999999997
692,0.692000,70157,71771993,4569.38,246.59,-578.1400000000003
693,0.693000,70158,71772993,2508.38,982.59,-2108.1400000000003
694,0.694000,70159,71773993,4924.38,939.59,-2970.1400000000003
695,0.695000,70160,71774993,7114.38,352.59,-2742.1400000000003
696,0.696000,70161,71775993,6105.38,-342.41,-2257.1400000000003
697,0.697000,70162,71776993,1682.38,-495.41,-2483.1400000000003
698,0.698000,70163,71777993,-3096.62,434.59,-3491.1400000000003
699,0.699000,70164,71778993,2183.38,676.59,-4365.14
700,0.699999,70165,71779992,12210.38,-324.41,-4720.14
701,0.700999,70166,71780992,18850.38,-174.41,-2366.1400000000003
702,0.702000,70167,71781993,16079.38,182.59,-613.1400000000003
703,0.702999,70168,71782992,4087.38,388.59,-666.1400000000003
704,0.704000,70169,71783993,-7604.62,948.59,1714.8599999999997
705,0.705000,70170,71784993,-9418.62,286.59,3969.8599999999997
706,0.706000,70171,71785993,-3140.62,-517.41,3102.8599999999997
707,0.707000,70172,71786993,2023.38,-596.41,2994.8599999999997
708,0.708000,70173,71787993,4602.38,-662.41,3522.8599999999997
709,0.709000,70174,71788993,-186.62,-217.41,930.8599999999997
710,0.710000,70175,71789993,-7614.62,-174.41,448.8599999999997
711,0.710999,70176,71790992,-16513.62,-1144.41,2887.8599999999997
712,0.712000,70177,71791993,-20802.62,-646.41,3110.8599999999997
713,0.713000,70178,71792993,-18580.62,351.59,1940.8599999999997
714,0.713999,70179,71793992,-9904.62,-238.41,2253.8599999999997
715,0.715000,70180,71794993,1616.38,52.59,2438.8599999999997
716,0.716000,70181,71795993,5972.38,-168.41,906.8599999999997
717,0.716999,70182,71796992,5005.38,-7.41,-464.1400000000003
718,0.718000,70183,71797993,2396.38,1030.59,-2075.1400000000003
719,0.719000,70184,71798993,4430.38,797.59,-3000.1400000000003
720,0.720000,70185,71799993,7250.38,527.59,-2900.1400000000003
721,0.721000,70186,71800993,7492.38,-395.41,-2233.1400000000003
722,0.722000,70187,71801993,2355.38,-335.41,-2595.1400000000003
723,0.723000,70188,71802993,-3370.62,482.59,-3486.1400000000003
724,0.724000,70189,71803993,1783.38,105.59,-3704.1400000000003
725,0.725000,70190,71804993,10358.38,240.59,-4921.14
726,0.726000,70191,71805993,17792.38,-55.41,-3008.1400000000003
727,0.727000,70192,71806993,17617.38,-201.41,-522.1400000000003
728,0.728000,70193,71807993,6340.38,467.59,-746.1400000000003
729,0.729000,70194,71808993,-6123.62,899.59,1325.8599999999997
730,0.730000,70195,71809993,-9544.62,256.59,3969.8599999999997
731,0.731000,70196,71810993,-5359.62,-258.41,3186.8599999999997
732,0.732000,70197,71811993,735.38,-362.41,2816.8599999999997
733,0.733000,70198,71812993,5508.38,-1084.41,3762.8599999999997
734,0.734000,70199,71813993,1300.38,-176.41,1265.8599999999997
735,0.735000,70200,71814993,-5315.62,-109.41,357.8599999999997
736,0.736000,70201,71815993,-15552.62,-1142.41,2537.8599999999997
737,0.737000,70202,71816993,-22069.62,-443.41,2724.8599999999997
738,0.738000,70203,71817993,-19656.62,277.59,1935.8599999999997
739,0.739000,70204,71818993,-11635.62,-134.41,2328.8599999999997
740,0.740000,70205,71819993,663.38,-62.41,2954.8599999999997
741,0.740999,70206,71820992,6127.38,-334.41,1296.8599999999997
742,0.742000,70207,71821993,6227.38,-21.41,-293.1400000000003
743,0.743000,70208,71822993,2659.38,988.59,-1551.1400000000003
744,0.744000,70209,71823993,3121.38,889.59,-2994.1400000000003
745,0.745000,70210,71824993,6640.38,713.59,-3157.1400000000003
746,0.746000,70211,71825993,7481.38,-391.41,-2364.1400000000003
747,0.746999,70212,71826992,3520.38,-459.41,-2464.1400000000003
748,0.748000,70213,71827993,-3480.62,445.59,-3329.1400000000003
749,0.749000,70214,71828993,1087.38,-59.41,-3661.1400000000003
750,0.750000,70215,71829993,8830.38,327.59,-5084.14
751,0.751000,70216,71830993,16640.38,140.59,-3341.1400000000003
752,0.752000,70217,71831993,18510.38,-417.41,-488.1400000000003
753,0.753000,70218,71832993,8002.38,670.59,-1172.1400000000003
754,0.754000,70219,71833993,-3552.62,738.59,665.8599999999997
755,0.755000,70220,71834993,-9535.62,176.59,3963.8599999999997
756,0.756000,70221,71835993,-6425.62,162.59,3445.8599999999997
757,0.757000,70222,71836993,187.38,-571.41,2754.8599999999997
758,0.758000,70223,71837993,4747.38,-1010.41,3634.8599999999997
759,0.759000,70224,71838993,2121.38,-245.41,1801.8599999999997
760,0.760000,70225,71839993,-3000.62,-148.41,348.8599999999997
761,0.760999,70226,71840992,-14759.62,-348.41,1868.8599999999997
762,0.762000,70227,71841993,-22651.62,-930.41,2819.8599999999997
763,0.763000,70228,71842993,-18852.62,-256.41,2161.8599999999997
764,0.764000,70229,71843993,-13054.62,211.59,2146.8599999999997
765,0.765000,70230,71844993,-1957.62,-258.41,3087.8599999999997
766,0.766000,70231,71845993,5143.38,-107.41,1574.8599999999997
767,0.767000,70232,71846993,6508.38,-112.41,-14.140000000000327
768,0.768000,70233,71847993,3628.38,538.59,-1097.1400000000003
769,0.769000,70234,71848993,2871.38,1196.59,-2935.1400000000003
770,0.770000,70235,71849993,6537.38,656.59,-3176.1400000000003
771,0.771000,70236,71850993,7114.38,-233.41,-2580.1400000000003
772,0.772000,70237,71851993,4372.38,-428.41,-2548.1400000000003
773,0.772999,70238,71852992,-2339.62,18.59,-3234.1400000000003
774,0.773999,70239,71853992,-309.62,231.59,-3506.1400000000003
775,0.775000,70240,71854993,7543.38,168.59,-4819.14
776,0.776000,70241,71855993,14996.38,260.59,-4088.1400000000003
777,0.777000,70242,71856993,18933.38,-326.41,-842.1400000000003
778,0.778000,70243,71857993,10446.38,238.59,-794.1400000000003
779,0.778999,70244,71858992,-1786.62,965.59,174.85999999999967
780,0.780000,70245,71859993,-9339.62,307.59,3423.8599999999997
781,0.781000,70246,71860993,-7492.62,442.59,3562.8599999999997
782,0.782000,70247,71861993,-641.62,-463.41,2794.8599999999997
783,0.782999,70248,71862992,4534.38,-1181.41,3661.8599999999997
784,0.783999,70249,71863992,3796.38,-302.41,2544.8599999999997
785,0.785000,70250,71864993,-2561.62,-106.41,415.8599999999997
786,0.786000,70251,71865993,-12645.62,-295.41,1416.8599999999997
787,0.787000,70252,71866993,-22118.62,-874.41,2863.8599999999997
788,0.788000,70253,71867993,-20066.62,-622.41,2145.8599999999997
789,0.789000,70254,71868993,-13986.62,-16.41,2128.8599999999997
790,0.790000,70255,71869993,-4253.62,-31.41,2903.8599999999997
791,0.791000,70256,71870993,4760.38,-150.41,1611.8599999999997
792,0.792000,70257,71871993,6168.38,-83.41,231.85999999999967
793,0.793000,70258,71872993,3839.38,420.59,-807.1400000000003
794,0.794000,70259,71873993,2808.38,1241.59,-2647.1400000000003
795,0.795000,70260,71874993,6104.38,824.59,-3051.1400000000003
796,0.795999,70261,71875992,6963.38,-51.41,-2590.1400000000003
797,0.797000,70262,71876993,5529.38,-345.41,-2423.1400000000003
798,0.798000,70263,71877993,-35.620000000000005,-324.41,-2799.1400000000003
799,0.799000,70264,71878993,-2320.62,443.59,-3361.1400000000003
800,0.799999,70265,71879992,5016.38,401.59,-4675.14
801,0.801000,70266,71880993,14178.38,-121.41,-4663.14
802,0.802000,70267,71881993,18835.38,-82.41,-1559.1400000000003
803,0.803000,70268,71882993,13193.38,62.59,-370.1400000000003
804,0.804000,70269,71883993,434.38,737.59,-425.1400000000003
805,0.805000,70270,71884993,-8571.62,858.59,2527.8599999999997
806,0.806000,70271,71885993,-8352.62,-263.41,3965.8599999999997
807,0.807000,70272,71886993,-2359.62,-31.41,2708.8599999999997
808,0.808000,70273,71887993,4177.38,-787.41,3595.8599999999997
809,0.809000,70274,71888993,3889.38,-1029.41,2959.8599999999997
810,0.810000,70275,71889993,-2463.62,280.59,281.8599999999997
811,0.811000,70276,71890993,-9636.62,-379.41,1204.8599999999997
812,0.812000,70277,71891993,-19493.62,-1119.41,3292.8599999999997
813,0.813000,70278,71892993,-20648.62,-250.41,2572.8599999999997
814,0.814000,70279,71893993,-16223.62,-80.41,1665.8599999999997
815,0.815000,70280,71894993,-6379.62,-301.41,2824.8599999999997
816,0.816000,70281,71895993,4014.38,304.59,2322.8599999999997
817,0.817000,70282,71896993,5735.38,-100.41,267.8599999999997
818,0.818000,70283,71897993,4172.38,329.59,-796.1400000000003
819,0.818999,70284,71898992,3255.38,965.59,-2212.1400000000003
820,0.820000,70285,71899993,5733.38,888.59,-3153.1400000000003
821,0.821000,70286,71900993,6799.38,306.59,-2717.1400000000003
822,0.821999,70287,71901992,5896.38,-607.41,-2283.1400000000003
823,0.823000,70288,71902993,974.38,-169.41,-3005.1400000000003
824,0.824000,70289,71903993,-2326.62,190.59,-3313.1400000000003
825,0.825000,70290,71904993,2615.38,361.59,-4462.14
826,0.826000,70291,71905993,12586.38,188.59,-4943.14
827,0.827000,70292,71906993,19324.38,-390.41,-1792.1400000000003
828,0.828000,70293,71907993,15323.38,-87.41,-602.1400000000003
829,0.829000,70294,71908993,2085.38,928.59,-719.1400000000003
830,0.830000,70295,71909993,-7836.62,822.59,2325.8599999999997
831,0.831000,70296,71910993,-8657.62,-84.41,4103.86
832,0.832000,70297,71911993,-3899.62,210.59,2683.8599999999997
833,0.833000,70298,71912993,3771.38,-948.41,3503.8599999999997
834,0.834000,70299,71913993,4775.38,-751.41,3481.8599999999997
835,0.835000,70300,71914993,-1616.62,205.59,719.8599999999997
836,0.836000,70301,71915993,-7582.62,-673.41,1061.8599999999997
837,0.837000,70302,71916993,-17507.62,-1036.41,2854.8599999999997
838,0.838000,70303,71917993,-21499.62,-399.41,2755.8599999999997
839,0.839000,70304,71918993,-18380.62,159.59,1607.8599999999997
840,0.840000,70305,71919993,-8593.62,-284.41,2356.8599999999997
841,0.841000,70306,71920993,2673.38,-133.41,2365.8599999999997
842,0.842000,70307,71921993,5821.38,-69.41,288.8599999999997
843,0.843000,70308,71922993,4974.38,285.59,-535.1400000000003
844,0.844000,70309,71923993,2800.38,791.59,-1793.1400000000003
845,0.845000,70310,71924993,4469.38,961.59,-3160.1400000000003
846,0.846000,70311,71925993,7010.38,624.59,-3078.1400000000003
847,0.847000,70312,71926993,7827.38,-696.41,-1795.1400000000003
848,0.848000,70313,71927993,1890.38,-183.41,-2375.1400000000003
849,0.849000,70314,71928993,-3253.62,599.59,-3671.1400000000003
850,0.850000,70315,71929993,2144.38,96.59,-4149.14
851,0.850999,70316,71930992,10927.38,205.59,-4736.14
852,0.851999,70317,71931992,18670.38,-203.41,-2493.1400000000003
853,0.853000,70318,71932993,16804.38,-150.41,-701.1400000000003
854,0.854000,70319,71933993,4307.38,670.59,-804.1400000000003
855,0.855000,70320,71934993,-6300.62,606.59,1570.8599999999997
856,0.856000,70321,71935993,-9521.62,249.59,3920.8599999999997
857,0.857000,70322,71936993,-4622.62,-211.41,3081.8599999999997
858,0.858000,70323,71937993,1988.38,-616.41,2994.8599999999997
859,0.859000,70324,71938993,4485.38,-884.41,3318.8599999999997
860,0.859999,70325,71939992,292.38,-324.41,1029.8599999999997
861,0.861000,70326,71940993,-6379.62,-38.41,635.8599999999997
862,0.862000,70327,71941993,-16735.62,-981.41,2737.8599999999997
863,0.863000,70328,71942993,-21101.62,-514.41,3053.8599999999997
864,0.864000,70329,71943993,-18727.62,394.59,1931.8599999999997
865,0.865000,70330,71944993,-10593.62,-217.41,2513.8599999999997
866,0.866000,70331,71945993,1605.38,-61.41,2965.8599999999997
867,0.867000,70332,71946993,5925.38,42.59,971.8599999999997
868,0.868000,70333,71947993,5818.38,-58.41,-377.1400000000003
869,0.869000,70334,71948993,2357.38,741.59,-1807.1400000000003
870,0.870000,70335,71949993,3616.38,907.59,-3306.1400000000003
871,0.871000,70336,71950993,7052.38,621.59,-3118.1400000000003
872,0.872000,70337,71951993,7406.38,-607.41,-2281.1400000000003
873,0.873000,70338,71952993,2620.38,-372.41,-2836.1400000000003
874,0.873999,70339,71953992,-3506.62,613.59,-3747.1400000000003
875,0.875000,70340,71954993,1747.38,-349.41,-3541.1400000000003
876,0.875999,70341,71955992,9786.38,437.59,-4702.14
877,0.877000,70342,71956993,17459.38,19.59,-3166.1400000000003
878,0.878000,70343,71957993,17589.38,-546.41,-613.1400000000003
879,0.879000,70344,71958993,6088.38,1092.59,-963.1400000000003
880,0.880000,70345,71959993,-4270.62,652.59,1368.8599999999997
881,0.881000,70346,71960993,-9204.62,351.59,3910.8599999999997
882,0.882000,70347,71961993,-5688.62,194.59,3282.8599999999997
883,0.883000,70348,71962993,1283.38,-861.41,3217.8599999999997
884,0.883999,70349,71963992,4413.38,-624.41,3541.8599999999997
885,0.885000,70350,71964993,1519.38,-248.41,1628.8599999999997
886,0.886000,70351,71965993,-3422.62,-471.41,549.8599999999997
887,0.886999,70352,71966992,-15893.62,-383.41,1944.8599999999997
888,0.888000,70353,71967993,-22686.62,-1009.41,2779.8599999999997
889,0.889000,70354,71968993,-19117.62,-189.41,1737.8599999999997
890,0.890000,70355,71969993,-12853.62,356.59,1853.8599999999997
891,0.891000,70356,71970993,-946.62,-530.41,2921.8599999999997
892,0.892000,70357,71971993,5809.38,-230.41,1155.8599999999997
893,0.893000,70358,71972993,6848.38,141.59,-106.14000000000033
894,0.894000,70359,71973993,3158.38,446.59,-1075.1400000000003
895,0.895000,70360,71974993,3178.38,1243.59,-2905.1400000000003
896,0.896000,70361,71975993,6871.38,908.59,-3085.1400000000003
897,0.896999,70362,71976992,7644.38,-419.41,-2153.1400000000003
898,0.898000,70363,71977993,3691.38,-121.41,-2228.1400000000003
899,0.899000,70364,71978993,-2727.62,29.59,-3280.1400000000003
900,0.900000,70365,71979993,814.38,-80.41,-3662.1400000000003
901,0.901000,70366,71980993,8341.38,611.59,-4835.14
902,0.902000,70367,71981993,15826.38,-173.41,-3761.1400000000003
903,0.903000,70368,71982993,17636.38,-184.41,-1148.1400000000003
904,0.904000,70369,71983993,9385.38,383.59,-855.1400000000003
905,0.905000,70370,71984993,-2419.62,489.59,491.8599999999997
906,0.906000,70371,71985993,-9860.62,826.59,3373.8599999999997
907,0.907000,70372,71986993,-6936.62,-141.41,3682.8599999999997
908,0.908000,70373,71987993,-426.62,-615.41,2588.8599999999997
909,0.909000,70374,71988993,4653.38,-729.41,3692.8599999999997
910,0.910000,70375,71989993,3082.38,-716.41,2430.8599999999997
911,0.911000,70376,71990993,-3306.62,281.59,65.85999999999967
912,0.912000,70377,71991993,-13619.62,-284.41,1815.8599999999997
913,0.913000,70378,71992993,-22417.62,-1133.41,3040.8599999999997
914,0.914000,70379,71993993,-19486.62,44.59,2155.8599999999997
915,0.915000,70380,71994993,-12616.62,-169.41,2481.8599999999997
916,0.916000,70381,71995993,-2970.62,-186.41,3079.8599999999997
917,0.917000,70382,71996993,5048.38,134.59,1482.8599999999997
918,0.917999,70383,71997992,6289.38,-383.41,34.85999999999967
919,0.919000,70384,71998993,3304.38,664.59,-1188.1400000000003
920,0.920000,70385,71999993,2937.38,1263.59,-2937.1400000000003
921,0.921000,70386,72000993,6704.38,413.59,-3135.1400000000003
922,0.922000,70387,72001993,6955.38,-22.41,-2572.1400000000003
923,0.923000,70388,72002993,4414.38,-289.41,-2553.1400000000003
924,0.924000,70389,72003993,-1193.62,-349.41,-3244.1400000000003
925,0.925000,70390,72004993,-1224.62,425.59,-3515.1400000000003
926,0.925999,70391,72005992,6575.38,442.59,-4650.14
927,0.927000,70392,72006993,14891.38,-199.41,-4178.14
928,0.927999,70393,72007992,18692.38,-169.41,-1056.1400000000003
929,0.929000,70394,72008993,11672.38,413.59,-644.1400000000003
930,0.930000,70395,72009993,-1028.62,646.59,20.859999999999673
931,0.931000,70396,72010993,-9266.62,484.59,3150.8599999999997
932,0.932000,70397,72011993,-7960.62,262.59,3710.8599999999997
933,0.932999,70398,72012992,-912.62,-290.41,2701.8599999999997
934,0.934000,70399,72013993,4580.38,-1113.41,3835.8599999999997
935,0.934999,70400,72014992,3461.38,-431.41,2648.8599999999997
936,0.935999,70401,72015992,-2251.62,236.59,37.85999999999967
937,0.937000,70402,72016993,-11179.62,-671.41,1679.8599999999997
938,0.938000,70403,72017993,-21355.62,-954.41,3190.8599999999997
939,0.939000,70404,72018993,-20570.62,-330.41,2001.8599999999997
940,0.940000,70405,72019993,-14801.62,-323.41,1740.8599999999997
941,0.941000,70406,72020993,-5364.62,-78.41,2784.8599999999997
942,0.942000,70407,72021993,4144.38,206.59,1775.8599999999997
943,0.943000,70408,72022993,6572.38,-304.41,401.8599999999997
944,0.944000,70409,72023993,4152.38,242.59,-674.1400000000003
945,0.945000,70410,72024993,2708.38,1364.59,-2667.1400000000003
946,0.946000,70411,72025993,6050.38,887.59,-2910.1400000000003
947,0.947000,70412,72026993,6642.38,4.59,-2508.1400000000003
948,0.948000,70413,72027993,5622.38,-303.41,-2492.1400000000003
949,0.949000,70414,72028993,799.38,-327.41,-2821.1400000000003
950,0.950000,70415,72029993,-2214.62,284.59,-3324.1400000000003
951,0.951000,70416,72030993,4321.38,357.59,-4789.14
952,0.952000,70417,72031993,13360.38,100.59,-4911.14
953,0.953000,70418,72032993,18736.38,-84.41,-1669.1400000000003
954,0.954000,70419,72033993,14014.38,-165.41,-452.1400000000003
955,0.955000,70420,72034993,1437.38,723.59,-275.1400000000003
956,0.955999,70421,72035992,-8487.62,1060.59,2564.8599999999997
957,0.957000,70422,72036993,-8513.62,-278.41,4035.8599999999997
958,0.958000,70423,72037993,-2894.62,-375.41,2672.8599999999997
959,0.959000,70424,72038993,3758.38,-356.41,3494.8599999999997
960,0.959999,70425,72039992,4588.38,-966.41,3077.8599999999997
961,0.960999,70426,72040992,-2320.62,-47.41,369.8599999999997
962,0.962000,70427,72041993,-8965.62,-151.41,1257.8599999999997
963,0.963000,70428,72042993,-18865.62,-1329.41,3244.8599999999997
964,0.964000,70429,72043993,-20837.62,-218.41,2780.8599999999997
965,0.964999,70430,72044992,-16831.62,161.59,1731.8599999999997
966,0.966000,70431,72045993,-7198.62,-377.41,2639.8599999999997
967,0.967000,70432,72046993,3529.38,93.59,2342.8599999999997
968,0.968000,70433,72047993,5661.38,-68.41,252.85999999999967
969,0.969000,70434,72048993,4564.38,382.59,-808.1400000000003
970,0.970000,70435,72049993,2687.38,860.59,-2078.1400000000003
971,0.971000,70436,72050993,5505.38,738.59,-3278.1400000000003
972,0.971999,70437,72051992,6989.38,445.59,-2954.1400000000003
973,0.973000,70438,72052993,6336.38,-580.41,-1967.1400000000003
974,0.974000,70439,72053993,1697.38,-429.41,-2796.1400000000003
975,0.974999,70440,72054992,-2939.62,674.59,-3730.1400000000003
976,0.976000,70441,72055993,2639.38,295.59,-4266.14
977,0.977000,70442,72056993,12197.38,-103.41,-4719.14
978,0.978000,70443,72057993,19421.38,-127.41,-2065.1400000000003
979,0.979000,70444,72058993,15398.38,13.59,-529.1400000000003
980,0.979999,70445,72059992,2775.38,612.59,-586.1400000000003
981,0.981000,70446,72060993,-7645.62,797.59,2075.8599999999997
982,0.982000,70447,72061993,-8997.62,190.59,3991.8599999999997
983,0.983000,70448,72062993,-3165.62,-260.41,2929.8599999999997
984,0.984000,70449,72063993,2668.38,-740.41,3244.8599999999997
985,0.985000,70450,72064993,4777.38,-757.41,3334.8599999999997
986,0.985999,70451,72065992,-847.62,-150.41,741.8599999999997
987,0.987000,70452,72066993,-7931.62,-307.41,679.8599999999997
988,0.988000,70453,72067993,-17294.62,-1076.41,2987.8599999999997
989,0.989000,70454,72068993,-21069.62,-484.41,2843.8599999999997
990,0.990000,70455,72069993,-18656.62,329.59,1617.8599999999997
991,0.991000,70456,72070993,-9105.62,-232.41,2483.8599999999997
992,0.992000,70457,72071993,2767.38,-16.41,2650.8599999999997
993,0.992999,70458,72072992,6100.38,-36.41,842.8599999999997
994,0.993999,70459,72073992,5103.38,74.59,-510.1400000000003
995,0.995000,70460,72074993,2428.38,854.59,-2060.1400000000003
996,0.996000,70461,72075993,4386.38,960.59,-3134.1400000000003
997,0.997000,70462,72076993,7084.38,411.59,-2918.1400000000003
998,0.998000,70463,72077993,7121.38,-439.41,-2283.1400000000003
999,0.998999,70464,72078992,2051.38,-258.41,-2747.1400000000003
1000,1.000000,70465,72079993,-3130.62,364.59,-3555.1400000000003
1001,1.001000,70466,72080993,2138.38,252.59,-3928.1400000000003
1002,1.002000,70467,72081993,10680.38,130.59,-4803.14
1003,1.002999,70468,72082992,18193.38,-97.41,-2812.1400000000003
1004,1.004000,70469,72083993,16579.38,-38.41,-548.1400000000003
1005,1.005000,70470,72084993,5393.38,556.59,-612.1400000000003
1006,1.006000,70471,72085993,-5974.62,877.59,1245.8599999999997
1007,1.007000,70472,72086993,-9313.62,210.59,4058.8599999999997
1008,1.008000,70473,72087993,-4401.62,-260.41,3557.8599999999997
1009,1.009000,70474,72088993,1319.38,-559.41,2880.8599999999997
1010,1.010000,70475,72089993,4648.38,-863.41,3409.8599999999997
1011,1.010999,70476,72090992,282.38,-261.41,1185.8599999999997
1012,1.012000,70477,72091993,-5422.62,-234.41,569.8599999999997
1013,1.013000,70478,72092993,-16156.62,-791.41,2441.8599999999997
1014,1.013999,70479,72093992,-21685.62,-754.41,2769.8599999999997
1015,1.015000,70480,72094993,-18817.62,254.59,1804.8599999999997
1016,1.016000,70481,72095993,-11455.62,1.5899999999999999,2344.8599999999997
1017,1.016999,70482,72096992,696.38,-238.41,2899.8599999999997
1018,1.018000,70483,72097993,6168.38,-16.41,996.8599999999997
1019,1.019000,70484,72098993,6308.38,-26.41,-224.14000000000033
1020,1.020000,70485,72099993,3073.38,729.59,-1466.1400000000003
1021,1.020999,70486,72100992,3502.38,1092.59,-3032.1400000000003
1022,1.021999,70487,72101992,6749.38,616.59,-3175.1400000000003
1023,1.023000,70488,72102993,7283.38,-386.41,-2256.1400000000003
1024,1.024000,70489,72103993,2831.38,-347.41,-2417.1400000000003
1025,1.025000,70490,72104993,-3113.62,237.59,-3516.1400000000003
1026,1.025999,70491,72105992,1142.38,175.59,-3839.1400000000003
1027,1.027000,70492,72106993,9926.38,117.59,-4749.14
1028,1.027999,70493,72107992,16365.38,30.59,-3432.1400000000003
1029,1.029000,70494,72108993,17187.38,-163.41,-874.1400000000003
1030,1.030000,70495,72109993,7437.38,357.59,-907.1400000000003
1031,1.031000,70496,72110993,-3859.62,803.59,930.8599999999997
1032,1.032000,70497,72111993,-9008.62,557.59,3994.8599999999997
1033,1.033000,70498,72112993,-5971.62,-28.41,3397.8599999999997
1034,1.034000,70499,72113993,959.38,-713.41,2870.8599999999997
1035,1.035000,70500,72114993,4669.38,-696.41,3762.8599999999997
1036,1.036000,70501,72115993,1684.38,-332.41,1689.8599999999997
1037,1.037000,70502,72116993,-3294.62,-264.41,471.8599999999997
1038,1.038000,70503,72117993,-15234.62,-406.41,2048.8599999999997
1039,1.039000,70504,72118993,-23063.62,-944.41,2750.8599999999997
1040,1.040000,70505,72119993,-18659.62,-223.41,1973.8599999999997
1041,1.041000,70506,72120993,-12525.62,43.59,2151.8599999999997
1042,1.042000,70507,72121993,-1768.62,-226.41,2875.8599999999997
1043,1.043000,70508,72122993,5428.38,-204.41,1310.8599999999997
1044,1.044000,70509,72123993,6314.38,-104.41,-63.14000000000033
1045,1.045000,70510,72124993,3355.38,771.59,-1109.1400000000003
1046,1.046000,70511,72125993,2836.38,1171.59,-2774.1400000000003
1047,1.046999,70512,72126992,7099.38,625.59,-3143.1400000000003
1048,1.047999,70513,72127992,7498.38,-223.41,-2403.1400000000003
1049,1.049000,70514,72128993,4153.38,-393.41,-2164.1400000000003
1050,1.049999,70515,72129992,-2345.62,25.59,-3220.1400000000003
1051,1.050999,70516,72130992,-623.62,305.59,-3913.1400000000003
1052,1.052000,70517,72131993,8254.38,239.59,-4795.14
1053,1.053000,70518,72132993,15574.38,44.59,-3928.1400000000003
1054,1.054000,70519,72133993,18579.38,-69.41,-1172.1400000000003
1055,1.055000,70520,72134993,10273.38,227.59,-735.1400000000003
1056,1.056000,70521,72135993,-2334.62,705.59,428.8599999999997
1057,1.057000,70522,72136993,-9155.62,568.59,3487.8599999999997
1058,1.058000,70523,72137993,-7440.62,-14.41,3622.8599999999997
1059,1.058999,70524,72138992,-804.62,-470.41,2754.8599999999997
1060,1.059999,70525,72139992,4860.38,-948.41,3778.8599999999997
1061,1.061000,70526,72140993,2814.38,-450.41,2119.8599999999997
1062,1.062000,70527,72141993,-2828.62,14.59,142.85999999999967
1063,1.063000,70528,72142993,-13146.62,-350.41,1760.8599999999997
1064,1.064000,70529,72143993,-22894.62,-811.41,2903.8599999999997
1065,1.064999,70530,72144992,-19564.62,-371.41,2066.8599999999997
1066,1.065999,70531,72145992,-13336.62,-106.41,2206.8599999999997
1067,1.067000,70532,72146993,-3541.62,-117.41,3230.8599999999997
1068,1.067999,70533,72147992,4929.38,-70.41,1792.8599999999997
1069,1.069000,70534,72148993,6337.38,-159.41,25.859999999999673
1070,1.070000,70535,72149993,3940.38,604.59,-1071.1400000000003
1071,1.071000,70536,72150993,3220.38,1031.59,-2628.1400000000003
1072,1.072000,70537,72151993,6457.38,789.59,-3237.1400000000003
1073,1.073000,70538,72152993,6968.38,-77.41,-2772.1400000000003
1074,1.074000,70539,72153993,4847.38,-532.41,-2300.1400000000003
1075,1.075000,70540,72154993,-1330.62,-48.41,-3120.1400000000003
1076,1.076000,70541,72155993,-1287.62,307.59,-3685.1400000000003
1077,1.077000,70542,72156993,6386.38,281.59,-4761.14
1078,1.078000,70543,72157993,14592.38,102.59,-4335.14
1079,1.078999,70544,72158992,19063.38,-125.41,-1094.1400000000003
1080,1.079999,70545,72159992,11857.38,15.59,-652.1400000000003
1081,1.081000,70546,72160993,-1028.62,852.59,-271.1400000000003
1082,1.081999,70547,72161992,-8873.62,678.59,3195.8599999999997
1083,1.083000,70548,72162993,-8053.62,29.59,3860.8599999999997
1084,1.083999,70549,72163992,-1297.62,-215.41,2636.8599999999997
1085,1.085000,70550,72164993,4790.38,-1080.41,3730.8599999999997
1086,1.086000,70551,72165993,3526.38,-495.41,2719.8599999999997
1087,1.087000,70552,72166993,-2867.62,105.59,246.85999999999967
1088,1.088000,70553,72167993,-10523.62,-535.41,1488.8599999999997
1089,1.089000,70554,72168993,-21123.62,-824.41,2981.8599999999997
1090,1.090000,70555,72169993,-20742.62,-488.41,2096.8599999999997
1091,1.090999,70556,72170992,-14657.62,-128.41,1970.8599999999997
1092,1.092000,70557,72171993,-5429.62,-27.41,3010.8599999999997
1093,1.093000,70558,72172993,4450.38,55.59,1925.8599999999997
1094,1.094000,70559,72173993,6057.38,-214.41,288.8599999999997
1095,1.095000,70560,72174993,4237.38,392.59,-733.1400000000003
1096,1.096000,70561,72175993,2800.38,1087.59,-2397.1400000000003
1097,1.097000,70562,72176993,5933.38,951.59,-3112.1400000000003
1098,1.098000,70563,72177993,6864.38,128.59,-2855.1400000000003
1099,1.099000,70564,72178993,5450.38,-538.41,-2369.1400000000003
1100,1.100000,70565,72179993,1031.38,-324.41,-2808.1400000000003
1101,1.100999,70566,72180992,-2714.62,368.59,-3611.1400000000003
1102,1.102000,70567,72181993,3393.38,439.59,-4576.14
1103,1.103000,70568,72182993,13215.38,-68.41,-4706.14
1104,1.104000,70569,72183993,19044.38,-180.41,-1841.1400000000003
1105,1.105000,70570,72184993,14496.38,149.59,-485.1400000000003
1106,1.106000,70571,72185993,1695.38,718.59,-373.1400000000003
1107,1.107000,70572,72186993,-7729.62,676.59,2442.8599999999997
1108,1.108000,70573,72187993,-9000.62,78.59,4120.86
1109,1.108999,70574,72188992,-2865.62,-291.41,3041.8599999999997
1110,1.110000,70575,72189993,3743.38,-806.41,3377.8599999999997
1111,1.111000,70576,72190993,3450.38,-539.41,2916.8599999999997
1112,1.112000,70577,72191993,-1661.62,-146.41,515.8599999999997
1113,1.113000,70578,72192993,-8403.62,-267.41,803.8599999999997
1114,1.114000,70579,72193993,-17951.62,-1040.41,3173.8599999999997
1115,1.115000,70580,72194993,-19974.62,-653.41,2983.8599999999997
1116,1.116000,70581,72195993,-17755.62,401.59,1250.8599999999997
1117,1.117000,70582,72196993,-8148.62,-358.41,2786.8599999999997
1118,1.118000,70583,72197993,3299.38,-56.41,2512.8599999999997
1119,1.119000,70584,72198993,5648.38,209.59,129.85999999999967
1120,1.119999,70585,72199992,4787.38,115.59,-671.1400000000003
1121,1.121000,70586,72200993,2869.38,628.59,-2052.1400000000003
1122,1.122000,70587,72201993,4861.38,1195.59,-3122.1400000000003
1123,1.123000,70588,72202993,7161.38,427.59,-2821.1400000000003
1124,1.124000,70589,72203993,6505.38,-726.41,-2152.1400000000003
1125,1.125000,70590,72204993,1436.38,-171.41,-2705.1400000000003
1126,1.125999,70591,72205992,-2964.62,396.59,-3411.1400000000003
1127,1.127000,70592,72206993,2125.38,316.59,-4094.1400000000003
1128,1.127999,70593,72207992,11711.38,141.59,-4858.14
1129,1.129000,70594,72208993,18951.38,-261.41,-2416.1400000000003
1130,1.130000,70595,72209993,16297.38,56.59,-498.1400000000003
1131,1.131000,70596,72210993,3955.38,491.59,-518.1400000000003
1132,1.132000,70597,72211993,-7043.62,895.59,1900.8599999999997
1133,1.132999,70598,72212992,-9161.62,419.59,3972.8599999999997
1134,1.134000,70599,72213993,-3534.62,-571.41,3156.8599999999997
1135,1.135000,70600,72214993,1811.38,-424.41,2928.8599999999997
1136,1.136000,70601,72215993,4504.38,-799.41,3310.8599999999997
1137,1.136999,70602,72216992,369.38,-349.41,1008.8599999999997
1138,1.138000,70603,72217993,-7418.62,-48.41,483.8599999999997
1139,1.139000,70604,72218993,-16475.62,-1232.41,2778.8599999999997
1140,1.140000,70605,72219993,-21009.62,-651.41,2731.8599999999997
1141,1.141000,70606,72220993,-19569.62,514.59,1560.8599999999997
1142,1.142000,70607,72221993,-9865.62,-279.41,2576.8599999999997
1143,1.143000,70608,72222993,2424.38,-56.41,2754.8599999999997
1144,1.143999,70609,72223992,5929.38,21.59,893.8599999999997
1145,1.144999,70610,72224992,5337.38,-71.41,-244.14000000000033
1146,1.146000,70611,72225993,2440.38,1021.59,-1735.1400000000003
1147,1.146999,70612,72226992,3815.38,1052.59,-3002.1400000000003
1148,1.148000,70613,72227993,7264.38,392.59,-2993.1400000000003
1149,1.149000,70614,72228993,7255.38,-407.41,-2319.1400000000003
1150,1.150000,70615,72229993,2456.38,-388.41,-2421.1400000000003
1151,1.151000,70616,72230993,-3232.62,252.59,-3552.1400000000003
1152,1.151999,70617,72231992,1334.38,277.59,-4198.14
1153,1.153000,70618,72232993,10284.38,329.59,-4900.14
1154,1.154000,70619,72233993,17684.38,-312.41,-2890.1400000000003
1155,1.155000,70620,72234993,17865.38,-277.41,-506.1400000000003
1156,1.156000,70621,72235993,6257.38,1011.59,-974.1400000000003
1157,1.156999,70622,72236992,-5274.62,609.59,1386.8599999999997
1158,1.158000,70623,72237993,-9973.62,156.59,3925.8599999999997
1159,1.159000,70624,72238993,-5214.62,154.59,3208.8599999999997
1160,1.160000,70625,72239993,1691.38,-682.41,3141.8599999999997
1161,1.161000,70626,72240993,4413.38,-786.41,3623.8599999999997
1162,1.161999,70627,72241992,1462.38,-272.41,1461.8599999999997
1163,1.163000,70628,72242993,-4166.62,-310.41,558.8599999999997
1164,1.164000,70629,72243993,-16629.62,-599.41,2363.8599999999997
1165,1.165000,70630,72244993,-22377.62,-910.41,2867.8599999999997
1166,1.165999,70631,72245992,-18306.62,140.59,1836.8599999999997
1167,1.167000,70632,72246993,-12504.62,94.59,2024.8599999999997
1168,1.167999,70633,72247992,-319.62,-328.41,2867.8599999999997
1169,1.169000,70634,72248993,5758.38,-40.41,1121.8599999999997
1170,1.170000,70635,72249993,6786.38,-232.41,30.859999999999673
1171,1.171000,70636,72250993,2743.38,870.59,-1417.1400000000003
1172,1.172000,70637,72251993,3238.38,1286.59,-3122.1400000000003
1173,1.173000,70638,72252993,7268.38,302.59,-2915.1400000000003
1174,1.173999,70639,72253992,7329.38,-142.41,-2456.1400000000003
1175,1.175000,70640,72254993,3696.38,-232.41,-2507.1400000000003
1176,1.176000,70641,72255993,-3249.62,-23.41,-3307.1400000000003
1177,1.177000,70642,72256993,714.38,229.59,-3644.1400000000003
1178,1.178000,70643,72257993,9116.38,175.59,-4870.14
1179,1.178999,70644,72258992,16019.38,146.59,-3527.1400000000003
1180,1.180000,70645,72259993,18205.38,-143.41,-530.1400000000003
1181,1.181000,70646,72260993,8573.38,273.59,-1011.1400000000003
1182,1.182000,70647,72261993,-3601.62,929.59,435.8599999999997
1183,1.183000,70648,72262993,-9541.62,386.59,3995.8599999999997
1184,1.184000,70649,72263993,-6546.62,-7.41,3456.8599999999997
1185,1.185000,70650,72264993,435.38,-427.41,2613.8599999999997
1186,1.186000,70651,72265993,5078.38,-1126.41,3845.8599999999997
1187,1.187000,70652,72266993,2606.38,-428.41,1734.8599999999997
1188,1.187999,70653,72267992,-3265.62,14.59,211.85999999999967
1189,1.189000,70654,72268993,-15079.62,-426.41,1926.8599999999997
1190,1.190000,70655,72269993,-23010.62,-852.41,2663.8599999999997
1191,1.191000,70656,72270993,-18957.62,-298.41,2056.8599999999997
1192,1.191999,70657,72271992,-12837.62,-22.41,2243.8599999999997
1193,1.192999,70658,72272992,-2178.62,-69.41,3044.8599999999997
1194,1.194000,70659,72273993,5414.38,-83.41,1686.8599999999997
1195,1.195000,70660,72274993,6509.38,-220.41,174.85999999999967
1196,1.196000,70661,72275993,3430.38,710.59,-1246.1400000000003
1197,1.197000,70662,72276993,3126.38,1176.59,-2794.1400000000003
1198,1.197999,70663,72277992,6206.38,743.59,-3008.1400000000003
1199,1.198999,70664,72278992,7043.38,-175.41,-2668.1400000000003
1200,1.200000,70665,72279993,4866.38,-570.41,-2622.1400000000003
1201,1.201000,70666,72280993,-2153.62,146.59,-3115.1400000000003
1202,1.201999,70667,72281992,-304.62,23.59,-3308.1400000000003
1203,1.203000,70668,72282993,6850.38,232.59,-5113.14
1204,1.204000,70669,72283993,14561.38,448.59,-4425.14
1205,1.204999,70670,72284992,19098.38,-579.41,-920.1400000000003
1206,1.205999,70671,72285992,11386.38,174.59,-685.1400000000003
1207,1.207000,70672,72286993,-1475.62,1108.59,112.85999999999967
1208,1.208000,70673,72287993,-9220.62,377.59,3369.8599999999997
1209,1.209000,70674,72288993,-7958.62,112.59,3671.8599999999997
1210,1.210000,70675,72289993,-953.62,-351.41,2955.8599999999997
1211,1.211000,70676,72290993,4617.38,-887.41,3682.8599999999997
1212,1.212000,70677,72291993,3087.38,-355.41,2252.8599999999997
1213,1.213000,70678,72292993,-1905.62,-88.41,709.8599999999997
1214,1.214000,70679,72293993,-12006.62,-279.41,1596.8599999999997
1215,1.215000,70680,72294993,-22160.62,-837.41,2778.8599999999997
1216,1.216000,70681,72295993,-19775.62,-694.41,2342.8599999999997
1217,1.217000,70682,72296993,-14532.62,3.59,2036.8599999999997
1218,1.218000,70683,72297993,-4720.62,-99.41,3000.8599999999997
1219,1.219000,70684,72298993,4558.38,-209.41,1604.8599999999997
1220,1.220000,70685,72299993,6076.38,-13.41,-173.14000000000033
1221,1.221000,70686,72300993,4204.38,402.59,-778.1400000000003
1222,1.222000,70687,72301993,3042.38,1036.59,-2519.1400000000003
1223,1.223000,70688,72302993,6115.38,957.59,-3242.1400000000003
1224,1.224000,70689,72303993,6473.38,-5.41,-2616.1400000000003
1225,1.225000,70690,72304993,5642.38,-463.41,-2203.1400000000003
1226,1.226000,70691,72305993,-119.62,-172.41,-2807.1400000000003
1227,1.227000,70692,72306993,-1644.62,301.59,-3473.1400000000003
1228,1.228000,70693,72307993,5199.38,395.59,-4828.14
1229,1.229000,70694,72308993,14092.38,-36.41,-4488.14
1230,1.230000,70695,72309993,18966.38,-97.41,-1360.1400000000003
1231,1.231000,70696,72310993,12597.38,186.59,-831.1400000000003
1232,1.232000,70697,72311993,469.38,589.59,-367.1400000000003
1233,1.233000,70698,72312993,-8517.62,673.59,3019.8599999999997
1234,1.234000,70699,72313993,-8072.62,31.59,3948.8599999999997
1235,1.235000,70700,72314993,-2218.62,-347.41,2562.8599999999997
1236,1.236000,70701,72315993,3884.38,-832.41,3527.8599999999997
1237,1.237000,70702,72316993,3782.38,-719.41,2941.8599999999997
1238,1.238000,70703,72317993,-2574.62,-5.41,182.85999999999967
1239,1.239000,70704,72318993,-9745.62,-272.41,1161.8599999999997
1240,1.240000,70705,72319993,-19751.62,-1179.41,3301.8599999999997
1241,1.241000,70706,72320993,-20888.62,-292.41,2483.8599999999997
1242,1.242000,70707,72321993,-15794.62,111.59,1748.8599999999997
1243,1.243000,70708,72322993,-6099.62,-418.41,2938.8599999999997
1244,1.244000,70709,72323993,3883.38,258.59,2321.8599999999997
1245,1.245000,70710,72324993,5916.38,-73.41,382.8599999999997
1246,1.246000,70711,72325993,4270.38,206.59,-748.1400000000003
1247,1.247000,70712,72326993,2841.38,1081.59,-2375.1400000000003
1248,1.248000,70713,72327993,5729.38,899.59,-3221.1400000000003
1249,1.249000,70714,72328993,6998.38,216.59,-2797.1400000000003
1250,1.250000,70715,72329993,6128.38,-607.41,-2271.1400000000003
1251,1.251000,70716,72330993,871.38,-272.41,-2913.1400000000003
1252,1.252000,70717,72331993,-2862.62,412.59,-3539.1400000000003
1253,1.253000,70718,72332993,2904.38,278.59,-4531.14
1254,1.254000,70719,72333993,12401.38,95.59,-4916.14
1255,1.255000,70720,72334993,19527.38,-201.41,-1869.1400000000003
1256,1.255999,70721,72335992,15423.38,53.59,-508.1400000000003
1257,1.256999,70722,72336992,2309.38,719.59,-422.1400000000003
1258,1.258000,70723,72337993,-7979.62,787.59,2449.8599999999997
1259,1.258999,70724,72338992,-8844.62,121.59,4061.8599999999997
1260,1.259999,70725,72339992,-3153.62,-226.41,2952.8599999999997
1261,1.261000,70726,72340993,3202.38,-755.41,3533.8599999999997
1262,1.262000,70727,72341993,4153.38,-710.41,3064.8599999999997
1263,1.262999,70728,72342992,-1401.62,-48.41,339.8599999999997
1264,1.264000,70729,72343993,-7815.62,-336.41,910.8599999999997
1265,1.265000,70730,72344993,-17585.62,-1212.41,3065.8599999999997
1266,1.266000,70731,72345993,-20778.62,-472.41,2755.8599999999997
1267,1.267000,70732,72346993,-18657.62,267.59,1443.8599999999997
1268,1.268000,70733,72347993,-8935.62,-300.41,2396.8599999999997
1269,1.269000,70734,72348993,3163.38,91.59,2672.8599999999997
1270,1.270000,70735,72349993,5910.38,13.59,593.8599999999997
1271,1.271000,70736,72350993,5386.38,173.59,-518.1400000000003
1272,1.271999,70737,72351992,2832.38,820.59,-1773.1400000000003
1273,1.273000,70738,72352993,4596.38,1013.59,-3120.1400000000003
1274,1.274000,70739,72353993,7201.38,427.59,-2891.1400000000003
1275,1.275000,70740,72354993,6633.38,-560.41,-2165.1400000000003
1276,1.276000,70741,72355993,1892.38,-340.41,-2603.1400000000003
1277,1.277000,70742,72356993,-3349.62,404.59,-3519.1400000000003
1278,1.278000,70743,72357993,1857.38,348.59,-4484.14
1279,1.279000,70744,72358993,11298.38,17.59,-4968.14
1280,1.280000,70745,72359993,18572.38,-277.41,-2376.1400000000003
1281,1.281000,70746,72360993,16947.38,-20.41,-703.1400000000003
1282,1.281999,70747,72361992,4642.38,640.59,-856.1400000000003
1283,1.283000,70748,72362993,-6943.62,883.59,1820.8599999999997
1284,1.283999,70749,72363992,-9054.62,247.59,4180.86
1285,1.285000,70750,72364993,-4080.62,-187.41,3083.8599999999997
1286,1.286000,70751,72365993,2443.38,-659.41,3251.8599999999997
1287,1.287000,70752,72366993,4872.38,-869.41,3522.8599999999997
1288,1.287999,70753,72367992,-253.62,-81.41,866.8599999999997
1289,1.289000,70754,72368993,-6560.62,-294.41,688.8599999999997
1290,1.290000,70755,72369993,-17138.62,-1043.41,2505.8599999999997
1291,1.291000,70756,72370993,-21375.62,-538.41,2660.8599999999997
1292,1.292000,70757,72371993,-19059.62,188.59,1798.8599999999997
1293,1.293000,70758,72372993,-10848.62,-152.41,2235.8599999999997
1294,1.294000,70759,72373993,1720.38,-35.41,2687.8599999999997
1295,1.295000,70760,72374993,5940.38,-73.41,972.8599999999997
1296,1.296000,70761,72375993,5876.38,10.59,-186.14000000000033
1297,1.297000,70762,72376993,2721.38,833.59,-1595.1400000000003
1298,1.297999,70763,72377992,3873.38,1051.59,-3074.1400000000003
1299,1.298999,70764,72378992,7718.38,504.59,-2848.1400000000003
1300,1.300000,70765,72379993,7547.38,-365.41,-2182.1400000000003
1301,1.301000,70766,72380993,2625.38,-300.41,-2663.1400000000003
1302,1.302000,70767,72381993,-3820.62,322.59,-3536.1400000000003
1303,1.303000,70768,72382993,1134.38,141.59,-3866.1400000000003
1304,1.304000,70769,72383993,9882.38,196.59,-4972.14
1305,1.305000,70770,72384993,17345.38,-50.41,-3213.1400000000003
1306,1.306000,70771,72385993,17836.38,-239.41,-742.1400000000003
1307,1.307000,70772,72386993,6929.38,548.59,-935.1400000000003
1308,1.308000,70773,72387993,-4922.62,842.59,1259.8599999999997
1309,1.309000,70774,72388993,-9519.62,313.59,4121.86
1310,1.310000,70775,72389993,-5502.62,-35.41,3319.8599999999997
1311,1.311000,70776,72390993,984.38,-603.41,3054.8599999999997
1312,1.312000,70777,72391993,4928.38,-940.41,3739.8599999999997
1313,1.313000,70778,72392993,1374.38,-145.41,1392.8599999999997
1314,1.314000,70779,72393993,-4188.62,-199.41,580.8599999999997
1315,1.315000,70780,72394993,-15964.62,-612.41,2144.8599999999997
1316,1.316000,70781,72395993,-22562.62,-770.41,2645.8599999999997
1317,1.317000,70782,72396993,-18850.62,-117.41,1966.8599999999997
1318,1.318000,70783,72397993,-12236.62,122.59,2272.8599999999997
1319,1.319000,70784,72398993,-803.62,-113.41,2931.8599999999997
1320,1.319999,70785,72399992,5812.38,-189.41,1152.8599999999997
1321,1.321000,70786,72400993,6626.38,-123.41,-103.14000000000033
1322,1.322000,70787,72401993,3115.38,760.59,-1234.1400000000003
1323,1.323000,70788,72402993,3359.38,1163.59,-2831.1400000000003
1324,1.323999,70789,72403992,6930.38,579.59,-3004.1400000000003
1325,1.324999,70790,72404992,7495.38,-342.41,-2372.1400000000003
1326,1.326000,70791,72405993,3410.38,-270.41,-2449.1400000000003
1327,1.327000,70792,72406993,-3341.62,126.59,-3309.1400000000003
1328,1.328000,70793,72407993,736.38,17.59,-3694.1400000000003
1329,1.329000,70794,72408993,8573.38,380.59,-5043.14
1330,1.330000,70795,72409993,16110.38,-2.41,-3714.1400000000003
1331,1.331000,70796,72410993,18378.38,-270.41,-891.1400000000003
1332,1.332000,70797,72411993,8745.38,491.59,-1065.1400000000003
1333,1.333000,70798,72412993,-3033.62,772.59,605.8599999999997
1334,1.334000,70799,72413993,-9393.62,458.59,3895.8599999999997
1335,1.335000,70800,72414993,-6468.62,-14.41,3538.8599999999997
1336,1.336000,70801,72415993,355.38,-480.41,2789.8599999999997
1337,1.337000,70802,72416993,4806.38,-895.41,3964.8599999999997
1338,1.338000,70803,72417993,2365.38,-361.41,2002.8599999999997
1339,1.339000,70804,72418993,-3226.62,10.59,201.85999999999967
1340,1.340000,70805,72419993,-14423.62,-424.41,1861.8599999999997
1341,1.341000,70806,72420993,-22757.62,-906.41,2770.8599999999997
1342,1.342000,70807,72421993,-19190.62,-331.41,2060.8599999999997
1343,1.343000,70808,72422993,-13138.62,-36.41,2163.8599999999997
1344,1.344000,70809,72423993,-2882.62,-120.41,2885.8599999999997
1345,1.345000,70810,72424993,4956.38,-158.41,1506.8599999999997
1346,1.346000,70811,72425993,6557.38,-202.41,139.85999999999967
1347,1.347000,70812,72426993,3401.38,701.59,-1041.1400000000003
1348,1.348000,70813,72427993,3108.38,1208.59,-2756.1400000000003
1349,1.349000,70814,72428993,6823.38,652.59,-2963.1400000000003
1350,1.350000,70815,72429993,7106.38,-112.41,-2528.1400000000003
1351,1.350999,70816,72430992,4909.38,-352.41,-2448.1400000000003
1352,1.352000,70817,72431993,-1583.62,-127.41,-3085.1400000000003
1353,1.353000,70818,72432993,-995.62,231.59,-3600.1400000000003
1354,1.354000,70819,72433993,6711.38,362.59,-4922.14
1355,1.355000,70820,72434993,14558.38,69.59,-4267.14
1356,1.355999,70821,72435992,18690.38,-132.41,-1210.1400000000003
1357,1.357000,70822,72436993,11496.38,180.59,-761.1400000000003
1358,1.357999,70823,72437992,-956.62,720.59,164.85999999999967
1359,1.358999,70824,72438992,-8954.62,598.59,3344.8599999999997
1360,1.360000,70825,72439993,-8125.62,86.59,3753.8599999999997
1361,1.360999,70826,72440992,-1286.62,-360.41,2811.8599999999997
1362,1.362000,70827,72441993,4500.38,-882.41,3805.8599999999997
1363,1.363000,70828,72442993,3473.38,-510.41,2451.8599999999997
1364,1.364000,70829,72443993,-2644.62,-13.41,59.85999999999967
1365,1.365000,70830,72444993,-11216.62,-334.41,1541.8599999999997
1366,1.366000,70831,72445993,-21534.62,-896.41,3043.8599999999997
1367,1.367000,70832,72446993,-20412.62,-442.41,2148.8599999999997
1368,1.368000,70833,72447993,-14513.62,-120.41,1831.8599999999997
1369,1.369000,70834,72448993,-5101.62,-205.41,3006.8599999999997
1370,1.370000,70835,72449993,4615.38,46.59,2058.8599999999997
1371,1.371000,70836,72450993,6279.38,-112.41,32.85999999999967
1372,1.372000,70837,72451993,4212.38,419.59,-919.1400000000003
1373,1.373000,70838,72452993,3125.38,1066.59,-2346.1400000000003
1374,1.374000,70839,72453993,6012.38,859.59,-3098.1400000000003
1375,1.374999,70840,72454992,6586.38,163.59,-2735.1400000000003
1376,1.376000,70841,72455993,5466.38,-557.41,-2196.1400000000003
1377,1.377000,70842,72456993,32.379999999999995,-296.41,-2783.1400000000003
1378,1.377999,70843,72457992,-2110.62,381.59,-3541.1400000000003
1379,1.379000,70844,72458993,4488.38,409.59,-4870.14
1380,1.380000,70845,72459993,13764.38,-11.41,-4576.14
1381,1.381000,70846,72460993,19230.38,-249.41,-1364.1400000000003
1382,1.381999,70847,72461992,13300.38,134.59,-812.1400000000003
1383,1.383000,70848,72462993,719.38,708.59,-444.1400000000003
1384,1.384000,70849,72463993,-8589.62,690.59,2941.8599999999997
1385,1.385000,70850,72464993,-8203.62,184.59,3972.8599999999997
1386,1.386000,70851,72465993,-1994.62,-306.41,2690.8599999999997
1387,1.387000,70852,72466993,4000.38,-949.41,3664.8599999999997
1388,1.388000,70853,72467993,4221.38,-629.41,3102.8599999999997
1389,1.389000,70854,72468993,-2585.62,46.59,227.85999999999967
1390,1.389999,70855,72469992,-9343.62,-333.41,1015.8599999999997
1391,1.391000,70856,72470993,-19432.62,-1071.41,3147.8599999999997
1392,1.392000,70857,72471993,-20949.62,-425.41,2573.8599999999997
1393,1.393000,70858,72472993,-16372.62,-8.41,1695.8599999999997
1394,1.394000,70859,72473993,-6909.62,-277.41,2750.8599999999997
1395,1.395000,70860,72474993,3563.38,199.59,2352.8599999999997
1396,1.396000,70861,72475993,5940.38,-82.41,449.8599999999997
1397,1.396999,70862,72476992,4473.38,228.59,-702.1400000000003
1398,1.398000,70863,72477993,2864.38,1027.59,-2177.1400000000003
1399,1.399000,70864,72478993,5794.38,966.59,-2959.1400000000003
1400,1.400000,70865,72479993,6844.38,291.59,-2745.1400000000003
1401,1.400999,70866,72480992,6393.38,-497.41,-2281.1400000000003
1402,1.401999,70867,72481992,1255.38,-332.41,-2805.1400000000003
1403,1.403000,70868,72482993,-2897.62,386.59,-3490.1400000000003
1404,1.404000,70869,72483993,2669.38,390.59,-4545.14
1405,1.405000,70870,72484993,11975.38,-40.41,-5035.14
1406,1.406000,70871,72485993,19396.38,-271.41,-2095.1400000000003
1407,1.406999,70872,72486992,15768.38,-4.41,-604.1400000000003
1408,1.408000,70873,72487993,2763.38,750.59,-653.1400000000003
1409,1.409000,70874,72488993,-7598.62,872.59,2303.8599999999997
1410,1.410000,70875,72489993,-9098.62,65.59,4234.86
1411,1.411000,70876,72490993,-3337.62,-164.41,3045.8599999999997
1412,1.412000,70877,72491993,2837.38,-676.41,3471.8599999999997
1413,1.412999,70878,72492992,4375.38,-823.41,3310.8599999999997
1414,1.414000,70879,72493993,-804.62,-40.41,590.8599999999997
1415,1.415000,70880,72494993,-7901.62,-331.41,783.8599999999997
1416,1.416000,70881,72495993,-17333.62,-1252.41,3006.8599999999997
1417,1.417000,70882,72496993,-21013.62,-463.41,2749.8599999999997
1418,1.418000,70883,72497993,-18934.62,271.59,1429.8599999999997
1419,1.419000,70884,72498993,-9219.62,-286.41,2372.8599999999997
1420,1.420000,70885,72499993,2701.38,83.59,2532.8599999999997
1421,1.421000,70886,72500993,6352.38,-24.41,581.8599999999997
1422,1.422000,70887,72501993,5363.38,94.59,-446.1400000000003
1423,1.423000,70888,72502993,2588.38,875.59,-1876.1400000000003
1424,1.424000,70889,72503993,4858.38,1046.59,-3090.1400000000003
1425,1.425000,70890,72504993,6952.38,466.59,-2894.1400000000003
1426,1.426000,70891,72505993,7224.38,-515.41,-2133.1400000000003
1427,1.426999,70892,72506992,2274.38,-291.41,-2519.1400000000003
1428,1.428000,70893,72507993,-3466.62,398.59,-3432.1400000000003
1429,1.429000,70894,72508993,1855.38,325.59,-4148.14
1430,1.430000,70895,72509993,10476.38,130.59,-5014.14
1431,1.431000,70896,72510993,18362.38,-252.41,-2615.1400000000003
1432,1.431999,70897,72511992,16982.38,-106.41,-619.1400000000003
1433,1.432999,70898,72512992,4818.38,647.59,-932.1400000000003
1434,1.434000,70899,72513993,-6353.62,870.59,1612.8599999999997
1435,1.435000,70900,72514993,-9341.62,252.59,4178.86
1436,1.436000,70901,72515993,-4296.62,-133.41,3111.8599999999997
1437,1.437000,70902,72516993,2145.38,-635.41,3113.8599999999997
1438,1.438000,70903,72517993,4808.38,-955.41,3698.8599999999997
1439,1.439000,70904,72518993,351.38,-151.41,1079.8599999999997
1440,1.440000,70905,72519993,-6236.62,-191.41,573.8599999999997
1441,1.441000,70906,72520993,-16984.62,-944.41,2507.8599999999997
1442,1.442000,70907,72521993,-21397.62,-625.41,2735.8599999999997
1443,1.443000,70908,72522993,-18675.62,231.59,1852.8599999999997
1444,1.443999,70909,72523992,-10976.62,-119.41,2232.8599999999997
1445,1.445000,70910,72524993,1281.38,-136.41,2821.8599999999997
1446,1.445999,70911,72525992,5795.38,-18.41,1066.8599999999997
1447,1.447000,70912,72526993,5650.38,5.59,-234.14000000000033
1448,1.448000,70913,72527993,2618.38,845.59,-1582.1400000000003
1449,1.448999,70914,72528992,3716.38,1073.59,-3054.1400000000003
1450,1.450000,70915,72529993,7588.38,463.59,-2820.1400000000003
1451,1.451000,70916,72530993,7531.38,-388.41,-2165.1400000000003
1452,1.451999,70917,72531992,2983.38,-287.41,-2641.1400000000003
1453,1.453000,70918,72532993,-3513.62,224.59,-3551.1400000000003
1454,1.454000,70919,72533993,851.38,67.59,-3825.1400000000003
1455,1.455000,70920,72534993,9824.38,266.59,-4881.14
1456,1.456000,70921,72535993,16778.38,-29.41,-3488.1400000000003
1457,1.456999,70922,72536992,17751.38,-218.41,-922.1400000000003
1458,1.458000,70923,72537993,7502.38,524.59,-800.1400000000003
1459,1.459000,70924,72538993,-4367.62,810.59,1037.8599999999997
1460,1.460000,70925,72539993,-9183.62,393.59,3900.8599999999997
1461,1.461000,70926,72540993,-5983.62,-80.41,3500.8599999999997
1462,1.462000,70927,72541993,524.38,-464.41,3029.8599999999997
1463,1.463000,70928,72542993,4822.38,-834.41,3768.8599999999997
1464,1.464000,70929,72543993,1770.38,-326.41,1657.8599999999997
1465,1.465000,70930,72544993,-3562.62,-120.41,494.8599999999997
1466,1.466000,70931,72545993,-15390.62,-578.41,2205.8599999999997
1467,1.466999,70932,72546992,-22790.62,-880.41,2703.8599999999997
1468,1.468000,70933,72547993,-19203.62,-72.41,1810.8599999999997
1469,1.469000,70934,72548993,-12728.62,67.59,2195.8599999999997
1470,1.470000,70935,72549993,-1411.62,-226.41,2919.8599999999997
1471,1.471000,70936,72550993,5732.38,-157.41,1176.8599999999997
1472,1.472000,70937,72551993,6840.38,-129.41,-128.14000000000033
1473,1.473000,70938,72552993,3331.38,700.59,-1195.1400000000003
1474,1.474000,70939,72553993,3342.38,1158.59,-2860.1400000000003
1475,1.475000,70940,72554993,6811.38,646.59,-3120.1400000000003
1476,1.476000,70941,72555993,7439.38,-254.41,-2370.1400000000003
1477,1.477000,70942,72556993,3931.38,-342.41,-2344.1400000000003
1478,1.478000,70943,72557993,-2877.62,87.59,-3294.1400000000003
1479,1.479000,70944,72558993,337.38,102.59,-3629.1400000000003
1480,1.479999,70945,72559992,8318.38,308.59,-4874.14
1481,1.481000,70946,72560993,15641.38,110.59,-3897.1400000000003
1482,1.482000,70947,72561993,18345.38,-213.41,-985.1400000000003
1483,1.483000,70948,72562993,9260.38,313.59,-941.1400000000003
1484,1.484000,70949,72563993,-2703.62,769.59,442.8599999999997
1485,1.485000,70950,72564993,-9048.62,519.59,3827.8599999999997
1486,1.486000,70951,72565993,-7009.62,42.59,3629.8599999999997
1487,1.487000,70952,72566993,-104.62,-437.41,2704.8599999999997
1488,1.488000,70953,72567993,4792.38,-999.41,3920.8599999999997
1489,1.488999,70954,72568992,2506.38,-423.41,2151.8599999999997
1490,1.490000,70955,72569993,-3066.62,5.59,141.85999999999967
1491,1.491000,70956,72570993,-13607.62,-481.41,1831.8599999999997
1492,1.491999,70957,72571992,-22794.62,-806.41,2778.8599999999997
1493,1.493000,70958,72572993,-19394.62,-298.41,2008.8599999999997
1494,1.494000,70959,72573993,-12880.62,-160.41,2227.8599999999997
1495,1.495000,70960,72574993,-3317.62,-89.41,3034.8599999999997
1496,1.496000,70961,72575993,4852.38,-72.41,1659.8599999999997
1497,1.497000,70962,72576993,6364.38,-213.41,88.85999999999967
1498,1.498000,70963,72577993,3607.38,652.59,-1055.1400000000003
1499,1.499000,70964,72578993,3095.38,1170.59,-2768.1400000000003
1500,1.499999,70965,72579992,6672.38,741.59,-3064.1400000000003
1501,1.501000,70966,72580993,7174.38,-115.41,-2490.1400000000003
1502,1.502000,70967,72581993,5004.38,-429.41,-2280.1400000000003
1503,1.502999,70968,72582992,-1469.62,-99.41,-3033.1400000000003
1504,1.504000,70969,72583993,-1409.62,220.59,-3585.1400000000003
1505,1.505000,70970,72584993,5893.38,338.59,-4838.14
1506,1.506000,70971,72585993,14651.38,148.59,-4423.14
1507,1.507000,70972,72586993,19027.38,-244.41,-1348.1400000000003
1508,1.508000,70973,72587993,11882.38,137.59,-579.1400000000003
1509,1.509000,70974,72588993,-391.62,815.59,59.85999999999967
1510,1.510000,70975,72589993,-9228.62,601.59,2957.8599999999997
1511,1.510999,70976,72590992,-8280.62,55.59,3852.8599999999997
1512,1.512000,70977,72591993,-1188.62,-361.41,2965.8599999999997
1513,1.513000,70978,72592993,4601.38,-889.41,3677.8599999999997
1514,1.514000,70979,72593993,3505.38,-513.41,2590.8599999999997
1515,1.515000,70980,72594993,-2788.62,97.59,215.85999999999967
1516,1.516000,70981,72595993,-10648.62,-339.41,1354.8599999999997
1517,1.516999,70982,72596992,-20769.62,-1025.41,3144.8599999999997
1518,1.518000,70983,72597993,-20650.62,-464.41,2243.8599999999997
1519,1.519000,70984,72598993,-14876.62,-58.41,1816.8599999999997
1520,1.520000,70985,72599993,-5420.62,-167.41,3033.8599999999997
1521,1.521000,70986,72600993,4111.38,149.59,1904.8599999999997
1522,1.521999,70987,72601992,6060.38,-131.41,137.85999999999967
1523,1.523000,70988,72602993,4354.38,371.59,-846.1400000000003
1524,1.524000,70989,72603993,3077.38,1098.59,-2306.1400000000003
1525,1.525000,70990,72604993,5855.38,911.59,-3006.1400000000003
1526,1.526000,70991,72605993,6737.38,203.59,-2782.1400000000003
1527,1.527000,70992,72606993,5782.38,-579.41,-2109.1400000000003
1528,1.528000,70993,72607993,346.38,-318.41,-2749.1400000000003
1529,1.529000,70994,72608993,-2523.62,458.59,-3682.1400000000003
1530,1.530000,70995,72609993,4080.38,368.59,-4801.14
1531,1.531000,70996,72610993,13471.38,-56.41,-4723.14
1532,1.532000,70997,72611993,19140.38,-188.41,-1587.1400000000003
1533,1.533000,70998,72612993,14049.38,101.59,-614.1400000000003
1534,1.534000,70999,72613993,1260.38,697.59,-461.1400000000003
1535,1.535000,71000,72614993,-8401.62,779.59,2683.8599999999997
1536,1.536000,71001,72615993,-8524.62,105.59,4100.86
1537,1.537000,71002,72616993,-2229.62,-292.41,2904.8599999999997
1538,1.537999,71003,72617992,3717.38,-830.41,3561.8599999999997
1539,1.539000,71004,72618993,4075.38,-712.41,3132.8599999999997
1540,1.540000,71005,72619993,-2166.62,-15.41,398.8599999999997
1541,1.540999,71006,72620992,-9000.62,-306.41,794.8599999999997
1542,1.542000,71007,72621993,-18617.62,-1124.41,3138.8599999999997
1543,1.543000,71008,72622993,-20849.62,-472.41,2728.8599999999997
1544,1.544000,71009,72623993,-17067.62,167.59,1536.8599999999997
1545,1.545000,71010,72624993,-7508.62,-304.41,2616.8599999999997
1546,1.546000,71011,72625993,3550.38,115.59,2348.8599999999997
1547,1.546999,71012,72626992,5700.38,-37.41,499.8599999999997
1548,1.548000,71013,72627993,4663.38,223.59,-710.1400000000003
1549,1.548999,71014,72628992,2912.38,974.59,-2202.1400000000003
1550,1.550000,71015,72629993,5240.38,990.59,-3122.1400000000003
1551,1.550999,71016,72630992,7456.38,326.59,-2767.1400000000003
1552,1.552000,71017,72631993,6587.38,-545.41,-2166.1400000000003
1553,1.552999,71018,72632992,1229.38,-297.41,-2835.1400000000003
1554,1.554000,71019,72633993,-3334.62,417.59,-3511.1400000000003
1555,1.555000,71020,72634993,2010.38,430.59,-4321.14
1556,1.556000,71021,72635993,11902.38,49.59,-4935.14
1557,1.557000,71022,72636993,19485.38,-348.41,-2204.1400000000003
1558,1.558000,71023,72637993,16204.38,42.59,-532.1400000000003
1559,1.559000,71024,72638993,3471.38,698.59,-654.1400000000003
1560,1.560000,71025,72639993,-7605.62,808.59,1994.8599999999997
1561,1.561000,71026,72640993,-9349.62,244.59,4102.86
1562,1.562000,71027,72641993,-3663.62,-224.41,3129.8599999999997
1563,1.563000,71028,72642993,2848.38,-724.41,3338.8599999999997
1564,1.564000,71029,72643993,4730.38,-829.41,3330.8599999999997
1565,1.565000,71030,72644993,-624.62,-86.41,682.8599999999997
1566,1.566000,71031,72645993,-7105.62,-263.41,689.8599999999997
1567,1.566999,71032,72646992,-17200.62,-1191.41,2828.8599999999997
1568,1.568000,71033,72647993,-21016.62,-530.41,2734.8599999999997
1569,1.569000,71034,72648993,-19092.62,364.59,1524.8599999999997
1570,1.570000,71035,72649993,-10066.62,-288.41,2318.8599999999997
1571,1.570999,71036,72650992,2537.38,-6.41,2621.8599999999997
1572,1.572000,71037,72651993,6151.38,-3.41,761.8599999999997
1573,1.573000,71038,72652993,5680.38,33.59,-286.1400000000003
1574,1.573999,71039,72653992,2675.38,885.59,-1697.1400000000003
1575,1.574999,71040,72654992,4079.38,1067.59,-3098.1400000000003
1576,1.575999,71041,72655992,7331.38,439.59,-2852.1400000000003
1577,1.577000,71042,72656993,7246.38,-474.41,-2117.1400000000003
1578,1.578000,71043,72657993,2105.38,-315.41,-2611.1400000000003
1579,1.579000,71044,72658993,-3453.62,378.59,-3534.1400000000003
1580,1.580000,71045,72659993,1640.38,195.59,-4098.14
1581,1.581000,71046,72660993,10515.38,138.59,-5067.14
1582,1.581999,71047,72661992,18233.38,-182.41,-2834.1400000000003
1583,1.582999,71048,72662992,17079.38,-168.41,-667.1400000000003
1584,1.583999,71049,72663992,5483.38,660.59,-1031.1400000000003
1585,1.585000,71050,72664993,-5858.62,818.59,1433.8599999999997
1586,1.586000,71051,72665993,-9348.62,284.59,4228.86
1587,1.587000,71052,72666993,-4551.62,-148.41,3270.8599999999997
1588,1.588000,71053,72667993,1721.38,-623.41,3041.8599999999997
1589,1.589000,71054,72668993,4667.38,-903.41,3757.8599999999997
1590,1.590000,71055,72669993,583.38,-164.41,1288.8599999999997
1591,1.591000,71056,72670993,-5237.62,-206.41,590.8599999999997
1592,1.592000,71057,72671993,-16640.62,-741.41,2324.8599999999997
1593,1.593000,71058,72672993,-21871.62,-749.41,2706.8599999999997
1594,1.594000,71059,72673993,-18293.62,98.59,1891.8599999999997
1595,1.595000,71060,72674993,-11691.62,-22.41,2243.8599999999997
1596,1.595999,71061,72675992,302.38,-193.41,2672.8599999999997
1597,1.597000,71062,72676993,5744.38,-57.41,1074.8599999999997
1598,1.597999,71063,72677992,5956.38,-59.41,-65.14000000000033
1599,1.599000,71064,72678993,3112.38,812.59,-1580.1400000000003
1600,1.600000,71065,72679993,3464.38,1059.59,-3040.1400000000003
1601,1.601000,71066,72680993,7623.38,527.59,-2933.1400000000003
1602,1.602000,71067,72681993,7492.38,-391.41,-2359.1400000000003
1603,1.603000,71068,72682993,3172.38,-285.41,-2569.1400000000003
1604,1.604000,71069,72683993,-3470.62,193.59,-3448.1400000000003
1605,1.604999,71070,72684992,562.38,28.59,-3686.1400000000003
1606,1.606000,71071,72685993,9367.38,256.59,-4791.14
1607,1.607000,71072,72686993,16104.38,78.59,-3740.1400000000003
1608,1.608000,71073,72687993,18032.38,-207.41,-825.1400000000003
1609,1.609000,71074,72688993,8028.38,404.59,-680.1400000000003
1610,1.610000,71075,72689993,-3820.62,820.59,733.8599999999997
1611,1.611000,71076,72690993,-9190.62,458.59,3804.8599999999997
1612,1.612000,71077,72691993,-6359.62,-67.41,3696.8599999999997
1613,1.613000,71078,72692993,277.38,-499.41,2907.8599999999997
1614,1.613999,71079,72693992,4841.38,-910.41,3671.8599999999997
1615,1.615000,71080,72694993,2102.38,-360.41,1812.8599999999997
1616,1.616000,71081,72695993,-3085.62,-67.41,288.8599999999997
1617,1.617000,71082,72696993,-14390.62,-488.41,1982.8599999999997
1618,1.618000,71083,72697993,-22832.62,-871.41,2688.8599999999997
1619,1.619000,71084,72698993,-18773.62,-274.41,1815.8599999999997
1620,1.619999,71085,72699992,-12762.62,-31.41,2310.8599999999997
1621,1.621000,71086,72700993,-2386.62,-92.41,2937.8599999999997
1622,1.622000,71087,72701993,5191.38,-92.41,1235.8599999999997
1623,1.623000,71088,72702993,6484.38,-215.41,1.8599999999996726
1624,1.624000,71089,72703993,3707.38,690.59,-1112.1400000000003
1625,1.625000,71090,72704993,2968.38,1157.59,-2773.1400000000003
1626,1.626000,71091,72705993,6689.38,731.59,-3030.1400000000003
1627,1.627000,71092,72706993,7334.38,-226.41,-2342.1400000000003
1628,1.628000,71093,72707993,4166.38,-408.41,-2182.1400000000003
1629,1.629000,71094,72708993,-2173.62,2.59,-3011.1400000000003
1630,1.629999,71095,72709992,-1068.62,127.59,-3551.1400000000003
1631,1.631000,71096,72710993,6854.38,388.59,-4823.14
1632,1.631999,71097,72711992,14935.38,127.59,-4156.14
1633,1.633000,71098,72712993,18527.38,-251.41,-1213.1400000000003
1634,1.634000,71099,72713993,11172.38,177.59,-829.1400000000003
1635,1.635000,71100,72714993,-1450.62,772.59,122.85999999999967
1636,1.636000,71101,72715993,-8918.62,663.59,3391.8599999999997
1637,1.637000,71102,72716993,-7583.62,48.59,3762.8599999999997
1638,1.638000,71103,72717993,-828.62,-435.41,2709.8599999999997
1639,1.639000,71104,72718993,4946.38,-948.41,3835.8599999999997
1640,1.640000,71105,72719993,3107.38,-479.41,2461.8599999999997
1641,1.641000,71106,72720993,-3002.62,105.59,2.8599999999996726
1642,1.642000,71107,72721993,-11349.62,-410.41,1446.8599999999997
1643,1.642999,71108,72722992,-21272.62,-916.41,3073.8599999999997
1644,1.644000,71109,72723993,-19920.62,-432.41,2252.8599999999997
1645,1.645000,71110,72724993,-14015.62,-156.41,1944.8599999999997
1646,1.646000,71111,72725993,-5055.62,-129.41,3015.8599999999997
1647,1.647000,71112,72726993,3995.38,84.59,1857.8599999999997
1648,1.648000,71113,72727993,5725.38,-178.41,118.85999999999967
1649,1.649000,71114,72728993,3871.38,452.59,-864.1400000000003
1650,1.649999,71115,72729992,3114.38,1088.59,-2394.1400000000003
1651,1.651000,71116,72730993,6327.38,848.59,-2963.1400000000003
1652,1.651999,71117,72731992,7102.38,138.59,-2643.1400000000003
1653,1.653000,71118,72732993,5584.38,-532.41,-2239.1400000000003
1654,1.654000,71119,72733993,-199.62,-243.41,-2902.1400000000003
1655,1.654999,71120,72734992,-2617.62,367.59,-3534.1400000000003
1656,1.656000,71121,72735993,4108.38,408.59,-4737.14
1657,1.657000,71122,72736993,13780.38,19.59,-4799.14
1658,1.658000,71123,72737993,19719.38,-227.41,-1578.1400000000003
1659,1.659000,71124,72738993,14037.38,89.59,-524.1400000000003
1660,1.660000,71125,72739993,934.38,690.59,-333.1400000000003
1661,1.661000,71126,72740993,-8773.62,782.59,2717.8599999999997
1662,1.662000,71127,72741993,-8844.62,98.59,4005.8599999999997
1663,1.663000,71128,72742993,-2304.62,-305.41,2865.8599999999997
1664,1.664000,71129,72743993,4199.38,-842.41,3630.8599999999997
1665,1.665000,71130,72744993,4358.38,-695.41,2958.8599999999997
1666,1.666000,71131,72745993,-2166.62,54.59,214.85999999999967
1667,1.667000,71132,72746993,-9342.62,-312.41,994.8599999999997
1668,1.668000,71133,72747993,-19536.62,-1165.41,3056.8599999999997
1669,1.669000,71134,72748993,-21157.62,-466.41,2452.8599999999997
1670,1.670000,71135,72749993,-16971.62,73.59,1537.8599999999997
1671,1.671000,71136,72750993,-7000.62,-328.41,2732.8599999999997
1672,1.672000,71137,72751993,3994.38,163.59,2272.8599999999997
1673,1.673000,71138,72752993,6081.38,-5.41,328.8599999999997
1674,1.674000,71139,72753993,4634.38,228.59,-591.1400000000003
1675,1.675000,71140,72754993,2912.38,979.59,-2103.1400000000003
1676,1.676000,71141,72755993,5468.38,1002.59,-3167.1400000000003
1677,1.677000,71142,72756993,6901.38,316.59,-2805.1400000000003
1678,1.678000,71143,72757993,6499.38,-545.41,-2114.1400000000003
1679,1.678999,71144,72758992,1261.38,-330.41,-2734.1400000000003
1680,1.680000,71145,72759993,-3070.62,507.59,-3536.1400000000003
1681,1.681000,71146,72760993,2695.38,384.59,-4553.14
1682,1.682000,71147,72761993,12322.38,-67.41,-4905.14
1683,1.683000,71148,72762993,19413.38,-228.41,-1891.1400000000003
1684,1.684000,71149,72763993,15392.38,29.59,-632.1400000000003
1685,1.685000,71150,72764993,2750.38,704.59,-760.1400000000003
1686,1.685999,71151,72765992,-7968.62,775.59,2253.8599999999997
1687,1.686999,71152,72766992,-9030.62,135.59,4059.8599999999997
1688,1.688000,71153,72767993,-3051.62,-186.41,2799.8599999999997
1689,1.689000,71154,72768993,3161.38,-840.41,3438.8599999999997
1690,1.689999,71155,72769992,4594.38,-833.41,3459.8599999999997
1691,1.691000,71156,72770993,-1648.62,14.59,453.8599999999997
1692,1.692000,71157,72771993,-7996.62,-292.41,668.8599999999997
1693,1.693000,71158,72772993,-17530.62,-1195.41,3009.8599999999997
1694,1.694000,71159,72773993,-20798.62,-426.41,2851.8599999999997
1695,1.695000,71160,72774993,-18223.62,269.59,1623.8599999999997
1696,1.695999,71161,72775992,-9014.62,-307.41,2382.8599999999997
1697,1.697000,71162,72776993,2866.38,102.59,2677.8599999999997
1698,1.697999,71163,72777992,5579.38,8.59,688.8599999999997
1699,1.699000,71164,72778993,5230.38,98.59,-492.1400000000003
1700,1.700000,71165,72779993,2796.38,820.59,-1828.1400000000003
1701,1.701000,71166,72780993,4537.38,1024.59,-3103.1400000000003
1702,1.702000,71167,72781993,7563.38,443.59,-2792.1400000000003
1703,1.703000,71168,72782993,6914.38,-569.41,-2179.1400000000003
1704,1.704000,71169,72783993,1838.38,-281.41,-2779.1400000000003
1705,1.705000,71170,72784993,-3522.62,422.59,-3595.1400000000003
1706,1.706000,71171,72785993,1865.38,209.59,-4139.14
1707,1.707000,71172,72786993,11009.38,117.59,-5018.14
1708,1.708000,71173,72787993,18450.38,-215.41,-2747.1400000000003
1709,1.709000,71174,72788993,17017.38,-116.41,-661.1400000000003
1710,1.710000,71175,72789993,4854.38,664.59,-793.1400000000003
1711,1.711000,71176,72790993,-6482.62,838.59,1626.8599999999997
1712,1.712000,71177,72791993,-9371.62,226.59,3995.8599999999997
1713,1.712999,71178,72792992,-4409.62,-144.41,3170.8599999999997
1714,1.713999,71179,72793992,1981.38,-615.41,3249.8599999999997
1715,1.715000,71180,72794993,4891.38,-895.41,3601.8599999999997
1716,1.716000,71181,72795993,392.38,-133.41,1061.8599999999997
1717,1.716999,71182,72796992,-5945.62,-234.41,704.8599999999997
1718,1.717999,71183,72797992,-16475.62,-1015.41,2596.8599999999997
1719,1.719000,71184,72798993,-21687.62,-637.41,2764.8599999999997
1720,1.720000,71185,72799993,-19644.62,276.59,1711.8599999999997
1721,1.721000,71186,72800993,-11299.62,-121.41,2233.8599999999997
1722,1.722000,71187,72801993,1244.38,-108.41,2787.8599999999997
1723,1.723000,71188,72802993,6061.38,-66.41,907.8599999999997
1724,1.724000,71189,72803993,6262.38,-57.41,-189.14000000000033
1725,1.725000,71190,72804993,2936.38,770.59,-1470.1400000000003
1726,1.726000,71191,72805993,3495.38,1080.59,-3099.1400000000003
1727,1.727000,71192,72806993,7248.38,544.59,-2994.1400000000003
1728,1.728000,71193,72807993,7495.38,-422.41,-2246.1400000000003
1729,1.728999,71194,72808992,2993.38,-334.41,-2543.1400000000003
1730,1.730000,71195,72809993,-3373.62,303.59,-3519.1400000000003
1731,1.731000,71196,72810993,1298.38,82.59,-3947.1400000000003
1732,1.732000,71197,72811993,9887.38,268.59,-4999.14
1733,1.733000,71198,72812993,17046.38,-70.41,-3212.1400000000003
1734,1.734000,71199,72813993,17934.38,-299.41,-760.1400000000003
1735,1.735000,71200,72814993,6944.38,634.59,-1081.1400000000003
1736,1.736000,71201,72815993,-4781.62,845.59,1138.8599999999997
1737,1.737000,71202,72816993,-9220.62,352.59,4061.8599999999997
1738,1.738000,71203,72817993,-5522.62,-59.41,3307.8599999999997
1739,1.739000,71204,72818993,824.38,-560.41,2968.8599999999997
1740,1.740000,71205,72819993,4740.38,-907.41,3818.8599999999997
1741,1.741000,71206,72820993,1237.38,-279.41,1547.8599999999997
1742,1.742000,71207,72821993,-4149.62,-190.41,468.8599999999997
1743,1.743000,71208,72822993,-16018.62,-548.41,2140.8599999999997
1744,1.744000,71209,72823993,-22919.62,-796.41,2743.8599999999997
1745,1.745000,71210,72824993,-18549.62,-45.41,2011.8599999999997
1746,1.746000,71211,72825993,-12487.62,57.59,2166.8599999999997
1747,1.746999,71212,72826992,-816.62,-210.41,2961.8599999999997
1748,1.748000,71213,72827993,5813.38,-154.41,1333.8599999999997
1749,1.749000,71214,72828993,6428.38,-139.41,-108.14000000000033
1750,1.749999,71215,72829992,3384.38,793.59,-1321.1400000000003
1751,1.751000,71216,72830993,3156.38,1147.59,-3059.1400000000003
1752,1.752000,71217,72831993,7469.38,582.59,-3108.1400000000003
1753,1.753000,71218,72832993,7640.38,-306.41,-2315.1400000000003
1754,1.754000,71219,72833993,3476.38,-375.41,-2465.1400000000003
1755,1.755000,71220,72834993,-3231.62,119.59,-3325.1400000000003
1756,1.756000,71221,72835993,119.38,63.59,-3634.1400000000003
1757,1.757000,71222,72836993,8770.38,357.59,-4943.14
1758,1.758000,71223,72837993,16022.38,79.59,-3787.1400000000003
1759,1.759000,71224,72838993,18478.38,-292.41,-939.1400000000003
1760,1.760000,71225,72839993,9214.38,428.59,-948.1400000000003
1761,1.761000,71226,72840993,-3365.62,775.59,612.8599999999997
1762,1.762000,71227,72841993,-9414.62,471.59,3787.8599999999997
1763,1.763000,71228,72842993,-7026.62,36.59,3483.8599999999997
1764,1.764000,71229,72843993,63.379999999999995,-499.41,2822.8599999999997
1765,1.765000,71230,72844993,5331.38,-959.41,3906.8599999999997
1766,1.766000,71231,72845993,2567.38,-341.41,1987.8599999999997
1767,1.766999,71232,72846992,-2802.62,17.59,260.8599999999997
1768,1.768000,71233,72847993,-14306.62,-455.41,1858.8599999999997
1769,1.769000,71234,72848993,-23184.62,-891.41,2741.8599999999997
1770,1.770000,71235,72849993,-19333.62,-276.41,1992.8599999999997
1771,1.771000,71236,72850993,-13244.62,-44.41,2197.8599999999997
1772,1.772000,71237,72851993,-2872.62,-113.41,3012.8599999999997
1773,1.773000,71238,72852993,5164.38,-131.41,1528.8599999999997
1774,1.774000,71239,72853993,6631.38,-225.41,72.85999999999967
1775,1.775000,71240,72854993,3688.38,685.59,-1015.1400000000003
1776,1.776000,71241,72855993,3008.38,1166.59,-2779.1400000000003
1777,1.777000,71242,72856993,6668.38,726.59,-3111.1400000000003
1778,1.778000,71243,72857993,7101.38,-73.41,-2444.1400000000003
1779,1.779000,71244,72858993,4603.38,-475.41,-2270.1400000000003
1780,1.779999,71245,72859992,-2186.62,-48.41,-3135.1400000000003
1781,1.781000,71246,72860993,-760.62,187.59,-3644.1400000000003
1782,1.781999,71247,72861992,7236.38,324.59,-4959.14
1783,1.783000,71248,72862993,15051.38,157.59,-4219.14
1784,1.783999,71249,72863992,19099.38,-246.41,-1152.1400000000003
1785,1.785000,71250,72864993,11103.38,231.59,-977.1400000000003
1786,1.786000,71251,72865993,-1350.62,858.59,90.85999999999967
1787,1.787000,71252,72866993,-9118.62,549.59,3569.8599999999997
1788,1.788000,71253,72867993,-7542.62,36.59,3749.8599999999997
1789,1.789000,71254,72868993,-964.62,-287.41,2652.8599999999997
1790,1.790000,71255,72869993,4839.38,-962.41,3981.8599999999997
1791,1.791000,71256,72870993,3180.38,-437.41,2558.8599999999997
1792,1.792000,71257,72871993,-3158.62,129.59,38.85999999999967
1793,1.792999,71258,72872992,-11596.62,-464.41,1510.8599999999997
1794,1.794000,71259,72873993,-21993.62,-894.41,3009.8599999999997
1795,1.795000,71260,72874993,-20127.62,-423.41,2291.8599999999997
1796,1.796000,71261,72875993,-14253.62,-150.41,1947.8599999999997
1797,1.796999,71262,72876992,-4895.62,-79.41,2907.8599999999997
1798,1.798000,71263,72877993,4438.38,-51.41,2017.8599999999997
1799,1.799000,71264,72878993,5836.38,-116.41,197.85999999999967
1800,1.800000,71265,72879993,4110.38,496.59,-893.1400000000003
1801,1.801000,71266,72880993,3267.38,1001.59,-2557.1400000000003
1802,1.801999,71267,72881992,6495.38,855.59,-3174.1400000000003
1803,1.803000,71268,72882993,7193.38,76.59,-2655.1400000000003
1804,1.804000,71269,72883993,5579.38,-539.41,-2384.1400000000003
1805,1.804999,71270,72884992,-427.62,-203.41,-2995.1400000000003
1806,1.805999,71271,72885992,-2551.62,313.59,-3480.1400000000003
1807,1.806999,71272,72886992,4665.38,360.59,-4855.14
1808,1.808000,71273,72887993,14050.38,63.59,-4663.14
1809,1.809000,71274,72888993,19555.38,-210.41,-1378.1400000000003
1810,1.810000,71275,72889993,13732.38,155.59,-648.1400000000003
1811,1.811000,71276,72890993,450.38,704.59,-297.1400000000003
1812,1.811999,71277,72891992,-9067.62,740.59,2923.8599999999997
1813,1.813000,71278,72892993,-8748.62,126.59,3977.8599999999997
1814,1.814000,71279,72893993,-2140.62,-318.41,2774.8599999999997
1815,1.814999,71280,72894992,4618.38,-897.41,3763.8599999999997
1816,1.816000,71281,72895993,4051.38,-666.41,2881.8599999999997
1817,1.817000,71282,72896993,-2442.62,76.59,151.85999999999967
1818,1.818000,71283,72897993,-9518.62,-338.41,1125.8599999999997
1819,1.819000,71284,72898993,-20003.62,-1127.41,3107.8599999999997
1820,1.819999,71285,72899992,-20983.62,-407.41,2499.8599999999997
1821,1.821000,71286,72900993,-16603.62,-7.41,1564.8599999999997
1822,1.822000,71287,72901993,-6504.62,-348.41,2777.8599999999997
1823,1.822999,71288,72902992,4070.38,226.59,2320.8599999999997
1824,1.824000,71289,72903993,5969.38,-29.41,349.8599999999997
1825,1.825000,71290,72904993,4590.38,233.59,-676.1400000000003
1826,1.825999,71291,72905992,2915.38,997.59,-2187.1400000000003
1827,1.827000,71292,72906993,5605.38,950.59,-3087.1400000000003
1828,1.828000,71293,72907993,6966.38,311.59,-2686.1400000000003
1829,1.828999,71294,72908992,6536.38,-505.41,-2109.1400000000003
1830,1.830000,71295,72909993,835.38,-387.41,-2786.1400000000003
1831,1.831000,71296,72910993,-3228.62,437.59,-3547.1400000000003
1832,1.831999,71297,72911992,2803.38,401.59,-4677.14
1833,1.833000,71298,72912993,12607.38,-80.41,-4969.14
1834,1.834000,71299,72913993,19585.38,-237.41,-1873.1400000000003
1835,1.835000,71300,72914993,15239.38,61.59,-745.1400000000003
1836,1.836000,71301,72915993,2640.38,709.59,-775.1400000000003
1837,1.837000,71302,72916993,-8124.62,831.59,2352.8599999999997
1838,1.838000,71303,72917993,-8996.62,165.59,4061.8599999999997
1839,1.838999,71304,72918992,-2810.62,-229.41,2852.8599999999997
1840,1.840000,71305,72919993,3340.38,-834.41,3598.8599999999997
1841,1.841000,71306,72920993,4577.38,-784.41,3486.8599999999997
1842,1.842000,71307,72921993,-1801.62,75.59,470.8599999999997
1843,1.843000,71308,72922993,-8335.62,-272.41,737.8599999999997
1844,1.844000,71309,72923993,-17673.62,-1215.41,3048.8599999999997
1845,1.844999,71310,72924992,-20540.62,-466.41,2913.8599999999997
1846,1.846000,71311,72925993,-18213.62,268.59,1611.8599999999997
1847,1.847000,71312,72926993,-9035.62,-294.41,2359.8599999999997
1848,1.848000,71313,72927993,2586.38,133.59,2541.8599999999997
1849,1.849000,71314,72928993,5727.38,-9.41,652.8599999999997
1850,1.850000,71315,72929993,5082.38,65.59,-475.1400000000003
1851,1.851000,71316,72930993,2651.38,853.59,-1990.1400000000003
1852,1.852000,71317,72931993,5218.38,1008.59,-3038.1400000000003
1853,1.853000,71318,72932993,7312.38,418.59,-2794.1400000000003
1854,1.854000,71319,72933993,7244.38,-579.41,-2292.1400000000003
1855,1.855000,71320,72934993,1746.38,-288.41,-2810.1400000000003
1856,1.856000,71321,72935993,-3770.62,352.59,-3478.1400000000003
1857,1.857000,71322,72936993,1942.38,255.59,-4163.14
1858,1.858000,71323,72937993,10842.38,115.59,-5102.14
1859,1.859000,71324,72938993,19103.38,-304.41,-2542.1400000000003
1860,1.860000,71325,72939993,17258.38,-136.41,-589.1400000000003
1861,1.861000,71326,72940993,4449.38,685.59,-855.1400000000003
1862,1.861999,71327,72941992,-6812.62,924.59,1700.8599999999997
1863,1.863000,71328,72942993,-9712.62,204.59,4119.86
1864,1.864000,71329,72943993,-4095.62,-182.41,3225.8599999999997
1865,1.864999,71330,72944992,2438.38,-631.41,3306.8599999999997
1866,1.866000,71331,72945993,4859.38,-874.41,3667.8599999999997
1867,1.866999,71332,72946992,242.38,-125.41,1029.8599999999997
1868,1.868000,71333,72947993,-6654.62,-231.41,584.8599999999997
1869,1.869000,71334,72948993,-16964.62,-1050.41,2639.8599999999997
1870,1.870000,71335,72949993,-21538.62,-660.41,2755.8599999999997
1871,1.871000,71336,72950993,-19350.62,301.59,1570.8599999999997
1872,1.872000,71337,72951993,-10877.62,-145.41,2206.8599999999997
1873,1.873000,71338,72952993,1502.38,-101.41,2695.8599999999997
