row,seconds,esp32_index,micros,ax,ay,az
0,0.000000,99,1714010,-8522.66,3354.69,1342.1499999999996
1,0.001000,100,1715010,10012.34,1086.69,7069.15
2,0.002000,101,1716010,24005.34,-1339.31,8603.15
3,0.002999,102,1717009,32124.34,-2849.31,6027.15
4,0.004000,103,1718010,29884.34,-2312.31,2321.1499999999996
5,0.005000,104,1719010,16415.34,253.69,-1621.8500000000004
6,0.005999,105,1720009,486.34000000000003,1829.69,-7581.85
7,0.006999,106,1721009,-13074.66,2460.69,-14907.85
8,0.008000,107,1722010,-23850.66,3245.69,-16401.85
9,0.009000,108,1723010,-22220.66,2185.69,-10273.85
10,0.010000,109,1724010,-9388.66,419.69,-4787.85
11,0.011000,110,1725010,4026.34,-1497.31,-3125.8500000000004
12,0.012000,111,1726010,19935.34,-1372.31,-1784.8500000000004
13,0.013000,112,1727010,24040.34,616.69,643.1499999999996
14,0.014000,113,1728010,19389.34,-306.31,4065.1499999999996
15,0.015000,114,1729010,6129.34,-2156.31,8188.15
16,0.015999,115,1730009,-4967.66,-2129.31,10237.15
17,0.017000,116,1731010,-6922.66,-1034.31,6178.15
18,0.017999,117,1732009,-7321.66,-846.31,3314.1499999999996
19,0.019000,118,1733010,1617.3400000000001,-1702.31,3990.1499999999996
20,0.020000,119,1734010,6071.34,-2952.31,3546.1499999999996
21,0.021000,120,1735010,4479.34,-3319.31,3457.1499999999996
22,0.022000,121,1736010,-2328.66,-2937.31,5479.15
23,0.023000,122,1737010,-13249.66,-1943.31,7563.15
24,0.024000,123,1738010,-21725.66,1465.69,-1727.8500000000004
25,0.025000,124,1739010,-24115.66,6367.69,-12094.85
26,0.026000,125,1740010,-18832.66,6572.69,-7794.85
27,0.027000,126,1741010,-4001.66,3335.69,2489.1499999999996
28,0.027999,127,1742009,15768.34,-279.31,9376.15
29,0.029000,128,1743010,28593.34,-3112.31,10345.15
30,0.030000,129,1744010,32567.34,-2582.31,6405.15
31,0.031000,130,1745010,26737.34,-1478.31,706.1499999999996
32,0.032000,131,1746010,11343.34,250.69,-5646.85
33,0.033000,132,1747010,-4057.66,2632.69,-11430.85
34,0.034000,133,1748010,-18401.66,3379.69,-14923.85
35,0.035000,134,1749010,-24682.66,1895.69,-13308.85
36,0.036000,135,1750010,-16342.66,1404.69,-8156.85
37,0.036999,136,1751009,-8018.66,664.69,-5337.85
38,0.038000,137,1752010,9038.34,-1285.31,-3412.8500000000004
39,0.039000,138,1753010,22202.34,-699.31,-683.8500000000004
40,0.039999,139,1754009,22025.34,302.69,1831.1499999999996
41,0.041000,140,1755010,17368.34,-883.31,5404.15
42,0.042000,141,1756010,2281.34,-2269.31,8364.15
43,0.043000,142,1757010,-4401.66,-2066.31,8836.15
44,0.043999,143,1758009,-6837.66,-673.31,4804.15
45,0.045000,144,1759010,-7006.66,-1247.31,4495.15
46,0.046000,145,1760010,3532.34,-2498.31,5453.15
47,0.047000,146,1761010,6428.34,-3176.31,3572.1499999999996
48,0.047999,147,1762009,2439.34,-3110.31,3437.1499999999996
49,0.049000,148,1763010,-4196.66,-2443.31,5872.15
50,0.050000,149,1764010,-16429.66,85.69,3228.1499999999996
51,0.050999,150,1765009,-25319.66,4033.69,-7012.85
52,0.052000,151,1766010,-21510.66,5386.69,-9262.85
53,0.053000,152,1767010,-13766.66,4111.69,-1695.8500000000004
54,0.053999,153,1768009,268.34000000000003,1907.69,6513.15
55,0.055000,154,1769010,21008.34,-579.31,8250.15
56,0.056000,155,1770010,32117.34,-2901.31,7546.15
57,0.057000,156,1771010,31782.34,-2828.31,6467.15
58,0.058000,157,1772010,21755.34,-316.31,3.149999999999636
59,0.059000,158,1773010,5829.34,1980.69,-10240.85
60,0.059999,159,1774009,-8999.66,3503.69,-16600.85
61,0.061000,160,1775010,-20724.66,2922.69,-14662.85
62,0.062000,161,1776010,-24259.66,1010.69,-8212.85
63,0.063000,162,1777010,-14550.66,60.69,-4518.85
64,0.064000,163,1778010,-1212.6599999999999,-598.31,-5365.85
65,0.065000,164,1779010,13672.34,-607.31,-4726.85
66,0.065999,165,1780009,23536.34,-28.310000000000002,-699.8500000000004
67,0.066999,166,1781009,22002.34,13.689999999999998,4537.15
68,0.068000,167,1782010,11697.34,-1962.31,9093.15
69,0.069000,168,1783010,1156.3400000000001,-2588.31,9634.15
70,0.070000,169,1784010,-6403.66,865.69,3023.1499999999996
71,0.070999,170,1785009,-8989.66,-52.31,2828.1499999999996
72,0.072000,171,1786010,-2327.66,-2851.31,6996.15
73,0.072999,172,1787009,2948.34,-2751.31,4689.15
74,0.074000,173,1788010,5264.34,-3849.31,2757.1499999999996
75,0.074999,174,1789009,1495.3400000000001,-3737.31,4363.15
76,0.076000,175,1790010,-8823.66,-2115.31,7282.15
77,0.076999,176,1791009,-18782.66,832.69,1423.1499999999996
78,0.078000,177,1792010,-23251.66,4799.69,-8668.85
79,0.079000,178,1793010,-19882.66,6835.69,-10267.85
80,0.080000,179,1794010,-10263.66,5387.69,-2762.8500000000004
81,0.081000,180,1795010,6814.34,629.69,7705.15
82,0.082000,181,1796010,23720.34,-3112.31,12586.15
83,0.082999,182,1797009,32141.34,-2728.31,6026.15
84,0.084000,183,1798010,28876.34,-1659.31,1425.1499999999996
85,0.085000,184,1799010,18068.34,-865.31,638.1499999999996
86,0.086000,185,1800010,2434.34,1641.69,-6575.85
87,0.087000,186,1801010,-14115.66,3488.69,-14923.85
88,0.088000,187,1802010,-21836.66,2946.69,-17845.85
89,0.089000,188,1803010,-21111.66,2581.69,-12909.85
90,0.090000,189,1804010,-12717.66,1277.69,-4732.85
91,0.090999,190,1805009,2752.34,-1857.31,-1304.8500000000004
92,0.092000,191,1806010,20152.34,-2093.31,-1089.8500000000004
93,0.092999,192,1807009,25379.34,389.69,-57.850000000000364
94,0.094000,193,1808010,18743.34,318.69,2292.1499999999996
95,0.095000,194,1809010,6915.34,-2125.31,7393.15
96,0.095999,195,1810009,-3664.66,-3011.31,11424.15
97,0.097000,196,1811010,-6860.66,-917.31,8854.15
98,0.098000,197,1812010,-7674.66,346.69,717.1499999999996
99,0.099000,198,1813010,-690.66,-1688.31,2255.1499999999996
100,0.100000,199,1814010,5030.34,-3964.31,7711.15
101,0.100999,200,1815009,4327.34,-4006.31,4695.15
102,0.102000,201,1816010,-108.65999999999997,-3007.31,4212.15
103,0.103000,202,1817010,-10213.66,-1481.31,4359.15
104,0.104000,203,1818010,-23263.66,3089.69,-3993.8500000000004
105,0.104999,204,1819009,-25685.66,6169.69,-8807.85
106,0.106000,205,1820010,-16838.66,4745.69,-4146.85
107,0.107000,206,1821010,-4454.66,2458.69,1921.1499999999996
108,0.108000,207,1822010,14255.34,827.69,6550.15
109,0.108999,208,1823009,27089.34,-1516.31,7478.15
110,0.110000,209,1824010,33557.34,-3116.31,6012.15
111,0.111000,210,1825010,26137.34,-2199.31,3852.1499999999996
112,0.112000,211,1826010,12024.34,-251.31,-1916.8500000000004
113,0.113000,212,1827010,-3341.66,3241.69,-12374.85
114,0.114000,213,1828010,-18252.66,4045.69,-18875.85
115,0.114999,214,1829009,-22380.66,2224.69,-13704.85
116,0.116000,215,1830010,-19053.66,1382.69,-6852.85
117,0.117000,216,1831010,-8017.66,201.69,-4261.85
118,0.118000,217,1832010,9046.34,-1395.31,-3215.8500000000004
119,0.119000,218,1833010,22893.34,-605.31,-2440.8500000000004
120,0.119999,219,1834009,23690.34,469.69,1090.1499999999996
121,0.120999,220,1835009,15549.34,-1244.31,6480.15
122,0.122000,221,1836010,2980.34,-2873.31,10696.15
123,0.123000,222,1837010,-4119.66,-2234.31,10563.15
124,0.124000,223,1838010,-8764.66,-452.31,3992.1499999999996
125,0.125000,224,1839010,-7019.66,-825.31,738.1499999999996
126,0.125999,225,1840009,4910.34,-2252.31,4120.15
127,0.127000,226,1841010,5490.34,-2618.31,4649.15
128,0.128000,227,1842010,2478.34,-3102.31,4418.15
129,0.128999,228,1843009,-4387.66,-3385.31,6046.15
130,0.129999,229,1844009,-16131.66,-1640.31,5619.15
131,0.131000,230,1845010,-21723.66,3006.69,-2381.8500000000004
132,0.131999,231,1846009,-22823.66,6880.69,-11584.85
133,0.133000,232,1847010,-14161.66,6360.69,-9588.85
134,0.134000,233,1848010,1034.3400000000001,3198.69,1651.1499999999996
135,0.134999,234,1849009,17028.34,-1082.31,12442.15
136,0.135999,235,1850009,28619.34,-3796.31,12108.15
137,0.137000,236,1851010,32994.34,-3010.31,2921.1499999999996
138,0.138000,237,1852010,21727.34,-960.31,-1282.8500000000004
139,0.138999,238,1853009,7247.34,759.69,-4903.85
140,0.139999,239,1854009,-5715.66,1627.69,-10550.85
141,0.141000,240,1855010,-21013.66,2788.69,-14322.85
142,0.142000,241,1856010,-21712.66,3520.69,-14413.85
143,0.143000,242,1857010,-15207.66,2198.69,-9250.85
144,0.144000,243,1858010,-3817.66,114.69,-4158.85
145,0.145000,244,1859010,13499.34,-1102.31,-2787.8500000000004
146,0.146000,245,1860010,22308.34,-325.31,-1416.8500000000004
147,0.146999,246,1861009,22949.34,290.69,2325.1499999999996
148,0.148000,247,1862010,12785.34,-1550.31,6551.15
149,0.149000,248,1863010,-1337.6599999999999,-3034.31,10267.15
150,0.150000,249,1864010,-7740.66,-2795.31,12156.15
151,0.150999,250,1865009,-7553.66,-1396.31,5309.15
152,0.152000,251,1866010,-1240.6599999999999,-684.31,313.14999999999964
153,0.153000,252,1867010,3081.34,-1983.31,3702.1499999999996
154,0.154000,253,1868010,6678.34,-3333.31,4391.15
155,0.155000,254,1869010,2807.34,-3046.31,4288.15
156,0.155999,255,1870009,-7347.66,-1836.31,5368.15
157,0.157000,256,1871010,-18137.66,53.69,3129.1499999999996
158,0.158000,257,1872010,-24975.66,4309.69,-6888.85
159,0.159000,258,1873010,-23665.66,6941.69,-11547.85
160,0.160000,259,1874010,-11765.66,3233.69,-2280.8500000000004
161,0.161000,260,1875010,7046.34,478.69,7780.15
162,0.162000,261,1876010,23462.34,-746.31,11089.15
163,0.162999,262,1877009,33462.34,-2655.31,7883.15
164,0.163999,263,1878009,30323.34,-2014.31,2841.1499999999996
165,0.165000,264,1879010,18706.34,-330.31,-2493.8500000000004
166,0.166000,265,1880010,2200.34,2190.69,-9823.85
167,0.167000,266,1881010,-13693.66,3071.69,-13646.85
168,0.168000,267,1882010,-23061.66,2195.69,-13410.85
169,0.169000,268,1883010,-21436.66,1831.69,-10414.85
170,0.170000,269,1884010,-11391.66,1158.69,-6371.85
171,0.171000,270,1885010,2580.34,-517.31,-4215.85
172,0.172000,271,1886010,18145.34,-1099.31,-3139.8500000000004
173,0.173000,272,1887010,23902.34,56.69,-337.85000000000036
174,0.173999,273,1888009,20433.34,-405.31,4844.15
175,0.175000,274,1889010,7004.34,-2342.31,9191.15
176,0.176000,275,1890010,-3294.66,-2676.31,10539.15
177,0.177000,276,1891010,-6839.66,-1974.31,9510.15
178,0.178000,277,1892010,-5642.66,-772.31,2700.1499999999996
179,0.179000,278,1893010,-661.66,650.69,-1987.8500000000004
180,0.179999,279,1894009,5084.34,-2452.31,3560.1499999999996
181,0.181000,280,1895010,6624.34,-4911.31,7074.15
182,0.182000,281,1896010,-2891.66,-2929.31,4934.15
183,0.182999,282,1897009,-12107.66,-1514.31,5332.15
184,0.183999,283,1898009,-21779.66,752.69,-647.8500000000004
185,0.185000,284,1899010,-23245.66,4906.69,-8745.85
186,0.186000,285,1900010,-17816.66,6744.69,-7688.85
187,0.187000,286,1901010,-7292.66,4679.69,-2187.8500000000004
188,0.188000,287,1902010,11359.34,248.69,7867.15
189,0.189000,288,1903010,27017.34,-2755.31,12456.15
190,0.190000,289,1904010,33788.34,-2762.31,5771.15
191,0.191000,290,1905010,26564.34,-1714.31,590.1499999999996
192,0.191999,291,1906009,13865.34,-606.31,4.149999999999636
193,0.193000,292,1907010,-2009.6599999999999,2084.69,-8295.85
194,0.194000,293,1908010,-18169.66,4385.69,-17453.85
195,0.194999,294,1909009,-22742.66,2321.69,-15498.85
196,0.195999,295,1910009,-19196.66,1359.69,-9512.85
197,0.197000,296,1911010,-8339.66,1061.69,-5160.85
198,0.198000,297,1912010,7254.34,-1108.31,-3663.8500000000004
199,0.198999,298,1913009,21547.34,-426.31,-3034.8500000000004
200,0.200000,299,1914010,23688.34,922.69,-37.850000000000364
201,0.201000,300,1915010,17635.34,-1035.31,5391.15
202,0.202000,301,1916010,3672.34,-3288.31,11072.15
203,0.203000,302,1917010,-5926.66,-3434.31,13520.15
204,0.204000,303,1918010,-6675.66,-1856.31,8880.15
205,0.205000,304,1919010,-4434.66,512.69,-815.8500000000004
206,0.206000,305,1920010,1281.3400000000001,-817.31,89.14999999999964
207,0.207000,306,1921010,6579.34,-3674.31,6658.15
208,0.208000,307,1922010,4630.34,-3683.31,4620.15
209,0.209000,308,1923010,-4238.66,-2897.31,3522.1499999999996
210,0.210000,309,1924010,-16630.66,-825.31,4573.15
211,0.211000,310,1925010,-22965.66,2408.69,-2822.8500000000004
212,0.212000,311,1926010,-23648.66,5835.69,-9820.85
213,0.212999,312,1927009,-16878.66,5975.69,-6314.85
214,0.214000,313,1928010,1085.3400000000001,2736.69,2308.1499999999996
215,0.215000,314,1929010,16692.34,-489.31,10123.15
216,0.215999,315,1930009,30588.34,-2611.31,10603.15
217,0.217000,316,1931010,32657.34,-2178.31,3174.1499999999996
218,0.217999,317,1932009,23185.34,-1535.31,333.14999999999964
219,0.219000,318,1933010,8948.34,-272.31,-1912.8500000000004
220,0.220000,319,1934010,-7110.66,2929.69,-13477.85
221,0.220999,320,1935009,-18280.66,4013.69,-18229.85
222,0.222000,321,1936010,-24531.66,1842.69,-12249.85
223,0.223000,322,1937010,-16661.66,781.69,-6047.85
224,0.224000,323,1938010,-3776.66,566.69,-3816.8500000000004
225,0.225000,324,1939010,12010.34,-763.31,-4562.85
226,0.226000,325,1940010,23565.34,-35.31,-3177.8500000000004
227,0.227000,326,1941010,22044.34,519.69,963.1499999999996
228,0.228000,327,1942010,12575.34,-1222.31,7296.15
229,0.229000,328,1943010,-292.65999999999997,-3432.31,12742.15
230,0.230000,329,1944010,-5088.66,-3062.31,12486.15
231,0.231000,330,1945010,-6832.66,-1193.31,5388.15
232,0.231999,331,1946009,-1105.6599999999999,-131.31,-1388.8500000000004
233,0.233000,332,1947010,3186.34,-1478.31,981.1499999999996
234,0.234000,333,1948010,4807.34,-3790.31,6266.15
235,0.235000,334,1949010,2599.34,-3712.31,5654.15
236,0.236000,335,1950010,-7637.66,-2479.31,5361.15
237,0.237000,336,1951010,-18078.66,147.69,3134.1499999999996
238,0.238000,337,1952010,-24559.66,4193.69,-5612.85
239,0.238999,338,1953009,-22106.66,6845.69,-10667.85
240,0.239999,339,1954009,-10926.66,4828.69,-5440.85
241,0.241000,340,1955010,5305.34,1518.69,5004.15
242,0.242000,341,1956010,19702.34,-1201.31,11330.15
243,0.242999,342,1957009,31618.34,-3053.31,8847.15
244,0.244000,343,1958010,30955.34,-2442.31,2375.1499999999996
245,0.245000,344,1959010,19680.34,-1373.31,-130.85000000000036
246,0.246000,345,1960010,2920.34,801.69,-4778.85
247,0.247000,346,1961010,-9943.66,3217.69,-13818.85
248,0.247999,347,1962009,-19509.66,3317.69,-16289.85
249,0.249000,348,1963010,-23685.66,2018.69,-11446.85
250,0.250000,349,1964010,-12318.66,1473.69,-6540.85
251,0.250999,350,1965009,1113.3400000000001,328.69,-5034.85
252,0.252000,351,1966010,16105.34,-684.31,-4562.85
253,0.253000,352,1967010,23415.34,294.69,-1556.8500000000004
254,0.254000,353,1968010,19613.34,-43.31,3547.1499999999996
255,0.255000,354,1969010,10160.34,-2451.31,9923.15
256,0.256000,355,1970010,-3633.66,-3780.31,12843.15
257,0.257000,356,1971010,-6770.66,-2795.31,11494.15
258,0.258000,357,1972010,-4391.66,-936.31,4314.15
259,0.259000,358,1973010,-190.65999999999997,-147.31,-1777.8500000000004
260,0.259999,359,1974009,5482.34,-2063.31,3103.1499999999996
261,0.261000,360,1975010,3904.34,-4020.31,6671.15
262,0.262000,361,1976010,-687.66,-3433.31,4601.15
263,0.263000,362,1977010,-8985.66,-1228.31,3525.1499999999996
264,0.264000,363,1978010,-22374.66,1676.69,-2334.8500000000004
265,0.264999,364,1979009,-24300.66,4980.69,-7662.85
266,0.265999,365,1980009,-19781.66,6253.69,-6424.85
267,0.267000,366,1981010,-7584.66,3674.69,-2211.8500000000004
268,0.268000,367,1982010,11121.34,630.69,6434.15
269,0.268999,368,1983009,23268.34,-1961.31,11670.15
270,0.269999,369,1984009,32831.34,-3017.31,7975.15
271,0.271000,370,1985010,27405.34,-1919.31,1328.1499999999996
272,0.271999,371,1986009,17094.34,-432.31,-1450.8500000000004
273,0.273000,372,1987010,1055.3400000000001,1870.69,-7744.85
274,0.274000,373,1988010,-16275.66,4243.69,-16811.85
275,0.275000,374,1989010,-22235.66,2314.69,-15589.85
276,0.276000,375,1990010,-20064.66,686.69,-8388.85
277,0.277000,376,1991010,-9536.66,1085.69,-4075.8500000000004
278,0.278000,377,1992010,3937.34,-843.31,-4250.85
279,0.279000,378,1993010,20671.34,-480.31,-4188.85
280,0.280000,379,1994010,22883.34,696.69,-873.8500000000004
281,0.281000,380,1995010,19159.34,-386.31,5236.15
282,0.281999,381,1996009,5807.34,-2470.31,10618.15
283,0.282999,382,1997009,-5906.66,-3553.31,12736.15
284,0.284000,383,1998010,-6579.66,-1550.31,7994.15
285,0.285000,384,1999010,-5224.66,186.69,-823.8500000000004
286,0.286000,385,2000010,1936.3400000000001,-1121.31,313.14999999999964
287,0.287000,386,2001010,5128.34,-3485.31,7331.15
288,0.288000,387,2002010,4307.34,-3883.31,5962.15
289,0.289000,388,2003010,-2807.66,-2780.31,2886.1499999999996
290,0.290000,389,2004010,-12443.66,-1550.31,5236.15
291,0.291000,390,2005010,-22991.66,2123.69,-1434.8500000000004
292,0.292000,391,2006010,-23431.66,5876.69,-9819.85
293,0.293000,392,2007010,-16390.66,5818.69,-6946.85
294,0.294000,393,2008010,-3715.66,3405.69,456.14999999999964
295,0.294999,394,2009009,14211.34,174.69,9021.15
296,0.295999,395,2010009,28122.34,-2796.31,10955.15
297,0.297000,396,2011010,33004.34,-2904.31,4958.15
298,0.298000,397,2012010,23215.34,-1202.31,1254.1499999999996
299,0.299000,398,2013010,10480.34,71.69,-2078.8500000000004
300,0.299999,399,2014009,-3105.66,2075.69,-11671.85
301,0.301000,400,2015010,-16396.66,3276.69,-17204.85
302,0.302000,401,2016010,-24130.66,2935.69,-14680.85
303,0.303000,402,2017010,-17830.66,1832.69,-8669.85
304,0.304000,403,2018010,-4783.66,43.69,-3097.8500000000004
305,0.304999,404,2019009,9171.34,-1374.31,-2713.8500000000004
306,0.306000,405,2020010,21955.34,-361.31,-2588.8500000000004
307,0.307000,406,2021010,22267.34,767.69,84.14999999999964
308,0.308000,407,2022010,15471.34,-1188.31,6004.15
309,0.309000,408,2023010,2350.34,-3237.31,11971.15
310,0.309999,409,2024009,-6369.66,-2658.31,11391.15
311,0.310999,410,2025009,-8262.66,-1105.31,6430.15
312,0.311999,411,2026009,-4069.66,-56.31,1584.1499999999996
313,0.313000,412,2027010,4730.34,-1079.31,429.14999999999964
314,0.314000,413,2028010,5882.34,-3821.31,5395.15
315,0.315000,414,2029010,1167.3400000000001,-4027.31,6305.15
316,0.316000,415,2030010,-4224.66,-2524.31,4137.15
317,0.317000,416,2031010,-15395.66,134.69,1289.1499999999996
318,0.317999,417,2032009,-22957.66,3193.69,-5140.85
319,0.319000,418,2033010,-20500.66,5460.69,-6671.85
320,0.320000,419,2034010,-15394.66,5573.69,-5074.85
321,0.321000,420,2035010,1711.3400000000001,2642.69,714.1499999999996
322,0.322000,421,2036010,18562.34,-846.31,9572.15
323,0.323000,422,2037010,29556.34,-2795.31,11034.15
324,0.324000,423,2038010,30527.34,-2679.31,4616.15
325,0.325000,424,2039010,19606.34,-1864.31,815.1499999999996
326,0.326000,425,2040010,8711.34,962.69,-6566.85
327,0.327000,426,2041010,-8871.66,4031.69,-15782.85
328,0.328000,427,2042010,-20221.66,2097.69,-12619.85
329,0.328999,428,2043009,-20213.66,464.69,-8889.85
330,0.330000,429,2044010,-13862.66,2059.69,-7447.85
331,0.331000,430,2045010,-3056.66,1424.69,-6225.85
332,0.332000,431,2046010,13576.34,-554.31,-6203.85
333,0.333000,432,2047010,23448.34,179.69,-2223.8500000000004
334,0.334000,433,2048010,19515.34,247.69,4018.1499999999996
335,0.335000,434,2049010,11036.34,-2414.31,9164.15
336,0.336000,435,2050010,-436.65999999999997,-3981.31,11445.15
337,0.337000,436,2051010,-5709.66,-2299.31,10882.15
338,0.338000,437,2052010,-4872.66,350.69,1088.1499999999996
339,0.339000,438,2053010,-3565.66,-282.31,-2145.8500000000004
340,0.340000,439,2054010,3002.34,-3359.31,7705.15
341,0.341000,440,2055010,6267.34,-4208.31,7411.15
342,0.342000,441,2056010,439.34000000000003,-2566.31,3126.1499999999996
343,0.343000,442,2057010,-7014.66,-2050.31,5518.15
344,0.344000,443,2058010,-18653.66,379.69,1929.1499999999996
345,0.345000,444,2059010,-24102.66,4880.69,-8008.85
346,0.346000,445,2060010,-19154.66,6494.69,-10695.85
347,0.347000,446,2061010,-11518.66,4997.69,-3000.8500000000004
348,0.348000,447,2062010,5790.34,1151.69,7353.15
349,0.349000,448,2063010,22643.34,-2287.31,10837.15
350,0.350000,449,2064010,31444.34,-3168.31,7188.15
351,0.351000,450,2065010,29570.34,-2409.31,3378.1499999999996
352,0.352000,451,2066010,18578.34,-579.31,-306.85000000000036
353,0.353000,452,2067010,4371.34,2006.69,-7806.85
354,0.354000,453,2068010,-13946.66,3195.69,-14992.85
355,0.355000,454,2069010,-22522.66,2618.69,-15752.85
356,0.356000,455,2070010,-20612.66,1943.69,-11273.85
357,0.356999,456,2071009,-12419.66,1146.69,-5584.85
358,0.357999,457,2072009,892.34,-711.31,-3155.8500000000004
359,0.359000,458,2073010,18620.34,-1332.31,-2792.8500000000004
360,0.359999,459,2074009,24871.34,313.69,-792.8500000000004
361,0.360999,460,2075009,20559.34,-109.31,3654.1499999999996
362,0.362000,461,2076010,8622.34,-2497.31,10066.15
363,0.362999,462,2077009,-5352.66,-3294.31,12283.15
364,0.364000,463,2078010,-8296.66,-953.31,7552.15
365,0.365000,464,2079010,-6701.66,293.69,-196.85000000000036
366,0.366000,465,2080010,1992.3400000000001,-1364.31,1150.1499999999996
367,0.367000,466,2081010,6034.34,-2885.31,6942.15
368,0.368000,467,2082010,3505.34,-3536.31,4556.15
369,0.369000,468,2083010,-114.65999999999997,-3496.31,3474.1499999999996
370,0.369999,469,2084009,-10929.66,-2457.31,6423.15
371,0.371000,470,2085010,-22481.66,979.69,1376.1499999999996
372,0.372000,471,2086010,-23205.66,5865.69,-9417.85
373,0.373000,472,2087010,-18885.66,6890.69,-10512.85
374,0.374000,473,2088010,-6089.66,2936.69,-802.8500000000004
375,0.375000,474,2089010,12631.34,611.69,8660.15
376,0.376000,475,2090010,23866.34,-1138.31,10035.15
377,0.377000,476,2091010,33060.34,-3383.31,6888.15
378,0.377999,477,2092009,27836.34,-2606.31,3766.1499999999996
379,0.378999,478,2093009,14831.34,-104.31,-1213.8500000000004
380,0.380000,479,2094010,-2191.66,2297.69,-10880.85
381,0.380999,480,2095009,-17512.66,3776.69,-16114.85
382,0.382000,481,2096010,-21411.66,2935.69,-15239.85
383,0.383000,482,2097010,-19911.66,1881.69,-11312.85
384,0.384000,483,2098010,-9458.66,1227.69,-5085.85
385,0.385000,484,2099010,7297.34,-1369.31,-2707.8500000000004
386,0.385999,485,2100009,22172.34,-1087.31,-2441.8500000000004
387,0.387000,486,2101010,22901.34,988.69,-925.8500000000004
388,0.388000,487,2102010,16712.34,-821.31,5298.15
389,0.389000,488,2103010,4807.34,-3803.31,12003.15
390,0.389999,489,2104009,-6440.66,-3284.31,13783.15
391,0.391000,490,2105010,-5826.66,-1404.31,7263.15
392,0.391999,491,2106009,-4892.66,250.69,36.149999999999636
393,0.393000,492,2107010,578.34,-596.31,1949.1499999999996
394,0.394000,493,2108010,7889.34,-3694.31,4865.15
395,0.395000,494,2109010,4130.34,-3901.31,3916.1499999999996
396,0.396000,495,2110010,-3684.66,-2802.31,4900.15
397,0.396999,496,2111009,-14941.66,-1234.31,4914.15
398,0.398000,497,2112010,-23517.66,2866.69,-2827.8500000000004
399,0.399000,498,2113010,-24033.66,6236.69,-10472.85
400,0.400000,499,2114010,-17355.66,5788.69,-7210.85
401,0.401000,500,2115010,-1207.6599999999999,2728.69,1947.1499999999996
402,0.402000,501,2116010,16840.34,-364.31,9593.15
403,0.402999,502,2117009,29892.34,-2395.31,9887.15
404,0.403999,503,2118009,33470.34,-3117.31,5112.15
405,0.405000,504,2119010,23858.34,-1258.31,1343.1499999999996
406,0.406000,505,2120010,7829.34,1325.69,-3542.8500000000004
407,0.407000,506,2121010,-4669.66,2320.69,-12081.85
408,0.408000,507,2122010,-17338.66,3131.69,-17120.85
409,0.409000,508,2123010,-25906.66,2412.69,-12802.85
410,0.410000,509,2124010,-16925.66,1006.69,-6966.85
411,0.411000,510,2125010,-2911.66,627.69,-4691.85
412,0.411999,511,2126009,12693.34,-464.31,-4344.85
413,0.413000,512,2127010,21430.34,4.689999999999998,-2980.8500000000004
414,0.414000,513,2128010,20590.34,35.69,1271.1499999999996
415,0.415000,514,2129010,13165.34,-2104.31,7910.15
416,0.416000,515,2130010,1113.3400000000001,-4136.31,13547.15
417,0.416999,516,2131009,-4553.66,-2583.31,11189.15
418,0.417999,517,2132009,-7797.66,644.69,2427.1499999999996
419,0.419000,518,2133010,-2208.66,-385.31,603.1499999999996
420,0.420000,519,2134010,3926.34,-2741.31,4075.1499999999996
421,0.421000,520,2135010,5755.34,-3420.31,5166.15
422,0.421999,521,2136009,3109.34,-3317.31,3633.1499999999996
423,0.423000,522,2137010,-6698.66,-2359.31,5070.15
424,0.424000,523,2138010,-18295.66,-373.31,4792.15
425,0.425000,524,2139010,-24426.66,3569.69,-4902.85
426,0.426000,525,2140010,-21972.66,6609.69,-11313.85
427,0.427000,526,2141010,-13904.66,5393.69,-6372.85
428,0.428000,527,2142010,4201.34,2169.69,4256.15
429,0.428999,528,2143009,21533.34,-1612.31,12637.15
430,0.430000,529,2144010,31385.34,-2951.31,8256.15
431,0.431000,530,2145010,29760.34,-2127.31,2693.1499999999996
432,0.432000,531,2146010,20588.34,-1833.31,1860.1499999999996
433,0.433000,532,2147010,7700.34,914.69,-5264.85
434,0.434000,533,2148010,-11162.66,3578.69,-14137.85
435,0.434999,534,2149009,-21719.66,3324.69,-17488.85
436,0.436000,535,2150010,-21414.66,1884.69,-12003.85
437,0.437000,536,2151010,-13483.66,782.69,-4481.85
438,0.438000,537,2152010,-2033.6599999999999,-173.31,-3276.8500000000004
439,0.439000,538,2153010,15150.34,-1147.31,-5100.85
440,0.440000,539,2154010,24606.34,492.69,-2747.8500000000004
441,0.441000,540,2155010,19216.34,737.69,2759.1499999999996
442,0.442000,541,2156010,10184.34,-2425.31,8707.15
443,0.442999,542,2157009,-2025.6599999999999,-3727.31,12542.15
444,0.444000,543,2158010,-6963.66,-1889.31,10597.15
445,0.445000,544,2159010,-4950.66,-281.31,2409.1499999999996
446,0.446000,545,2160010,-504.65999999999997,-821.31,-23.850000000000364
447,0.447000,546,2161010,5919.34,-2502.31,4780.15
448,0.448000,547,2162010,5754.34,-3217.31,4620.15
449,0.449000,548,2163010,-301.65999999999997,-3064.31,3622.1499999999996
450,0.450000,549,2164010,-10105.66,-2678.31,6184.15
451,0.451000,550,2165010,-20305.66,35.69,4068.1499999999996
452,0.452000,551,2166010,-23676.66,4782.69,-7271.85
453,0.453000,552,2167010,-20147.66,6568.69,-11509.85
454,0.454000,553,2168010,-8878.66,5258.69,-3834.8500000000004
455,0.455000,554,2169010,7877.34,1528.69,6410.15
456,0.456000,555,2170010,22803.34,-2400.31,12443.15
457,0.456999,556,2171009,31071.34,-2846.31,6983.15
458,0.457999,557,2172009,28465.34,-2204.31,1877.1499999999996
459,0.458999,558,2173009,18165.34,-737.31,-294.85000000000036
460,0.460000,559,2174010,1777.3400000000001,1449.69,-7921.85
461,0.460999,560,2175009,-12849.66,3353.69,-13870.85
462,0.462000,561,2176010,-21842.66,3050.69,-14765.85
463,0.462999,562,2177009,-21148.66,1604.69,-11923.85
464,0.463999,563,2178009,-10123.66,1250.69,-6389.85
465,0.465000,564,2179010,5004.34,-283.31,-3235.8500000000004
466,0.466000,565,2180010,17795.34,-958.31,-3308.8500000000004
467,0.467000,566,2181010,21464.34,429.69,-876.8500000000004
468,0.467999,567,2182009,19196.34,-504.31,4406.15
469,0.469000,568,2183010,5760.34,-2506.31,9353.15
470,0.469999,569,2184009,-4563.66,-3662.31,12897.15
471,0.471000,570,2185010,-6724.66,-2642.31,10753.15
472,0.471999,571,2186009,-4591.66,231.69,443.14999999999964
473,0.473000,572,2187010,2643.34,-619.31,49.149999999999636
474,0.474000,573,2188010,6630.34,-2809.31,5727.15
475,0.474999,574,2189009,4401.34,-3034.31,3883.1499999999996
476,0.475999,575,2190009,-2016.6599999999999,-3375.31,4288.15
477,0.477000,576,2191010,-12590.66,-2136.31,4996.15
478,0.478000,577,2192010,-23787.66,1501.69,-1121.8500000000004
479,0.479000,578,2193010,-23179.66,5257.69,-8472.85
480,0.479999,579,2194009,-18105.66,6226.69,-7906.85
481,0.480999,580,2195009,-6822.66,4497.69,-1000.8500000000004
482,0.482000,581,2196010,12724.34,847.69,8081.15
483,0.483000,582,2197010,28614.34,-3032.31,11752.15
484,0.484000,583,2198010,33106.34,-3636.31,7109.15
485,0.485000,584,2199010,25914.34,-966.31,-176.85000000000036
486,0.486000,585,2200010,13620.34,1192.69,-4200.85
487,0.487000,586,2201010,-3247.66,1362.69,-8073.85
488,0.488000,587,2202010,-16044.66,2383.69,-13631.85
489,0.488999,588,2203009,-23016.66,2498.69,-14538.85
490,0.490000,589,2204010,-20080.66,2264.69,-10453.85
491,0.491000,590,2205010,-6988.66,1089.69,-5438.85
492,0.492000,591,2206010,8099.34,-1113.31,-4475.85
493,0.493000,592,2207010,21387.34,-700.31,-2553.8500000000004
494,0.494000,593,2208010,21309.34,-7.310000000000002,1627.1499999999996
495,0.495000,594,2209010,16454.34,-1302.31,5998.15
496,0.495999,595,2210009,4961.34,-2927.31,10721.15
497,0.496999,596,2211009,-5342.66,-2525.31,11476.15
498,0.497999,597,2212009,-6263.66,-1245.31,7086.15
499,0.499000,598,2213010,-4830.66,-393.31,2058.1499999999996
500,0.500000,599,2214010,2290.34,-1148.31,554.1499999999996
501,0.500999,600,2215009,6207.34,-3760.31,4989.15
502,0.502000,601,2216010,1757.3400000000001,-3797.31,5990.15
503,0.502999,602,2217009,-4125.66,-1981.31,3848.1499999999996
504,0.503999,603,2218009,-14593.66,-218.31,2401.1499999999996
505,0.505000,604,2219010,-22499.66,3047.69,-5364.85
506,0.505999,605,2220009,-23307.66,5922.69,-8065.85
507,0.507000,606,2221010,-17580.66,5350.69,-4474.85
508,0.508000,607,2222010,509.34000000000003,2078.69,2480.1499999999996
509,0.509000,608,2223010,17775.34,-476.31,8628.15
510,0.510000,609,2224010,31380.34,-2779.31,10205.15
511,0.511000,610,2225010,32241.34,-3257.31,7396.15
512,0.512000,611,2226010,22535.34,-1121.31,340.14999999999964
513,0.513000,612,2227010,9972.34,1045.69,-6832.85
514,0.514000,613,2228010,-8121.66,3773.69,-13894.85
515,0.515000,614,2229010,-20584.66,3605.69,-16256.85
516,0.516000,615,2230010,-24057.66,918.69,-11789.85
517,0.516999,616,2231009,-16181.66,957.69,-6033.85
518,0.518000,617,2232010,-4186.66,552.69,-4387.85
519,0.519000,618,2233010,13815.34,-1089.31,-5183.85
520,0.519999,619,2234009,24650.34,558.69,-3341.8500000000004
521,0.521000,620,2235010,21982.34,567.69,2743.1499999999996
522,0.522000,621,2236010,13067.34,-2617.31,9654.15
523,0.523000,622,2237010,-627.66,-3775.31,13237.15
524,0.524000,623,2238010,-5610.66,-2193.31,9857.15
525,0.525000,624,2239010,-7395.66,-801.31,3534.1499999999996
526,0.526000,625,2240010,-2268.66,-675.31,1183.1499999999996
527,0.527000,626,2241010,4563.34,-1834.31,3022.1499999999996
528,0.527999,627,2242009,5246.34,-3679.31,4703.15
529,0.529000,628,2243010,499.34000000000003,-3449.31,4144.15
530,0.530000,629,2244010,-6724.66,-2245.31,5749.15
531,0.530999,630,2245009,-19350.66,763.69,137.14999999999964
532,0.531999,631,2246009,-25536.66,4639.69,-7615.85
533,0.533000,632,2247010,-21216.66,5665.69,-6962.85
534,0.534000,633,2248010,-13149.66,5363.69,-4217.85
535,0.535000,634,2249010,6457.34,2234.69,4874.15
536,0.536000,635,2250010,22677.34,-1930.31,11201.15
537,0.536999,636,2251009,33788.34,-2938.31,7356.15
538,0.538000,637,2252010,31156.34,-3098.31,5094.15
539,0.538999,638,2253009,20106.34,-1913.31,2438.1499999999996
540,0.539999,639,2254009,4412.34,2144.69,-7657.85
541,0.541000,640,2255010,-13811.66,3971.69,-16224.85
542,0.542000,641,2256010,-21459.66,2917.69,-17349.85
543,0.543000,642,2257010,-24216.66,1910.69,-12114.85
544,0.544000,643,2258010,-13408.66,838.69,-5384.85
545,0.545000,644,2259010,874.34,-411.31,-3633.8500000000004
546,0.546000,645,2260010,17836.34,-1120.31,-3660.8500000000004
547,0.546999,646,2261009,25174.34,447.69,-2254.8500000000004
548,0.548000,647,2262010,21882.34,108.69,2600.1499999999996
549,0.548999,648,2263009,8994.34,-2596.31,10615.15
550,0.550000,649,2264010,-5366.66,-3772.31,13787.15
551,0.550999,650,2265009,-7342.66,-2308.31,10364.15
552,0.552000,651,2266010,-4804.66,-581.31,3287.1499999999996
553,0.553000,652,2267010,-712.66,-2.3100000000000023,141.14999999999964
554,0.554000,653,2268010,5148.34,-2972.31,5391.15
555,0.555000,654,2269010,7056.34,-4617.31,6112.15
556,0.556000,655,2270010,-1233.6599999999999,-2509.31,3029.1499999999996
557,0.557000,656,2271010,-11457.66,-884.31,3358.1499999999996
558,0.558000,657,2272010,-23376.66,2276.69,-2926.8500000000004
559,0.558999,658,2273009,-25431.66,5199.69,-8767.85
560,0.560000,659,2274010,-18933.66,5378.69,-5783.85
561,0.561000,660,2275010,-7837.66,3452.69,-293.85000000000036
562,0.562000,661,2276010,12018.34,653.69,7658.15
563,0.563000,662,2277010,29184.34,-2145.31,9897.15
564,0.563999,663,2278009,33788.34,-3251.31,7002.15
565,0.565000,664,2279010,28008.34,-2449.31,3823.1499999999996
566,0.566000,665,2280010,14947.34,271.69,-3000.8500000000004
567,0.567000,666,2281010,-2748.66,3047.69,-11293.85
568,0.568000,667,2282010,-17558.66,3881.69,-16477.85
569,0.569000,668,2283010,-26303.66,2436.69,-14506.85
570,0.570000,669,2284010,-20787.66,1016.69,-8532.85
571,0.571000,670,2285010,-6539.66,601.69,-4596.85
572,0.572000,671,2286010,8273.34,-1027.31,-4271.85
573,0.573000,672,2287010,22803.34,-212.31,-3651.8500000000004
574,0.574000,673,2288010,21901.34,318.69,30.149999999999636
575,0.574999,674,2289009,18413.34,-1765.31,6578.15
576,0.576000,675,2290010,2992.34,-3000.31,12182.15
577,0.577000,676,2291010,-7582.66,-2633.31,12558.15
578,0.578000,677,2292010,-4640.66,-489.31,5063.15
579,0.579000,678,2293010,-5570.66,290.69,-256.85000000000036
580,0.580000,679,2294010,1441.3400000000001,-1592.31,3991.1499999999996
581,0.581000,680,2295010,7022.34,-4290.31,5954.15
582,0.582000,681,2296010,4772.34,-4717.31,4373.15
583,0.583000,682,2297010,-4005.66,-2036.31,4816.15
584,0.583999,683,2298009,-17021.66,368.69,3649.1499999999996
585,0.585000,684,2299010,-24482.66,3326.69,-5164.85
586,0.586000,685,2300010,-24265.66,6467.69,-11206.85
587,0.586999,686,2301009,-16158.66,5304.69,-5057.85
588,0.588000,687,2302010,-241.65999999999997,1788.69,4353.15
589,0.588999,688,2303009,18986.34,-629.31,9769.15
590,0.590000,689,2304010,33155.34,-3053.31,9926.15
591,0.591000,690,2305010,33747.34,-3282.31,6068.15
592,0.592000,691,2306010,22661.34,-967.31,1112.1499999999996
593,0.593000,692,2307010,7574.34,1140.69,-6057.85
594,0.594000,693,2308010,-7787.66,3475.69,-14077.85
595,0.595000,694,2309010,-20427.66,3555.69,-16568.85
596,0.596000,695,2310010,-24843.66,1747.69,-13175.85
597,0.597000,696,2311010,-15960.66,915.69,-7072.85
598,0.598000,697,2312010,-3897.66,-249.31,-3392.8500000000004
599,0.599000,698,2313010,13807.34,-841.31,-3930.8500000000004
600,0.600000,699,2314010,23661.34,558.69,-2657.8500000000004
601,0.601000,700,2315010,21876.34,63.69,2402.1499999999996
602,0.602000,701,2316010,14270.34,-2448.31,8838.15
603,0.603000,702,2317010,-691.66,-3631.31,12579.15
604,0.604000,703,2318010,-5935.66,-2371.31,11165.15
605,0.605000,704,2319010,-8662.66,-631.31,4332.15
606,0.606000,705,2320010,-2346.66,-420.31,-224.85000000000036
607,0.606999,706,2321009,5502.34,-1705.31,2700.1499999999996
608,0.608000,707,2322010,6005.34,-4046.31,6396.15
609,0.609000,708,2323010,1390.3400000000001,-3185.31,4315.15
610,0.610000,709,2324010,-9234.66,-1547.31,3964.1499999999996
611,0.610999,710,2325009,-18973.66,45.69,748.1499999999996
612,0.611999,711,2326009,-23996.66,4417.69,-7497.85
613,0.613000,712,2327010,-21911.66,5807.69,-7031.85
614,0.614000,713,2328010,-12849.66,4329.69,-2392.8500000000004
615,0.615000,714,2329010,7264.34,1945.69,4673.15
616,0.616000,715,2330010,23716.34,-1212.31,9853.15
617,0.616999,716,2331009,32780.34,-2848.31,9461.15
618,0.617999,717,2332009,31006.34,-2822.31,4476.15
619,0.618999,718,2333009,19434.34,-660.31,-2548.8500000000004
620,0.620000,719,2334010,1569.3400000000001,2158.69,-8461.85
621,0.621000,720,2335010,-13123.66,3148.69,-14210.85
622,0.622000,721,2336010,-21562.66,2444.69,-15370.85
623,0.623000,722,2337010,-24051.66,2135.69,-10650.85
624,0.623999,723,2338009,-10675.66,1112.69,-5424.85
625,0.625000,724,2339010,1194.3400000000001,-357.31,-5553.85
626,0.625999,725,2340009,18992.34,-1245.31,-3726.8500000000004
627,0.627000,726,2341010,25299.34,-412.31,48.149999999999636
628,0.628000,727,2342010,19449.34,8.689999999999998,4129.15
629,0.629000,728,2343010,8601.34,-2303.31,10292.15
630,0.630000,729,2344010,-3559.66,-2895.31,11793.15
631,0.631000,730,2345010,-7401.66,-1100.31,7884.15
632,0.632000,731,2346010,-7293.66,-291.31,2132.1499999999996
633,0.633000,732,2347010,371.34000000000003,-1514.31,2388.1499999999996
634,0.634000,733,2348010,5250.34,-3369.31,5721.15
635,0.635000,734,2349010,5691.34,-4072.31,4547.15
636,0.636000,735,2350010,-1234.6599999999999,-2658.31,4041.1499999999996
637,0.637000,736,2351010,-11615.66,-1223.31,4946.15
638,0.638000,737,2352010,-21502.66,2032.69,-2641.8500000000004
639,0.638999,738,2353009,-25558.66,5956.69,-9613.85
640,0.640000,739,2354010,-19509.66,5582.69,-6000.85
641,0.641000,740,2355010,-5901.66,3620.69,865.1499999999996
642,0.642000,741,2356010,12318.34,745.69,7121.15
643,0.643000,742,2357010,27670.34,-2712.31,10111.15
644,0.644000,743,2358010,33788.34,-3505.31,6907.15
645,0.645000,744,2359010,27836.34,-1743.31,1142.1499999999996
646,0.646000,745,2360010,14967.34,425.69,-2861.8500000000004
647,0.647000,746,2361010,-4221.66,1880.69,-8997.85
648,0.648000,747,2362010,-17513.66,3345.69,-15480.85
649,0.649000,748,2363010,-24449.66,3097.69,-16397.85
650,0.650000,749,2364010,-19543.66,1445.69,-10098.85
651,0.650999,750,2365009,-6057.66,652.69,-4451.85
652,0.652000,751,2366010,6585.34,-1140.31,-3334.8500000000004
653,0.652999,752,2367009,22628.34,-1319.31,-1188.8500000000004
654,0.654000,753,2368010,23085.34,312.69,826.1499999999996
655,0.655000,754,2369010,17274.34,-1029.31,5231.15
656,0.656000,755,2370010,4374.34,-2963.31,11186.15
657,0.656999,756,2371009,-5675.66,-2434.31,11221.15
658,0.658000,757,2372010,-9027.66,-1446.31,8200.15
659,0.658999,758,2373009,-4005.66,-363.31,2335.1499999999996
660,0.659999,759,2374009,2235.34,-81.31,-2005.8500000000004
661,0.661000,760,2375010,3412.34,-3598.31,5460.15
662,0.662000,761,2376010,5434.34,-4925.31,7762.15
663,0.663000,762,2377010,-3034.66,-2316.31,3711.1499999999996
664,0.664000,763,2378010,-16265.66,495.69,1063.1499999999996
665,0.665000,764,2379010,-22991.66,3138.69,-4630.85
666,0.666000,765,2380010,-23079.66,5760.69,-7420.85
667,0.667000,766,2381010,-16855.66,4757.69,-4548.85
668,0.668000,767,2382010,-120.65999999999997,1940.69,2785.1499999999996
669,0.669000,768,2383010,17962.34,236.69,9057.15
670,0.670000,769,2384010,32836.34,-2045.31,8584.15
671,0.671000,770,2385010,32287.34,-2886.31,5473.15
672,0.671999,771,2386009,22356.34,-2025.31,2226.1499999999996
673,0.673000,772,2387010,8513.34,521.69,-4288.85
674,0.673999,773,2388009,-7986.66,3577.69,-14753.85
675,0.675000,774,2389010,-19796.66,3580.69,-18096.85
676,0.676000,775,2390010,-24969.66,1640.69,-11899.85
677,0.676999,776,2391009,-16825.66,1033.69,-5636.85
678,0.678000,777,2392010,-3513.66,-172.31,-3464.8500000000004
679,0.679000,778,2393010,13845.34,-569.31,-5747.85
680,0.679999,779,2394009,25588.34,471.69,-3523.8500000000004
681,0.681000,780,2395010,23730.34,218.69,2647.1499999999996
682,0.681999,781,2396009,11316.34,-1782.31,9027.15
683,0.682999,782,2397009,-1794.6599999999999,-4291.31,14166.15
684,0.683999,783,2398009,-6098.66,-2762.31,11629.15
685,0.684999,784,2399009,-7149.66,-281.31,3303.1499999999996
686,0.685999,785,2400009,-1479.6599999999999,-752.31,614.1499999999996
687,0.687000,786,2401010,3093.34,-1389.31,1695.1499999999996
688,0.688000,787,2402010,4320.34,-3471.31,5308.15
689,0.689000,788,2403010,3353.34,-4007.31,5975.15
690,0.690000,789,2404010,-7926.66,-1417.31,3797.1499999999996
691,0.691000,790,2405010,-20790.66,889.69,264.14999999999964
692,0.691999,791,2406009,-23632.66,4077.69,-6487.85
693,0.693000,792,2407010,-20262.66,6376.69,-8276.85
694,0.694000,793,2408010,-11614.66,5182.69,-3090.8500000000004
695,0.695000,794,2409010,5525.34,986.69,6216.15
696,0.695999,795,2410009,23754.34,-2370.31,11172.15
697,0.696999,796,2411009,33788.34,-2772.31,7489.15
698,0.697999,797,2412009,29553.34,-2379.31,2445.1499999999996
699,0.699000,798,2413010,18823.34,-1495.31,838.1499999999996
700,0.700000,799,2414010,3110.34,2083.69,-8182.85
701,0.701000,800,2415010,-14258.66,4377.69,-16391.85
702,0.702000,801,2416010,-23673.66,2934.69,-16097.85
703,0.703000,802,2417010,-23283.66,1651.69,-10714.85
704,0.704000,803,2418010,-11344.66,769.69,-4589.85
705,0.705000,804,2419010,2996.34,-812.31,-4078.8500000000004
706,0.706000,805,2420010,19653.34,-976.31,-3780.8500000000004
707,0.706999,806,2421009,25538.34,471.69,-1641.8500000000004
708,0.708000,807,2422010,19702.34,-110.31,3587.1499999999996
709,0.708999,808,2423009,6567.34,-2750.31,10796.15
710,0.710000,809,2424010,-4616.66,-3990.31,13759.15
711,0.711000,810,2425010,-7377.66,-1698.31,8490.15
712,0.711999,811,2426009,-6142.66,470.69,553.1499999999996
713,0.713000,812,2427010,780.34,-1049.31,2911.1499999999996
714,0.713999,813,2428009,5851.34,-3547.31,6203.15
715,0.715000,814,2429010,5599.34,-3690.31,4093.1499999999996
716,0.716000,815,2430010,562.34,-2887.31,4743.15
717,0.717000,816,2431010,-12017.66,-1166.31,4104.15
718,0.718000,817,2432010,-24821.66,1839.69,-1559.8500000000004
719,0.719000,818,2433010,-25634.66,5671.69,-9202.85
720,0.720000,819,2434010,-19845.66,5731.69,-8372.85
721,0.720999,820,2435009,-6053.66,3383.69,-104.85000000000036
722,0.722000,821,2436010,13015.34,1204.69,7882.15
723,0.723000,822,2437010,29093.34,-2155.31,10006.15
724,0.724000,823,2438010,33788.34,-3502.31,6565.15
725,0.725000,824,2439010,27313.34,-2588.31,3760.1499999999996
726,0.725999,825,2440009,14346.34,-183.31,-1136.8500000000004
727,0.726999,826,2441009,-2545.66,2644.69,-11380.85
728,0.728000,827,2442010,-19995.66,4522.69,-18653.85
729,0.729000,828,2443010,-25859.66,2483.69,-15068.85
730,0.730000,829,2444010,-17892.66,780.69,-8277.85
731,0.731000,830,2445010,-6774.66,1248.69,-4179.85
732,0.732000,831,2446010,9095.34,-726.31,-3526.8500000000004
733,0.733000,832,2447010,22505.34,-529.31,-3797.8500000000004
734,0.734000,833,2448010,22403.34,502.69,267.14999999999964
735,0.735000,834,2449010,16540.34,-1238.31,6801.15
736,0.736000,835,2450010,1875.3400000000001,-3469.31,11916.15
737,0.737000,836,2451010,-6851.66,-3148.31,12415.15
738,0.738000,837,2452010,-6432.66,-899.31,5878.15
739,0.739000,838,2453010,-4163.66,-725.31,2716.1499999999996
740,0.740000,839,2454010,3100.34,-1623.31,2943.1499999999996
741,0.741000,840,2455010,7023.34,-3355.31,3704.1499999999996
742,0.741999,841,2456009,3614.34,-3806.31,5654.15
743,0.742999,842,2457009,-4175.66,-2423.31,5149.15
744,0.744000,843,2458010,-16802.66,668.69,-567.8500000000004
745,0.745000,844,2459010,-25014.66,4371.69,-7817.85
746,0.745999,845,2460009,-24301.66,5276.69,-6474.85
747,0.747000,846,2461010,-18213.66,4125.69,-2256.8500000000004
748,0.748000,847,2462010,994.34,2001.69,2832.1499999999996
749,0.748999,848,2463009,21902.34,-435.31,8141.15
750,0.750000,849,2464010,33788.34,-2376.31,8685.15
751,0.750999,850,2465009,33378.34,-3038.31,6815.15
752,0.752000,851,2466010,22837.34,-1877.31,3187.1499999999996
753,0.753000,852,2467010,7867.34,1103.69,-6035.85
754,0.754000,853,2468010,-10355.66,4240.69,-16601.85
755,0.755000,854,2469010,-20625.66,4100.69,-18347.85
756,0.756000,855,2470010,-25889.66,2158.69,-12820.85
757,0.757000,856,2471010,-16821.66,423.69,-5231.85
758,0.758000,857,2472010,-136.65999999999997,-1470.31,-1003.8500000000004
759,0.758999,858,2473009,13826.34,-1121.31,-4118.85
760,0.759999,859,2474009,25159.34,292.69,-3801.8500000000004
761,0.760999,860,2475009,22095.34,457.69,2409.1499999999996
762,0.762000,861,2476010,11524.34,-1911.31,9103.15
763,0.763000,862,2477010,-1571.6599999999999,-3744.31,13239.15
764,0.764000,863,2478010,-6450.66,-1807.31,9559.15
765,0.764999,864,2479009,-5389.66,162.69,2047.1499999999996
766,0.766000,865,2480010,-3764.66,-559.31,1453.1499999999996
767,0.767000,866,2481010,4505.34,-3042.31,5202.15
768,0.768000,867,2482010,5811.34,-4277.31,4666.15
769,0.769000,868,2483010,1267.3400000000001,-3380.31,4760.15
770,0.769999,869,2484009,-8563.66,-1562.31,4879.15
771,0.771000,870,2485010,-21005.66,1464.69,-1630.8500000000004
772,0.772000,871,2486010,-24614.66,4757.69,-7287.85
773,0.773000,872,2487010,-21163.66,5621.69,-7231.85
774,0.774000,873,2488010,-10396.66,4936.69,-2359.8500000000004
775,0.775000,874,2489010,7461.34,1678.69,5982.15
776,0.776000,875,2490010,24375.34,-1932.31,9733.15
777,0.777000,876,2491010,33788.34,-3652.31,9212.15
778,0.778000,877,2492010,30416.34,-2946.31,4532.15
779,0.779000,878,2493010,17786.34,-3.3100000000000023,-2350.8500000000004
780,0.779999,879,2494009,413.34000000000003,2444.69,-8542.85
781,0.780999,880,2495009,-13295.66,3284.69,-14438.85
782,0.782000,881,2496010,-24064.66,2526.69,-15956.85
783,0.783000,882,2497010,-22979.66,2033.69,-11892.85
784,0.784000,883,2498010,-9508.66,1099.69,-6219.85
785,0.785000,884,2499010,2344.34,-672.31,-3814.8500000000004
786,0.785999,885,2500009,19955.34,-1146.31,-2712.8500000000004
787,0.786999,886,2501009,26044.34,-251.31,-329.85000000000036
788,0.787999,887,2502009,19754.34,-748.31,4889.15
789,0.789000,888,2503010,5677.34,-2685.31,11184.15
790,0.789999,889,2504009,-5091.66,-3285.31,12808.15
791,0.791000,890,2505010,-5968.66,-1408.31,8250.15
792,0.792000,891,2506010,-6458.66,-125.31,2429.1499999999996
793,0.793000,892,2507010,-319.65999999999997,-609.31,209.14999999999964
794,0.793999,893,2508009,6975.34,-2823.31,3810.1499999999996
795,0.795000,894,2509010,4162.34,-3783.31,5007.15
796,0.796000,895,2510010,-2839.66,-2759.31,3837.1499999999996
797,0.797000,896,2511010,-12193.66,-1823.31,5850.15
798,0.798000,897,2512010,-22310.66,1621.69,-694.8500000000004
799,0.799000,898,2513010,-24960.66,6386.69,-10744.85
800,0.799999,899,2514009,-17951.66,6790.69,-9253.85
801,0.801000,900,2515010,-4320.66,3758.69,757.1499999999996
802,0.802000,901,2516010,13624.34,-276.31,10179.15
803,0.803000,902,2517010,29566.34,-3428.31,11639.15
804,0.804000,903,2518010,33788.34,-3461.31,6165.15
805,0.805000,904,2519010,26015.34,-1950.31,1354.1499999999996
806,0.806000,905,2520010,12296.34,1076.69,-4591.85
807,0.806999,906,2521009,-4647.66,3362.69,-12197.85
808,0.808000,907,2522010,-19439.66,2874.69,-15550.85
809,0.809000,908,2523010,-23050.66,1721.69,-13628.85
810,0.810000,909,2524010,-19099.66,1661.69,-7880.85
811,0.811000,910,2525010,-8798.66,799.69,-4530.85
812,0.812000,911,2526010,11881.34,-1141.31,-4395.85
813,0.813000,912,2527010,23957.34,-233.31,-3805.8500000000004
814,0.814000,913,2528010,23499.34,610.69,987.1499999999996
815,0.815000,914,2529010,15157.34,-1518.31,7643.15
816,0.816000,915,2530010,1169.3400000000001,-3555.31,11948.15
817,0.817000,916,2531010,-6090.66,-2887.31,11403.15
818,0.817999,917,2532009,-6482.66,-744.31,4405.15
819,0.818999,918,2533009,-4814.66,-474.31,2874.1499999999996
820,0.820000,919,2534010,1161.3400000000001,-1987.31,3081.1499999999996
821,0.821000,920,2535010,7172.34,-3783.31,4912.15
822,0.822000,921,2536010,4068.34,-3863.31,5844.15
823,0.823000,922,2537010,-4900.66,-1835.31,3608.1499999999996
824,0.824000,923,2538010,-16560.66,933.69,-137.85000000000036
825,0.824999,924,2539009,-24222.66,4063.69,-6182.85
826,0.826000,925,2540010,-23354.66,5722.69,-6105.85
827,0.826999,926,2541009,-15081.66,4718.69,-2958.8500000000004
828,0.827999,927,2542009,2433.34,2021.69,2433.1499999999996
829,0.829000,928,2543010,20632.34,-803.31,8229.15
830,0.830000,929,2544010,32274.34,-2973.31,10507.15
831,0.831000,930,2545010,33448.34,-3192.31,6074.15
832,0.832000,931,2546010,19871.34,-734.31,-1967.8500000000004
833,0.833000,932,2547010,4215.34,1893.69,-7247.85
834,0.834000,933,2548010,-9908.66,2464.69,-12357.85
835,0.835000,934,2549010,-20347.66,2394.69,-16171.85
836,0.836000,935,2550010,-23698.66,2570.69,-12739.85
837,0.837000,936,2551010,-14775.66,1756.69,-6971.85
838,0.838000,937,2552010,44.34000000000003,-155.31,-4439.85
839,0.839000,938,2553010,16663.34,-1403.31,-2927.8500000000004
840,0.840000,939,2554010,23609.34,-187.31,-770.8500000000004
841,0.841000,940,2555010,21205.34,-176.31,3740.1499999999996
842,0.841999,941,2556009,10787.34,-2336.31,9284.15
843,0.843000,942,2557010,-2172.66,-3214.31,11300.15
844,0.843999,943,2558009,-6621.66,-1933.31,9495.15
845,0.845000,944,2559010,-7151.66,-331.31,3063.1499999999996
846,0.846000,945,2560010,-1535.6599999999999,-171.31,609.1499999999996
847,0.847000,946,2561010,6119.34,-2505.31,4220.15
848,0.848000,947,2562010,6018.34,-3943.31,4453.15
849,0.849000,948,2563010,-1332.6599999999999,-2808.31,4202.15
850,0.849999,949,2564009,-9597.66,-2186.31,5398.15
851,0.851000,950,2565010,-20422.66,122.69,1886.1499999999996
852,0.852000,951,2566010,-24658.66,4728.69,-7397.85
853,0.853000,952,2567010,-21039.66,6540.69,-9404.85
854,0.853999,953,2568009,-10037.66,3894.69,-1571.8500000000004
855,0.855000,954,2569010,9807.34,1133.69,5912.15
856,0.855999,955,2570009,25544.34,-889.31,9712.15
857,0.857000,956,2571010,32870.34,-2438.31,7755.15
858,0.857999,957,2572009,29232.34,-2618.31,3566.1499999999996
859,0.859000,958,2573010,17893.34,-1252.31,-261.85000000000036
860,0.860000,959,2574010,1507.3400000000001,2271.69,-9321.85
861,0.861000,960,2575010,-15618.66,4095.69,-16102.85
862,0.862000,961,2576010,-22906.66,2340.69,-14470.85
863,0.863000,962,2577010,-20730.66,1345.69,-10151.85
864,0.864000,963,2578010,-10886.66,842.69,-5256.85
865,0.864999,964,2579009,3915.34,-814.31,-4474.85
866,0.865999,965,2580009,19390.34,-394.31,-4612.85
867,0.867000,966,2581010,24512.34,173.69,-90.85000000000036
868,0.868000,967,2582010,18609.34,-917.31,5173.15
869,0.869000,968,2583010,6073.34,-2415.31,9719.15
870,0.870000,969,2584010,-5169.66,-3048.31,12432.15
871,0.871000,970,2585010,-6361.66,-1178.31,7925.15
872,0.871999,971,2586009,-4724.66,-67.31,1781.1499999999996
873,0.873000,972,2587010,-203.65999999999997,-1440.31,2813.1499999999996
874,0.874000,973,2588010,7367.34,-3297.31,4620.15
875,0.875000,974,2589010,5435.34,-3682.31,3891.1499999999996
876,0.876000,975,2590010,-3829.66,-2727.31,4877.15
877,0.877000,976,2591010,-14339.66,-1574.31,5807.15
878,0.878000,977,2592010,-21966.66,1078.69,116.14999999999964
879,0.879000,978,2593010,-25192.66,6084.69,-9350.85
880,0.880000,979,2594010,-19168.66,7341.69,-10144.85
881,0.880999,980,2595009,-2749.66,3501.69,-1435.8500000000004
882,0.882000,981,2596010,14593.34,-224.31,9255.15
883,0.883000,982,2597010,28851.34,-2681.31,12425.15
884,0.884000,983,2598010,33788.34,-2803.31,5126.15
885,0.885000,984,2599010,25167.34,-1951.31,403.14999999999964
886,0.886000,985,2600010,11052.34,-39.31,-2568.8500000000004
887,0.886999,986,2601009,-2872.66,2450.69,-10648.85
888,0.887999,987,2602009,-18717.66,2766.69,-15509.85
889,0.889000,988,2603010,-24170.66,2241.69,-14046.85
890,0.890000,989,2604010,-18139.66,1834.69,-8203.85
891,0.891000,990,2605010,-5573.66,1030.69,-4771.85
892,0.892000,991,2606010,9663.34,-327.31,-5978.85
893,0.892999,992,2607009,21007.34,-334.31,-3420.8500000000004
894,0.894000,993,2608010,21177.34,431.69,2259.1499999999996
895,0.895000,994,2609010,16045.34,-1769.31,7328.15
896,0.896000,995,2610010,2239.34,-3333.31,10883.15
897,0.897000,996,2611010,-5955.66,-2782.31,12136.15
898,0.898000,997,2612010,-4474.66,-1042.31,4838.15
899,0.899000,998,2613010,-4246.66,-312.31,879.1499999999996
900,0.900000,999,2614010,2146.34,-2437.31,5097.15
901,0.900999,1000,2615009,6252.34,-3938.31,5731.15
902,0.902000,1001,2616010,2964.34,-3354.31,4169.15
903,0.903000,1002,2617010,-5042.66,-1969.31,4934.15
904,0.904000,1003,2618010,-17534.66,73.69,2669.1499999999996
905,0.905000,1004,2619010,-25454.66,3675.69,-5123.85
906,0.906000,1005,2620010,-22366.66,6263.69,-9812.85
907,0.907000,1006,2621010,-14696.66,6078.69,-7448.85
908,0.908000,1007,2622010,2152.34,2834.69,2035.1499999999996
909,0.909000,1008,2623010,21189.34,-1673.31,11844.15
910,0.909999,1009,2624009,32483.34,-4209.31,13011.15
911,0.911000,1010,2625010,32309.34,-2819.31,4382.15
912,0.912000,1011,2626010,20714.34,-109.31,-3988.8500000000004
913,0.912999,1012,2627009,6210.34,1214.69,-7598.85
914,0.913999,1013,2628009,-10301.66,3264.69,-12682.85
915,0.915000,1014,2629010,-21333.66,2455.69,-13986.85
916,0.916000,1015,2630010,-22035.66,885.69,-8679.85
917,0.916999,1016,2631009,-14250.66,1044.69,-5914.85
918,0.918000,1017,2632010,-204.65999999999997,499.69,-7469.85
919,0.919000,1018,2633010,14322.34,307.69,-7339.85
920,0.920000,1019,2634010,22462.34,62.69,-970.8500000000004
921,0.920999,1020,2635009,21334.34,-509.31,5599.15
922,0.921999,1021,2636009,10619.34,-2106.31,9410.15
923,0.923000,1022,2637010,-1537.6599999999999,-3167.31,11439.15
924,0.924000,1023,2638010,-5424.66,-1785.31,8106.15
925,0.924999,1024,2639009,-5913.66,-710.31,3656.1499999999996
926,0.926000,1025,2640010,-1671.6599999999999,-1147.31,2989.1499999999996
927,0.926999,1026,2641009,4207.34,-2008.31,3521.1499999999996
928,0.927999,1027,2642009,5322.34,-3304.31,3058.1499999999996
929,0.929000,1028,2643010,1678.3400000000001,-3778.31,4754.15
930,0.930000,1029,2644010,-10157.66,-2554.31,7233.15
931,0.931000,1030,2645010,-22173.66,591.69,2674.1499999999996
932,0.932000,1031,2646010,-25157.66,5027.69,-8568.85
933,0.933000,1032,2647010,-23060.66,6637.69,-11567.85
934,0.934000,1033,2648010,-8442.66,3769.69,-2117.8500000000004
935,0.935000,1034,2649010,10748.34,774.69,8896.15
936,0.936000,1035,2650010,24762.34,-1244.31,11881.15
937,0.937000,1036,2651010,33788.34,-2250.31,5181.15
938,0.938000,1037,2652010,28828.34,-1962.31,1334.1499999999996
939,0.939000,1038,2653010,18575.34,90.69,-377.85000000000036
940,0.940000,1039,2654010,1725.3400000000001,2006.69,-7662.85
941,0.940999,1040,2655009,-16832.66,2750.69,-15458.85
942,0.942000,1041,2656010,-23003.66,1936.69,-15751.85
943,0.943000,1042,2657010,-22509.66,1301.69,-9208.85
944,0.944000,1043,2658010,-10994.66,771.69,-3418.8500000000004
945,0.945000,1044,2659010,4718.34,-809.31,-4843.85
946,0.946000,1045,2660010,18476.34,-138.31,-6302.85
947,0.947000,1046,2661010,25518.34,788.69,-1268.8500000000004
948,0.948000,1047,2662010,20880.34,-573.31,5391.15
949,0.948999,1048,2663009,5175.34,-2490.31,10267.15
950,0.950000,1049,2664010,-5437.66,-2666.31,11449.15
951,0.951000,1050,2665010,-8043.66,-1433.31,7928.15
952,0.952000,1051,2666010,-5902.66,-421.31,1908.1499999999996
953,0.953000,1052,2667010,455.34000000000003,-1311.31,1779.1499999999996
954,0.954000,1053,2668010,5901.34,-4443.31,8398.15
955,0.955000,1054,2669010,7444.34,-4552.31,6709.15
956,0.955999,1055,2670009,-2017.6599999999999,-2298.31,3010.1499999999996
957,0.957000,1056,2671010,-14243.66,-1184.31,4462.15
958,0.957999,1057,2672009,-22557.66,2535.69,-2993.8500000000004
959,0.959000,1058,2673010,-24848.66,6367.69,-10439.85
960,0.960000,1059,2674010,-19216.66,6285.69,-8298.85
961,0.961000,1060,2675010,-4982.66,3715.69,-239.85000000000036
962,0.962000,1061,2676010,16081.34,-227.31,-10404.85
963,0.963000,1062,2677010,31053.34,-3337.31,12574.15
964,0.963999,1063,2678009,33385.34,-2746.31,4010.1499999999996
965,0.964999,1064,2679009,25307.34,-1377.31,-204.85000000000036
966,0.966000,1065,2680010,11604.34,-306.31,-2265.8500000000004
967,0.967000,1066,2681010,-5038.66,2183.69,-10703.85
968,0.967999,1067,2682009,-19771.66,3698.69,-15831.85
969,0.969000,1068,2683010,-24858.66,2564.69,-13898.85
970,0.970000,1069,2684010,-17064.66,1844.69,-9747.85
971,0.971000,1070,2685010,-5312.66,1149.69,-5961.85
972,0.971999,1071,2686009,10925.34,-709.31,-3878.8500000000004
973,0.973000,1072,2687010,24434.34,-930.31,-2113.8500000000004
974,0.974000,1073,2688010,21915.34,-87.31,2131.1499999999996
975,0.975000,1074,2689010,14167.34,-1579.31,7539.15
976,0.976000,1075,2690010,1037.3400000000001,-3598.31,11604.15
977,0.976999,1076,2691009,-8130.66,-2473.31,11761.15
978,0.978000,1077,2692010,-6319.66,-1091.31,5923.15
979,0.978999,1078,2693009,-2760.66,-200.31,993.1499999999996
980,0.980000,1079,2694010,3557.34,-1622.31,3377.1499999999996
981,0.980999,1080,2695009,6673.34,-4003.31,4695.15
982,0.982000,1081,2696010,3549.34,-2934.31,2559.1499999999996
983,0.982999,1082,2697009,-6126.66,-1784.31,5062.15
984,0.984000,1083,2698010,-19079.66,-211.31,2765.1499999999996
985,0.984999,1084,2699009,-24384.66,3510.69,-6117.85
986,0.986000,1085,2700010,-23722.66,5763.69,-7755.85
987,0.987000,1086,2701010,-15202.66,4926.69,-3845.8500000000004
988,0.988000,1087,2702010,4955.34,2408.69,4623.15
989,0.988999,1088,2703009,23045.34,-1183.31,10922.15
990,0.989999,1089,2704009,32938.34,-3287.31,8598.15
991,0.990999,1090,2705009,32740.34,-2719.31,3906.1499999999996
992,0.992000,1091,2706010,20442.34,-322.31,-1870.8500000000004
993,0.993000,1092,2707010,5138.34,2340.69,-7911.85
994,0.994000,1093,2708010,-10920.66,2662.69,-13154.85
995,0.994999,1094,2709009,-21951.66,2523.69,-15580.85
996,0.996000,1095,2710010,-24549.66,1785.69,-11293.85
997,0.997000,1096,2711010,-15059.66,438.69,-5423.85
998,0.997999,1097,2712009,242.34000000000003,-547.31,-4180.85
999,0.999000,1098,2713010,15878.34,-853.31,-3990.8500000000004
1000,1.000000,1099,2714010,24445.34,584.69,-1849.8500000000004
1001,1.001000,1100,2715010,21262.34,271.69,2696.1499999999996
1002,1.002000,1101,2716010,11583.34,-2346.31,8663.15
1003,1.003000,1102,2717010,-1317.6599999999999,-3226.31,12123.15
1004,1.003999,1103,2718009,-7965.66,-1360.31,9036.15
1005,1.005000,1104,2719010,-8091.66,-407.31,2382.1499999999996
1006,1.006000,1105,2720010,80.34000000000003,-1624.31,3826.1499999999996
1007,1.006999,1106,2721009,5249.34,-2971.31,5891.15
1008,1.008000,1107,2722010,5624.34,-3498.31,3117.1499999999996
1009,1.008999,1108,2723009,268.34000000000003,-2970.31,4086.1499999999996
1010,1.010000,1109,2724010,-10551.66,-1831.31,6462.15
1011,1.011000,1110,2725010,-21651.66,1807.69,-1616.8500000000004
1012,1.012000,1111,2726010,-26651.66,6094.69,-11851.85
1013,1.013000,1112,2727010,-20973.66,5598.69,-7043.85
1014,1.014000,1113,2728010,-9049.66,2114.69,2968.1499999999996
1015,1.015000,1114,2729010,11282.34,294.69,8415.15
1016,1.015999,1115,2730009,28679.34,-1235.31,8209.15
1017,1.017000,1116,2731010,33788.34,-2459.31,5716.15
1018,1.018000,1117,2732010,28956.34,-2143.31,4093.1499999999996
1019,1.018999,1118,2733009,14592.34,-319.31,-1230.8500000000004
1020,1.020000,1119,2734010,-706.66,3122.69,-10987.85
1021,1.020999,1120,2735009,-16651.66,4485.69,-18591.85
1022,1.022000,1121,2736010,-23932.66,2392.69,-15359.85
1023,1.022999,1122,2737009,-21829.66,777.69,-6803.85
1024,1.023999,1123,2738009,-10422.66,36.69,-3117.8500000000004
1025,1.025000,1124,2739010,5848.34,-1632.31,-3739.8500000000004
1026,1.026000,1125,2740010,21352.34,-832.31,-3994.8500000000004
1027,1.027000,1126,2741010,25291.34,1182.69,-524.8500000000004
1028,1.027999,1127,2742009,18960.34,-565.31,5486.15
1029,1.029000,1128,2743010,4455.34,-3100.31,10859.15
1030,1.030000,1129,2744010,-4206.66,-2771.31,11445.15
1031,1.031000,1130,2745010,-6151.66,-47.31,4236.15
1032,1.032000,1131,2746010,-7722.66,-77.31,1012.1499999999996
1033,1.033000,1132,2747010,1740.3400000000001,-1994.31,4435.15
1034,1.034000,1133,2748010,5373.34,-2750.31,3063.1499999999996
1035,1.035000,1134,2749010,4602.34,-4234.31,4167.15
1036,1.036000,1135,2750010,-2482.66,-3951.31,7580.15
1037,1.037000,1136,2751010,-16949.66,-1416.31,6539.15
1038,1.038000,1137,2752010,-23097.66,2684.69,-3345.8500000000004
1039,1.039000,1138,2753010,-24077.66,6930.69,-13914.85
1040,1.040000,1139,2754010,-17753.66,6684.69,-8254.85
1041,1.041000,1140,2755010,-485.65999999999997,1769.69,6714.15
1042,1.041999,1141,2756009,17051.34,-831.31,12104.15
1043,1.043000,1142,2757010,32082.34,-1578.31,6588.15
1044,1.044000,1143,2758010,33788.34,-3059.31,5296.15
1045,1.045000,1144,2759010,24176.34,-2219.31,4310.15
1046,1.045999,1145,2760009,9602.34,1261.69,-6235.85
1047,1.047000,1146,2761010,-6700.66,3197.69,-14241.85
1048,1.048000,1147,2762010,-19921.66,3123.69,-15806.85
1049,1.048999,1148,2763009,-25363.66,2096.69,-12337.85
1050,1.050000,1149,2764010,-15806.66,548.69,-5401.85
1051,1.051000,1150,2765010,-5784.66,260.69,-5011.85
1052,1.051999,1151,2766009,11925.34,-570.31,-6560.85
1053,1.053000,1152,2767010,24121.34,-202.31,-3600.8500000000004
1054,1.054000,1153,2768010,22149.34,591.69,2148.1499999999996
1055,1.055000,1154,2769010,14895.34,-1924.31,8638.15
1056,1.056000,1155,2770010,1302.3400000000001,-3921.31,11837.15
1057,1.057000,1156,2771010,-7241.66,-1814.31,9423.15
1058,1.057999,1157,2772009,-8728.66,412.69,2135.1499999999996
1059,1.059000,1158,2773010,-3437.66,-473.31,1336.1499999999996
1060,1.060000,1159,2774010,4665.34,-2459.31,5960.15
1061,1.060999,1160,2775009,6146.34,-3881.31,5674.15
1062,1.061999,1161,2776009,3143.34,-4294.31,5553.15
1063,1.063000,1162,2777010,-5920.66,-2682.31,6913.15
1064,1.064000,1163,2778010,-18339.66,12.689999999999998,4352.15
1065,1.065000,1164,2779010,-25014.66,4881.69,-8182.85
1066,1.066000,1165,2780010,-23356.66,7282.69,-12872.85
1067,1.066999,1166,2781009,-12621.66,5511.69,-4198.85
1068,1.068000,1167,2782010,3059.34,1721.69,5551.15
1069,1.069000,1168,2783010,21526.34,-2252.31,12399.15
1070,1.070000,1169,2784010,33315.34,-3029.31,7764.15
1071,1.071000,1170,2785010,31551.34,-2488.31,2120.1499999999996
1072,1.072000,1171,2786010,19909.34,-751.31,-570.8500000000004
1073,1.073000,1172,2787010,4779.34,1499.69,-6979.85
1074,1.073999,1173,2788009,-9899.66,2847.69,-13290.85
1075,1.075000,1174,2789010,-22461.66,2052.69,-14633.85
1076,1.076000,1175,2790010,-23965.66,2021.69,-11524.85
1077,1.077000,1176,2791010,-11952.66,1629.69,-6603.85
1078,1.078000,1177,2792010,2381.34,-135.31,-5205.85
1079,1.079000,1178,2793010,16622.34,-519.31,-5110.85
1080,1.079999,1179,2794009,22492.34,-60.31,-159.85000000000036
1081,1.080999,1180,2795009,18507.34,-444.31,4979.15
1082,1.082000,1181,2796010,8912.34,-2438.31,9197.15
1083,1.083000,1182,2797010,-2222.66,-3427.31,12025.15
1084,1.084000,1183,2798010,-6111.66,-925.31,6175.15
1085,1.085000,1184,2799010,-6423.66,87.69,2185.1499999999996
1086,1.085999,1185,2800009,-1003.66,-1811.31,5885.15
1087,1.087000,1186,2801010,5893.34,-2957.31,5806.15
1088,1.088000,1187,2802010,6580.34,-3972.31,3862.1499999999996
1089,1.089000,1188,2803010,858.34,-3148.31,3812.1499999999996
1090,1.090000,1189,2804010,-10862.66,-1453.31,4735.15
1091,1.090999,1190,2805009,-22430.66,1162.69,691.1499999999996
1092,1.092000,1191,2806010,-24933.66,5547.69,-9225.85
1093,1.093000,1192,2807010,-21071.66,6854.69,-11026.85
1094,1.093999,1193,2808009,-8999.66,2862.69,-172.85000000000036
1095,1.095000,1194,2809010,10396.34,-76.31,9728.15
1096,1.095999,1195,2810009,26327.34,-996.31,9832.15
1097,1.097000,1196,2811010,33788.34,-2267.31,3901.1499999999996
1098,1.098000,1197,2812010,28772.34,-2931.31,3589.1499999999996
1099,1.099000,1198,2813010,15827.34,-1010.31,2328.1499999999996
1100,1.100000,1199,2814010,1689.3400000000001,2775.69,-9518.85
1101,1.101000,1200,2815010,-16582.66,4182.69,-19115.85
1102,1.101999,1201,2816009,-23140.66,2892.69,-16732.85
1103,1.102999,1202,2817009,-21134.66,1109.69,-7815.85
1104,1.104000,1203,2818010,-11356.66,14.689999999999998,-2552.8500000000004
1105,1.105000,1204,2819010,5717.34,-1252.31,-3412.8500000000004
1106,1.105999,1205,2820009,19398.34,-458.31,-4982.85
1107,1.107000,1206,2821010,24457.34,1073.69,-1165.8500000000004
1108,1.108000,1207,2822010,18475.34,-931.31,4909.15
1109,1.109000,1208,2823010,4578.34,-3314.31,11376.15
1110,1.110000,1209,2824010,-4408.66,-2408.31,11705.15
1111,1.111000,1210,2825010,-6499.66,-398.31,5054.15
1112,1.112000,1211,2826010,-5766.66,-739.31,3677.1499999999996
1113,1.113000,1212,2827010,3733.34,-1685.31,4438.15
1114,1.113999,1213,2828009,6920.34,-2239.31,1907.1499999999996
1115,1.115000,1214,2829010,3554.34,-3321.31,2928.1499999999996
1116,1.116000,1215,2830010,-4295.66,-3728.31,7337.15
1117,1.117000,1216,2831010,-15813.66,-1990.31,7184.15
1118,1.118000,1217,2832010,-23057.66,3089.69,-4506.85
1119,1.119000,1218,2833010,-26351.66,6830.69,-13967.85
1120,1.120000,1219,2834010,-17673.66,4948.69,-5225.85
1121,1.121000,1220,2835010,-1040.6599999999999,1345.69,7482.15
1122,1.122000,1221,2836010,16622.34,-484.31,11024.15
1123,1.122999,1222,2837009,33788.34,-1363.31,6032.15
1124,1.124000,1223,2838010,33788.34,-1964.31,3000.1499999999996
1125,1.125000,1224,2839010,24658.34,-1102.31,2155.1499999999996
1126,1.126000,1225,2840010,9987.34,1578.69,-4814.85
1127,1.127000,1226,2841010,-8248.66,2965.69,-13913.85
1128,1.128000,1227,2842010,-19752.66,2267.69,-16053.85
1129,1.129000,1228,2843010,-24477.66,1070.69,-10212.85
1130,1.130000,1229,2844010,-18156.66,538.69,-4553.85
1131,1.131000,1230,2845010,-4800.66,23.689999999999998,-5390.85
1132,1.132000,1231,2846010,10749.34,-98.31,-8232.85
1133,1.133000,1232,2847010,22494.34,516.69,-4013.8500000000004
1134,1.134000,1233,2848010,23242.34,-113.31,3588.1499999999996
1135,1.135000,1234,2849010,15459.34,-2375.31,9173.15
1136,1.136000,1235,2850010,2747.34,-3257.31,11455.15
1137,1.137000,1236,2851010,-4722.66,-770.31,7161.15
1138,1.138000,1237,2852010,-8117.66,28.689999999999998,3415.1499999999996
1139,1.139000,1238,2853010,-4473.66,-1747.31,5291.15
1140,1.140000,1239,2854010,5101.34,-2478.31,5330.15
1141,1.140999,1240,2855009,4617.34,-2778.31,2377.1499999999996
1142,1.142000,1241,2856010,2659.34,-3761.31,4113.15
1143,1.143000,1242,2857010,-7616.66,-3293.31,7736.15
1144,1.144000,1243,2858010,-20308.66,177.69,3734.1499999999996
1145,1.145000,1244,2859010,-24105.66,5023.69,-9644.85
1146,1.146000,1245,2860010,-23705.66,7038.69,-13724.85
1147,1.146999,1246,2861009,-14296.66,3306.69,-296.85000000000036
1148,1.148000,1247,2862010,6482.34,-243.31,10905.15
1149,1.149000,1248,2863010,24163.34,-663.31,9708.15
1150,1.150000,1249,2864010,33788.34,-1444.31,4520.15
1151,1.151000,1250,2865010,32517.34,-2048.31,3386.1499999999996
1152,1.152000,1251,2866010,19756.34,-1272.31,928.1499999999996
1153,1.153000,1252,2867010,4465.34,933.69,-6561.85
1154,1.153999,1253,2868009,-13067.66,4022.69,-15926.85
1155,1.155000,1254,2869010,-23600.66,3939.69,-17234.85
1156,1.155999,1255,2870009,-23356.66,1193.69,-9435.85
1157,1.157000,1256,2871010,-13928.66,55.69,-3845.8500000000004
1158,1.158000,1257,2872010,729.34,-680.31,-4663.85
1159,1.159000,1258,2873010,16982.34,-551.31,-6146.85
1160,1.160000,1259,2874010,24805.34,672.69,-1784.8500000000004
1161,1.161000,1260,2875010,21247.34,-470.31,4896.15
1162,1.162000,1261,2876010,9611.34,-2549.31,10749.15
1163,1.163000,1262,2877010,-2241.66,-2808.31,11368.15
1164,1.164000,1263,2878010,-3404.66,-372.31,5440.15
1165,1.165000,1264,2879010,-8887.66,236.69,1958.1499999999996
1166,1.166000,1265,2880010,-2515.66,-2137.31,4940.15
1167,1.167000,1266,2881010,7557.34,-3172.31,4783.15
1168,1.168000,1267,2882010,4197.34,-3678.31,2452.1499999999996
1169,1.168999,1268,2883009,1355.3400000000001,-3862.31,6872.15
1170,1.170000,1269,2884010,-12502.66,-1866.31,7145.15
1171,1.171000,1270,2885010,-23560.66,1690.69,-608.8500000000004
1172,1.171999,1271,2886009,-24471.66,5697.69,-10234.85
1173,1.173000,1272,2887010,-20441.66,7054.69,-11187.85
1174,1.174000,1273,2888010,-8368.66,3973.69,534.1499999999996
1175,1.175000,1274,2889010,11597.34,-828.31,11761.15
1176,1.175999,1275,2890009,28643.34,-2511.31,11004.15
1177,1.177000,1276,2891010,33788.34,-1824.31,3236.1499999999996
1178,1.178000,1277,2892010,28944.34,-2235.31,1730.1499999999996
1179,1.179000,1278,2893010,12935.34,-787.31,-625.8500000000004
1180,1.180000,1279,2894010,-1233.6599999999999,2492.69,-9732.85
1181,1.181000,1280,2895010,-17009.66,3631.69,-15305.85
1182,1.182000,1281,2896010,-24040.66,1962.69,-14773.85
1183,1.183000,1282,2897010,-19102.66,1368.69,-10042.85
1184,1.184000,1283,2898010,-9711.66,1065.69,-5326.85
1185,1.185000,1284,2899010,6807.34,-801.31,-4893.85
1186,1.185999,1285,2900009,20575.34,-740.31,-3845.8500000000004
1187,1.187000,1286,2901010,24433.34,546.69,704.1499999999996
1188,1.188000,1287,2902010,17568.34,-457.31,5813.15
1189,1.189000,1288,2903010,2418.34,-2390.31,9480.15
1190,1.190000,1289,2904010,-4613.66,-2956.31,10799.15
1191,1.191000,1290,2905010,-4680.66,-1163.31,8131.15
1192,1.192000,1291,2906010,-6355.66,455.69,1030.1499999999996
1193,1.193000,1292,2907010,1659.3400000000001,-1347.31,1815.1499999999996
1194,1.194000,1293,2908010,7249.34,-3625.31,6583.15
1195,1.195000,1294,2909010,3368.34,-4125.31,4841.15
1196,1.196000,1295,2910010,-2636.66,-3408.31,4881.15
1197,1.197000,1296,2911010,-15387.66,-1647.31,6617.15
1198,1.197999,1297,2912009,-23569.66,1948.69,-5.850000000000364
1199,1.199000,1298,2913010,-23694.66,6018.69,-9855.85
1200,1.200000,1299,2914010,-15757.66,7130.69,-11217.85
1201,1.200999,1300,2915009,-1122.6599999999999,4860.69,-2181.8500000000004
1202,1.202000,1301,2916010,14622.34,-401.31,10055.15
1203,1.202999,1302,2917009,29848.34,-4336.31,14650.15
1204,1.203999,1303,2918009,33034.34,-4087.31,8149.15
1205,1.205000,1304,2919010,25121.34,-771.31,-2645.8500000000004
1206,1.206000,1305,2920010,7356.34,2173.69,-9686.85
1207,1.207000,1306,2921010,-8361.66,3275.69,-12133.85
1208,1.207999,1307,2922009,-17787.66,2523.69,-12346.85
1209,1.209000,1308,2923010,-21871.66,313.69,-10522.85
1210,1.210000,1309,2924010,-15047.66,414.69,-6407.85
1211,1.211000,1310,2925010,-5577.66,1243.69,-6253.85
1212,1.212000,1311,2926010,14359.34,-26.310000000000002,-6675.85
1213,1.213000,1312,2927010,23391.34,212.69,-3347.8500000000004
1214,1.213999,1313,2928009,19904.34,502.69,2466.1499999999996
1215,1.215000,1314,2929010,13125.34,-1655.31,8988.15
1216,1.216000,1315,2930010,-1268.6599999999999,-3441.31,11859.15
1217,1.217000,1316,2931010,-6654.66,-1959.31,9150.15
1218,1.218000,1317,2932010,-5546.66,-668.31,4405.15
1219,1.219000,1318,2933010,-2802.66,-1271.31,2416.1499999999996
1220,1.220000,1319,2934010,4644.34,-2381.31,5267.15
1221,1.221000,1320,2935010,5479.34,-3144.31,5362.15
1222,1.222000,1321,2936010,2235.34,-3398.31,3672.1499999999996
1223,1.223000,1322,2937010,-4692.66,-3158.31,5671.15
1224,1.223999,1323,2938009,-19027.66,381.69,1863.1499999999996
1225,1.225000,1324,2939010,-24882.66,4697.69,-7120.85
1226,1.225999,1325,2940009,-20870.66,6003.69,-9892.85
1227,1.227000,1326,2941010,-12191.66,5087.69,-5551.85
1228,1.228000,1327,2942010,2042.3400000000001,2667.69,3100.1499999999996
1229,1.228999,1328,2943009,20147.34,-1504.31,11756.15
1230,1.229999,1329,2944009,32751.34,-3806.31,11305.15
1231,1.230999,1330,2945009,31284.34,-3122.31,5162.15
1232,1.232000,1331,2946010,19385.34,-836.31,-687.8500000000004
1233,1.233000,1332,2947010,3784.34,2049.69,-7741.85
1234,1.234000,1333,2948010,-9419.66,3063.69,-14282.85
1235,1.235000,1334,2949010,-19827.66,2653.69,-16209.85
1236,1.236000,1335,2950010,-23911.66,2145.69,-12092.85
1237,1.236999,1336,2951009,-13949.66,1138.69,-5980.85
1238,1.237999,1337,2952009,488.34000000000003,-323.31,-3858.8500000000004
1239,1.239000,1338,2953010,16411.34,-785.31,-3688.8500000000004
1240,1.240000,1339,2954010,24324.34,253.69,-2140.8500000000004
1241,1.241000,1340,2955010,20416.34,-45.31,2735.1499999999996
1242,1.242000,1341,2956010,10123.34,-2143.31,10104.15
1243,1.242999,1342,2957009,-3141.66,-3576.31,12523.15
1244,1.244000,1343,2958010,-6126.66,-2574.31,10921.15
1245,1.245000,1344,2959010,-6852.66,-709.31,4232.15
1246,1.246000,1345,2960010,-659.66,-174.31,-1337.8500000000004
1247,1.247000,1346,2961010,7583.34,-1821.31,2661.1499999999996
1248,1.248000,1347,2962010,2732.34,-3166.31,3796.1499999999996
1249,1.249000,1348,2963010,116.34000000000003,-3197.31,4174.15
1250,1.250000,1349,2964010,-8573.66,-2551.31,7487.15
1251,1.251000,1350,2965010,-22432.66,820.69,635.1499999999996
1252,1.252000,1351,2966010,-25230.66,4582.69,-7569.85
1253,1.253000,1352,2967010,-19333.66,4977.69,-7654.85
1254,1.253999,1353,2968009,-8745.66,4754.69,-3845.8500000000004
1255,1.255000,1354,2969010,9640.34,1887.69,6195.15
1256,1.256000,1355,2970010,25812.34,-2302.31,12754.15
1257,1.257000,1356,2971010,32876.34,-2781.31,8199.15
1258,1.258000,1357,2972010,28594.34,-1508.31,1247.1499999999996
1259,1.259000,1358,2973010,15517.34,-622.31,-2554.8500000000004
1260,1.260000,1359,2974010,396.34000000000003,2032.69,-9303.85
1261,1.261000,1360,2975010,-14758.66,3681.69,-15543.85
1262,1.262000,1361,2976010,-22315.66,1542.69,-13542.85
1263,1.263000,1362,2977010,-21073.66,1111.69,-8400.85
1264,1.264000,1363,2978010,-10615.66,1146.69,-5228.85
1265,1.265000,1364,2979010,5182.34,-596.31,-4437.85
1266,1.266000,1365,2980010,19671.34,-565.31,-4604.85
1267,1.267000,1366,2981010,24423.34,931.69,-2239.8500000000004
1268,1.268000,1367,2982010,18449.34,47.69,4616.15
1269,1.269000,1368,2983010,5936.34,-2759.31,11266.15
1270,1.270000,1369,2984010,-4735.66,-3604.31,12699.15
1271,1.271000,1370,2985010,-6953.66,-2462.31,9622.15
1272,1.272000,1371,2986010,-4421.66,-786.31,3188.1499999999996
1273,1.272999,1372,2987009,-772.66,700.69,-1976.8500000000004
1274,1.273999,1373,2988009,6611.34,-2579.31,2914.1499999999996
1275,1.275000,1374,2989010,6394.34,-4762.31,6456.15
1276,1.276000,1375,2990010,-4014.66,-2500.31,4756.15
1277,1.277000,1376,2991010,-14380.66,-1147.31,5048.15
1278,1.277999,1377,2992009,-21833.66,1279.69,-1483.8500000000004
1279,1.279000,1378,2993010,-23381.66,6261.69,-10763.85
1280,1.280000,1379,2994010,-19282.66,6375.69,-7710.85
1281,1.281000,1380,2995010,-4342.66,2404.69,2445.1499999999996
1282,1.282000,1381,2996010,14392.34,-488.31,10108.15
1283,1.283000,1382,2997010,28979.34,-2006.31,10256.15
1284,1.283999,1383,2998009,33788.34,-2050.31,4343.15
1285,1.285000,1384,2999010,25220.34,-2020.31,2217.1499999999996
1286,1.286000,1385,3000010,11971.34,592.69,-2720.8500000000004
1287,1.286999,1386,3001009,-4757.66,2795.69,-12022.85
1288,1.288000,1387,3002010,-17114.66,3053.69,-16440.85
1289,1.289000,1388,3003010,-24117.66,2116.69,-13911.85
1290,1.290000,1389,3004010,-19065.66,818.69,-7149.85
1291,1.291000,1390,3005010,-5115.66,578.69,-4139.85
1292,1.292000,1391,3006010,9548.34,-705.31,-5860.85
1293,1.292999,1392,3007009,22403.34,-81.31,-3873.8500000000004
1294,1.294000,1393,3008010,21210.34,437.69,1858.1499999999996
1295,1.295000,1394,3009010,16466.34,-1470.31,7180.15
1296,1.296000,1395,3010010,2794.34,-3213.31,10528.15
1297,1.296999,1396,3011009,-6132.66,-2836.31,12069.15
1298,1.298000,1397,3012010,-5578.66,-383.31,7012.15
1299,1.299000,1398,3013010,-4017.66,761.69,-2356.8500000000004
1300,1.300000,1399,3014010,2654.34,-1783.31,2153.1499999999996
1301,1.301000,1400,3015010,5796.34,-4869.31,9528.15
1302,1.302000,1401,3016010,2131.34,-3978.31,4306.15
1303,1.302999,1402,3017009,-5032.66,-2192.31,2862.1499999999996
1304,1.303999,1403,3018009,-16248.66,-360.31,4391.15
1305,1.305000,1404,3019010,-24149.66,3419.69,-4356.85
1306,1.306000,1405,3020010,-21457.66,5902.69,-9593.85
1307,1.306999,1406,3021009,-17328.66,5702.69,-6083.85
1308,1.307999,1407,3022009,131.34000000000003,2849.69,1689.1499999999996
1309,1.309000,1408,3023010,21323.34,-999.31,10710.15
1310,1.309999,1409,3024009,31670.34,-2958.31,11451.15
1311,1.311000,1410,3025010,31683.34,-2572.31,4186.15
1312,1.312000,1411,3026010,20606.34,-656.31,-1679.8500000000004
1313,1.312999,1412,3027009,7668.34,1309.69,-5388.85
1314,1.313999,1413,3028009,-7336.66,2015.69,-12053.85
1315,1.315000,1414,3029010,-19769.66,2786.69,-15784.85
1316,1.315999,1415,3030009,-23457.66,2073.69,-12111.85
1317,1.316999,1416,3031009,-16352.66,859.69,-6707.85
1318,1.318000,1417,3032010,-1822.6599999999999,365.69,-5015.85
1319,1.318999,1418,3033009,14489.34,-1007.31,-4696.85
1320,1.319999,1419,3034009,23230.34,120.69,-1746.8500000000004
1321,1.321000,1420,3035010,20650.34,88.69,3218.1499999999996
1322,1.322000,1421,3036010,12969.34,-2078.31,8399.15
1323,1.322999,1422,3037009,-306.65999999999997,-3002.31,10927.15
1324,1.324000,1423,3038010,-7805.66,-2466.31,10788.15
1325,1.324999,1424,3039009,-5457.66,-526.31,4522.15
1326,1.326000,1425,3040010,-2608.66,108.69,-45.850000000000364
1327,1.327000,1426,3041010,3630.34,-2402.31,4868.15
1328,1.327999,1427,3042009,6970.34,-4345.31,4431.15
1329,1.328999,1428,3043009,128.34000000000003,-3060.31,3533.1499999999996
1330,1.330000,1429,3044010,-8881.66,-2070.31,6066.15
1331,1.331000,1430,3045010,-17814.66,386.69,173.14999999999964
1332,1.331999,1431,3046009,-23824.66,4157.69,-6170.85
1333,1.333000,1432,3047010,-21759.66,5539.69,-5723.85
1334,1.334000,1433,3048010,-12442.66,5117.69,-3701.8500000000004
1335,1.335000,1434,3049010,7062.34,2192.69,3501.1499999999996
1336,1.336000,1435,3050010,24298.34,-1526.31,11091.15
1337,1.337000,1436,3051010,32645.34,-3206.31,9929.15
1338,1.338000,1437,3052010,29590.34,-2153.31,3319.1499999999996
1339,1.339000,1438,3053010,18232.34,-515.31,-2652.8500000000004
1340,1.339999,1439,3054009,3106.34,2190.69,-8756.85
1341,1.341000,1440,3055010,-14513.66,3766.69,-15098.85
1342,1.342000,1441,3056010,-23128.66,1685.69,-14051.85
1343,1.342999,1442,3057009,-20316.66,846.69,-8804.85
1344,1.344000,1443,3058010,-10479.66,986.69,-5720.85
1345,1.345000,1444,3059010,2720.34,-178.31,-4914.85
1346,1.346000,1445,3060010,17476.34,-355.31,-5078.85
1347,1.346999,1446,3061009,23948.34,436.69,-2041.8500000000004
1348,1.347999,1447,3062009,19103.34,-429.31,5121.15
1349,1.348999,1448,3063009,7709.34,-2730.31,10998.15
1350,1.350000,1449,3064010,-3343.66,-3328.31,11495.15
1351,1.351000,1450,3065010,-6642.66,-1693.31,9814.15
1352,1.351999,1451,3066009,-7829.66,254.69,783.1499999999996
1353,1.353000,1452,3067010,-875.66,-720.31,-724.8500000000004
1354,1.354000,1453,3068010,9390.34,-3497.31,7268.15
1355,1.354999,1454,3069009,5220.34,-3556.31,4470.15
1356,1.356000,1455,3070010,-2909.66,-2599.31,3959.1499999999996
1357,1.357000,1456,3071010,-11352.66,-1975.31,5625.15
1358,1.358000,1457,3072010,-20868.66,1250.69,-1881.8500000000004
1359,1.359000,1458,3073010,-25266.66,4966.69,-7135.85
1360,1.360000,1459,3074010,-20040.66,6277.69,-7567.85
1361,1.361000,1460,3075010,-4938.66,4913.69,-2110.8500000000004
1362,1.362000,1461,3076010,13300.34,632.69,8360.15
1363,1.363000,1462,3077010,26302.34,-2671.31,11611.15
1364,1.364000,1463,3078010,32083.34,-2959.31,6922.15
1365,1.365000,1464,3079010,26705.34,-948.31,-140.85000000000036
1366,1.366000,1465,3080010,12141.34,387.69,-4097.85
1367,1.367000,1466,3081010,-3494.66,1627.69,-8752.85
1368,1.368000,1467,3082010,-15059.66,2786.69,-14532.85
1369,1.368999,1468,3083009,-21310.66,1522.69,-13079.85
1370,1.370000,1469,3084010,-19451.66,998.69,-7757.85
1371,1.370999,1470,3085009,-7686.66,849.69,-5154.85
1372,1.371999,1471,3086009,9203.34,-429.31,-5441.85
1373,1.372999,1472,3087009,21310.34,-317.31,-4252.85
1374,1.374000,1473,3088010,22528.34,456.69,325.14999999999964
1375,1.375000,1474,3089010,16242.34,-816.31,6126.15
1376,1.375999,1475,3090009,2526.34,-2841.31,10733.15
1377,1.377000,1476,3091010,-5302.66,-3213.31,10755.15
1378,1.378000,1477,3092010,-6546.66,-1203.31,6226.15
1379,1.379000,1478,3093010,-5908.66,-207.31,1672.1499999999996
1380,1.380000,1479,3094010,2948.34,-1451.31,3278.1499999999996
1381,1.381000,1480,3095010,6779.34,-2912.31,5540.15
1382,1.382000,1481,3096010,3072.34,-3243.31,3432.1499999999996
1383,1.383000,1482,3097010,-3051.66,-2845.31,3974.1499999999996
1384,1.384000,1483,3098010,-15013.66,-1043.31,5159.15
1385,1.385000,1484,3099010,-23105.66,2453.69,-2090.8500000000004
1386,1.385999,1485,3100009,-22327.66,5747.69,-8844.85
1387,1.386999,1486,3101009,-15232.66,5814.69,-6956.85
1388,1.388000,1487,3102010,-2220.66,3023.69,106.14999999999964
1389,1.389000,1488,3103010,15264.34,-166.31,9816.15
1390,1.390000,1489,3104010,29450.34,-2938.31,10844.15
1391,1.391000,1490,3105010,31549.34,-2734.31,3728.1499999999996
1392,1.391999,1491,3106009,22746.34,-1585.31,1800.1499999999996
1393,1.393000,1492,3107010,10618.34,-180.31,-2897.8500000000004
1394,1.394000,1493,3108010,-6062.66,2929.69,-13457.85
1395,1.395000,1494,3109010,-17956.66,4330.69,-17410.85
1396,1.395999,1495,3110009,-22500.66,2168.69,-13486.85
1397,1.397000,1496,3111010,-17088.66,820.69,-5715.85
1398,1.398000,1497,3112010,-5078.66,52.69,-2223.8500000000004
1399,1.399000,1498,3113010,12647.34,-1062.31,-4396.85
1400,1.399999,1499,3114009,23010.34,485.69,-4467.85
1401,1.401000,1500,3115010,21470.34,733.69,-80.85000000000036
1402,1.402000,1501,3116010,13842.34,-1660.31,7169.15
1403,1.403000,1502,3117010,-164.65999999999997,-3478.31,12699.15
1404,1.404000,1503,3118010,-6987.66,-2803.31,12810.15
1405,1.405000,1504,3119010,-8110.66,-656.31,5104.15
1406,1.405999,1505,3120009,-1201.6599999999999,-48.31,-531.8500000000004
1407,1.407000,1506,3121010,4641.34,-1726.31,2737.1499999999996
1408,1.408000,1507,3122010,6410.34,-3813.31,5648.15
1409,1.409000,1508,3123010,2610.34,-4062.31,4729.15
1410,1.409999,1509,3124009,-5771.66,-2421.31,4675.15
1411,1.411000,1510,3125010,-16266.66,109.69,3067.1499999999996
1412,1.412000,1511,3126010,-25747.66,3856.69,-5899.85
1413,1.413000,1512,3127010,-24735.66,6343.69,-10021.85
1414,1.414000,1513,3128010,-13443.66,4252.69,-4318.85
1415,1.414999,1514,3129009,3958.34,1686.69,4101.15
1416,1.416000,1515,3130010,20966.34,-313.31,10883.15
1417,1.417000,1516,3131010,31877.34,-2135.31,7973.15
1418,1.418000,1517,3132010,30433.34,-2556.31,3421.1499999999996
1419,1.419000,1518,3133010,20755.34,-1524.31,1849.1499999999996
1420,1.420000,1519,3134010,7056.34,1243.69,-5229.85
1421,1.420999,1520,3135009,-9554.66,2648.69,-13546.85
1422,1.422000,1521,3136010,-22079.66,3384.69,-17315.85
1423,1.423000,1522,3137010,-22943.66,2223.69,-13072.85
1424,1.424000,1523,3138010,-13282.66,1036.69,-6366.85
1425,1.425000,1524,3139010,-1953.6599999999999,-54.31,-3229.8500000000004
1426,1.426000,1525,3140010,15503.34,-1536.31,-2425.8500000000004
1427,1.427000,1526,3141010,24639.34,358.69,-2133.8500000000004
1428,1.428000,1527,3142010,21140.34,766.69,1341.1499999999996
1429,1.428999,1528,3143009,10832.34,-2125.31,8167.15
1430,1.430000,1529,3144010,-2094.66,-3879.31,12824.15
1431,1.431000,1530,3145010,-7732.66,-2468.31,11816.15
1432,1.431999,1531,3146009,-5110.66,-580.31,3775.1499999999996
1433,1.432999,1532,3147009,-1921.6599999999999,545.69,-3374.8500000000004
1434,1.434000,1533,3148010,3820.34,-2330.31,3982.1499999999996
1435,1.434999,1534,3149009,8066.34,-4711.31,7871.15
1436,1.435999,1535,3150009,-1325.6599999999999,-3213.31,3515.1499999999996
1437,1.437000,1536,3151010,-9941.66,-1817.31,5324.15
1438,1.438000,1537,3152010,-19677.66,1061.69,946.1499999999996
1439,1.439000,1538,3153010,-23993.66,4763.69,-7794.85
1440,1.440000,1539,3154010,-19788.66,6184.69,-8404.85
1441,1.440999,1540,3155009,-10501.66,3546.69,-2742.8500000000004
1442,1.441999,1541,3156009,8582.34,832.69,6879.15
1443,1.443000,1542,3157010,25298.34,-1040.31,11628.15
1444,1.444000,1543,3158010,32832.34,-2452.31,5984.15
1445,1.445000,1544,3159010,27488.34,-2362.31,3207.1499999999996
1446,1.446000,1545,3160010,15939.34,-573.31,675.1499999999996
1447,1.447000,1546,3161010,1373.3400000000001,1900.69,-9252.85
1448,1.448000,1547,3162010,-12439.66,3413.69,-16897.85
1449,1.448999,1548,3163009,-23601.66,3065.69,-16363.85
1450,1.450000,1549,3164010,-22547.66,1246.69,-9319.85
1451,1.451000,1550,3165010,-8353.66,553.69,-3218.8500000000004
1452,1.452000,1551,3166010,5153.34,-1055.31,-3213.8500000000004
1453,1.452999,1552,3167009,20166.34,-636.31,-4293.85
1454,1.454000,1553,3168010,23398.34,1165.69,-2256.8500000000004
1455,1.455000,1554,3169010,18111.34,-255.31,3554.1499999999996
1456,1.456000,1555,3170010,5408.34,-2898.31,11347.15
1457,1.457000,1556,3171010,-5214.66,-3709.31,13485.15
1458,1.458000,1557,3172010,-6069.66,-1954.31,8932.15
1459,1.458999,1558,3173009,-4737.66,-268.31,2562.1499999999996
1460,1.460000,1559,3174010,-426.65999999999997,122.69,-1369.8500000000004
1461,1.460999,1560,3175009,6637.34,-2531.31,3058.1499999999996
1462,1.461999,1561,3176009,5307.34,-4508.31,5669.15
1463,1.462999,1562,3177009,-3042.66,-3253.31,4810.15
1464,1.464000,1563,3178010,-11705.66,-1359.31,5869.15
1465,1.464999,1564,3179009,-22546.66,2344.69,-2908.8500000000004
1466,1.466000,1565,3180010,-23316.66,5984.69,-10478.85
1467,1.467000,1566,3181010,-19176.66,5742.69,-5314.85
1468,1.467999,1567,3182009,-5571.66,2521.69,2189.1499999999996
1469,1.469000,1568,3183010,14053.34,-280.31,8509.15
1470,1.470000,1569,3184010,29088.34,-1800.31,9280.15
1471,1.471000,1570,3185010,33788.34,-2203.31,4893.15
1472,1.472000,1571,3186010,25375.34,-2014.31,3031.1499999999996
1473,1.472999,1572,3187009,12619.34,-19.310000000000002,-3303.8500000000004
1474,1.473999,1573,3188009,-4154.66,3003.69,-12822.85
1475,1.475000,1574,3189010,-18675.66,3834.69,-16115.85
1476,1.476000,1575,3190010,-25428.66,1953.69,-13263.85
1477,1.477000,1576,3191010,-16605.66,495.69,-7096.85
1478,1.478000,1577,3192010,-5543.66,332.69,-3651.8500000000004
1479,1.479000,1578,3193010,7750.34,-593.31,-4011.8500000000004
1480,1.480000,1579,3194010,22954.34,-453.31,-3708.8500000000004
1481,1.480999,1580,3195009,23263.34,545.69,159.14999999999964
1482,1.482000,1581,3196010,16307.34,-731.31,6278.15
1483,1.483000,1582,3197010,2124.34,-2976.31,9864.15
1484,1.484000,1583,3198010,-5626.66,-2688.31,11568.15
1485,1.485000,1584,3199010,-8313.66,-957.31,5970.15
1486,1.486000,1585,3200010,-6685.66,-991.31,2662.1499999999996
1487,1.487000,1586,3201010,4561.34,-2157.31,4521.15
1488,1.488000,1587,3202010,7997.34,-3096.31,2645.1499999999996
1489,1.489000,1588,3203010,3380.34,-3156.31,3504.1499999999996
1490,1.490000,1589,3204010,-3739.66,-2631.31,6451.15
1491,1.491000,1590,3205010,-16844.66,-90.31,2647.1499999999996
1492,1.492000,1591,3206010,-24005.66,3494.69,-5561.85
1493,1.493000,1592,3207010,-22144.66,5647.69,-8360.85
1494,1.493999,1593,3208009,-17809.66,6236.69,-6575.85
1495,1.495000,1594,3209010,691.34,2464.69,2116.1499999999996
1496,1.496000,1595,3210010,20659.34,-1721.31,11497.15
1497,1.497000,1596,3211010,30196.34,-3137.31,11365.15
1498,1.498000,1597,3212010,33788.34,-3278.31,6543.15
1499,1.498999,1598,3213009,22170.34,-514.31,-1925.8500000000004
1500,1.500000,1599,3214010,3644.34,2324.69,-9023.85
1501,1.501000,1600,3215010,-9443.66,2608.69,-11249.85
1502,1.502000,1601,3216010,-19248.66,2226.69,-14117.85
1503,1.503000,1602,3217010,-21559.66,1671.69,-12412.85
1504,1.503999,1603,3218009,-17054.66,1371.69,-7677.85
1505,1.505000,1604,3219010,-1485.6599999999999,526.69,-4698.85
1506,1.506000,1605,3220010,15627.34,-894.31,-3745.8500000000004
1507,1.507000,1606,3221010,23382.34,-353.31,-1511.8500000000004
1508,1.508000,1607,3222010,21880.34,-150.31,3476.1499999999996
1509,1.509000,1608,3223010,12618.34,-1757.31,8375.15
1510,1.510000,1609,3224010,-2016.6599999999999,-2837.31,10261.15
1511,1.510999,1610,3225009,-6859.66,-1964.31,9259.15
1512,1.512000,1611,3226010,-6708.66,-545.31,4442.15
1513,1.513000,1612,3227010,-3707.66,-560.31,-93.85000000000036
1514,1.514000,1613,3228010,4945.34,-1786.31,3732.1499999999996
1515,1.515000,1614,3229010,6291.34,-3664.31,4835.15
1516,1.516000,1615,3230010,604.34,-3615.31,3565.1499999999996
1517,1.517000,1616,3231010,-7774.66,-2565.31,6570.15
1518,1.517999,1617,3232009,-19216.66,326.69,2249.1499999999996
1519,1.519000,1618,3233010,-23097.66,4048.69,-6145.85
1520,1.520000,1619,3234010,-19537.66,6101.69,-8124.85
1521,1.521000,1620,3235010,-12140.66,5191.69,-3985.8500000000004
1522,1.522000,1621,3236010,6573.34,1207.69,4991.15
1523,1.523000,1622,3237010,22957.34,-1530.31,10694.15
1524,1.524000,1623,3238010,31232.34,-2798.31,7671.15
1525,1.525000,1624,3239010,27728.34,-2348.31,3488.1499999999996
1526,1.526000,1625,3240010,18889.34,-581.31,556.1499999999996
1527,1.527000,1626,3241010,3286.34,1921.69,-7827.85
1528,1.527999,1627,3242009,-12853.66,3768.69,-16178.85
1529,1.529000,1628,3243010,-20185.66,2466.69,-15616.85
1530,1.530000,1629,3244010,-21400.66,967.69,-10108.85
1531,1.531000,1630,3245010,-11926.66,771.69,-5255.85
1532,1.532000,1631,3246010,829.34,-285.31,-3414.8500000000004
1533,1.533000,1632,3247010,18687.34,-944.31,-2881.8500000000004
1534,1.534000,1633,3248010,23376.34,656.69,-1893.8500000000004
1535,1.535000,1634,3249010,19855.34,546.69,1826.1499999999996
1536,1.536000,1635,3250010,8870.34,-2447.31,9193.15
1537,1.536999,1636,3251009,-4660.66,-3555.31,13450.15
1538,1.538000,1637,3252010,-5470.66,-2036.31,9467.15
1539,1.539000,1638,3253010,-7484.66,-642.31,2720.1499999999996
1540,1.540000,1639,3254010,-209.65999999999997,-534.31,775.1499999999996
1541,1.541000,1640,3255010,6459.34,-2368.31,3017.1499999999996
1542,1.541999,1641,3256009,4479.34,-3997.31,4416.15
1543,1.543000,1642,3257010,-1046.6599999999999,-3406.31,5272.15
1544,1.544000,1643,3258010,-10872.66,-1928.31,6237.15
1545,1.545000,1644,3259010,-20394.66,1366.69,-670.8500000000004
1546,1.546000,1645,3260010,-24099.66,5039.69,-8759.85
1547,1.547000,1646,3261010,-19117.66,6287.69,-7931.85
1548,1.548000,1647,3262010,-6725.66,4355.69,-2003.8500000000004
1549,1.549000,1648,3263010,10677.34,770.69,6534.15
1550,1.550000,1649,3264010,24898.34,-2412.31,12059.15
1551,1.551000,1650,3265010,33427.34,-3829.31,10173.15
1552,1.552000,1651,3266010,27681.34,-1682.31,1923.1499999999996
1553,1.552999,1652,3267009,13255.34,1611.69,-6982.85
1554,1.554000,1653,3268010,-1390.6599999999999,3299.69,-12073.85
1555,1.555000,1654,3269010,-16621.66,2848.69,-14180.85
1556,1.556000,1655,3270010,-23340.66,730.69,-10980.85
1557,1.557000,1656,3271010,-18034.66,174.69,-6526.85
1558,1.558000,1657,3272010,-5622.66,1018.69,-5584.85
1559,1.558999,1658,3273009,5748.34,480.69,-7269.85
1560,1.560000,1659,3274010,19879.34,-662.31,-4322.85
1561,1.560999,1660,3275009,24023.34,-434.31,2653.1499999999996
1562,1.562000,1661,3276010,15638.34,-573.31,6562.15
1563,1.562999,1662,3277009,3552.34,-2430.31,9601.15
1564,1.564000,1663,3278010,-4974.66,-3096.31,11005.15
1565,1.565000,1664,3279010,-4180.66,-1347.31,7983.15
1566,1.566000,1665,3280010,-5295.66,515.69,-59.850000000000364
1567,1.566999,1666,3281009,1888.3400000000001,-702.31,-292.85000000000036
1568,1.567999,1667,3282009,7137.34,-3738.31,6503.15
1569,1.568999,1668,3283009,601.34,-3974.31,5481.15
1570,1.570000,1669,3284010,-4661.66,-2849.31,4433.15
1571,1.571000,1670,3285010,-12350.66,-1340.31,3828.1499999999996
1572,1.572000,1671,3286010,-21626.66,2447.69,-3675.8500000000004
1573,1.573000,1672,3287010,-23832.66,5340.69,-7655.85
1574,1.574000,1673,3288010,-17080.66,5485.69,-5534.85
1575,1.575000,1674,3289010,-1409.6599999999999,3282.69,279.14999999999964
1576,1.576000,1675,3290010,17192.34,109.69,8688.15
1577,1.577000,1676,3291010,28595.34,-2784.31,11808.15
1578,1.577999,1677,3292009,30847.34,-2980.31,6863.15
1579,1.578999,1678,3293009,23069.34,-57.31,-2034.8500000000004
1580,1.580000,1679,3294010,8469.34,1447.69,-7726.85
1581,1.581000,1680,3295010,-5842.66,2150.69,-10212.85
1582,1.581999,1681,3296009,-16655.66,2392.69,-12948.85
1583,1.583000,1682,3297010,-22997.66,1523.69,-11714.85
1584,1.584000,1683,3298010,-15824.66,976.69,-7709.85
1585,1.585000,1684,3299010,-2420.66,760.69,-5942.85
1586,1.586000,1685,3300010,10991.34,27.689999999999998,-4475.85
1587,1.587000,1686,3301010,19950.34,-440.31,-2044.8500000000004
1588,1.588000,1687,3302010,22232.34,-516.31,2589.1499999999996
1589,1.589000,1688,3303010,15478.34,-1455.31,7569.15
1590,1.589999,1689,3304009,437.34000000000003,-2658.31,9893.15
1591,1.591000,1690,3305010,-5594.66,-2361.31,9233.15
1592,1.591999,1691,3306009,-5943.66,-725.31,4910.15
1593,1.593000,1692,3307010,-5753.66,74.69,-535.8500000000004
1594,1.594000,1693,3308010,2297.34,-1894.31,3271.1499999999996
1595,1.594999,1694,3309009,5673.34,-3563.31,6782.15
1596,1.596000,1695,3310010,1406.3400000000001,-3240.31,3887.1499999999996
1597,1.597000,1696,3311010,-4018.66,-2823.31,4224.15
1598,1.598000,1697,3312010,-15270.66,-706.31,3498.1499999999996
1599,1.599000,1698,3313010,-22122.66,2978.69,-2821.8500000000004
1600,1.600000,1699,3314010,-21091.66,6099.69,-8903.85
1601,1.601000,1700,3315010,-13208.66,4716.69,-4901.85
1602,1.602000,1701,3316010,1902.3400000000001,1884.69,3871.1499999999996
1603,1.603000,1702,3317010,17514.34,-180.31,9892.15
1604,1.604000,1703,3318010,29345.34,-2512.31,9206.15
1605,1.605000,1704,3319010,30436.34,-2228.31,3102.1499999999996
1606,1.606000,1705,3320010,19858.34,-570.31,-794.8500000000004
1607,1.606999,1706,3321009,6627.34,1767.69,-6329.85
1608,1.608000,1707,3322010,-8185.66,2812.69,-13207.85
1609,1.608999,1708,3323009,-20043.66,1826.69,-14713.85
1610,1.609999,1709,3324009,-21422.66,1401.69,-11279.85
1611,1.611000,1710,3325010,-12842.66,1026.69,-5561.85
1612,1.612000,1711,3326010,-1851.6599999999999,224.69,-4265.85
1613,1.613000,1712,3327010,14583.34,-591.31,-5217.85
1614,1.614000,1713,3328010,23033.34,-179.31,-1727.8500000000004
1615,1.615000,1714,3329010,20362.34,61.69,4058.1499999999996
1616,1.616000,1715,3330010,10435.34,-1455.31,7161.15
1617,1.617000,1716,3331010,-1791.6599999999999,-3170.31,9521.15
1618,1.618000,1717,3332010,-5792.66,-2777.31,11397.15
1619,1.619000,1718,3333010,-6373.66,132.69,2995.1499999999996
1620,1.619999,1719,3334009,-3503.66,285.69,-1981.8500000000004
1621,1.620999,1720,3335009,5316.34,-3217.31,5849.15
1622,1.621999,1721,3336009,7042.34,-4064.31,6299.15
1623,1.623000,1722,3337010,631.34,-2868.31,3200.1499999999996
1624,1.624000,1723,3338010,-7843.66,-2378.31,6599.15
1625,1.625000,1724,3339010,-18601.66,-318.31,3907.1499999999996
1626,1.626000,1725,3340010,-23075.66,3829.69,-5923.85
1627,1.627000,1726,3341010,-21194.66,6768.69,-10168.85
1628,1.628000,1727,3342010,-9818.66,5586.69,-6033.85
1629,1.629000,1728,3343010,5793.34,2353.69,4509.15
1630,1.630000,1729,3344010,21333.34,-1607.31,13008.15
1631,1.631000,1730,3345010,30254.34,-3443.31,8856.15
1632,1.632000,1731,3346010,28164.34,-2153.31,537.1499999999996
1633,1.633000,1732,3347010,17297.34,-975.31,-1486.8500000000004
1634,1.633999,1733,3348009,3355.34,1377.69,-6046.85
1635,1.635000,1734,3349010,-10124.66,2840.69,-13802.85
1636,1.636000,1735,3350010,-20659.66,2271.69,-14798.85
1637,1.637000,1736,3351010,-20099.66,1705.69,-10542.85
1638,1.638000,1737,3352010,-9765.66,1255.69,-5298.85
1639,1.639000,1738,3353010,663.34,165.69,-4833.85
1640,1.640000,1739,3354010,16730.34,-836.31,-4133.85
1641,1.641000,1740,3355010,23564.34,186.69,-1264.8500000000004
1642,1.642000,1741,3356010,17843.34,138.69,3094.1499999999996
1643,1.643000,1742,3357010,6681.34,-1776.31,8975.15
1644,1.644000,1743,3358010,-3155.66,-3504.31,11800.15
1645,1.645000,1744,3359010,-5614.66,-2489.31,9635.15
1646,1.646000,1745,3360010,-6408.66,-558.31,3362.1499999999996
1647,1.647000,1746,3361010,853.34,-1160.31,1857.1499999999996
1648,1.648000,1747,3362010,6990.34,-2558.31,4345.15
1649,1.649000,1748,3363010,4498.34,-2922.31,3156.1499999999996
1650,1.650000,1749,3364010,-1644.6599999999999,-2776.31,4269.15
1651,1.651000,1750,3365010,-9378.66,-2032.31,6567.15
1652,1.652000,1751,3366010,-21601.66,796.69,-511.85000000000036
1653,1.653000,1752,3367010,-24305.66,4653.69,-7459.85
1654,1.654000,1753,3368010,-18918.66,6446.69,-8306.85
1655,1.655000,1754,3369010,-7110.66,4896.69,-3964.8500000000004
1656,1.655999,1755,3370009,9828.34,1754.69,6749.15
1657,1.657000,1756,3371010,23710.34,-2484.31,13166.15
1658,1.658000,1757,3372010,33139.34,-3956.31,7379.15
1659,1.658999,1758,3373009,26449.34,-1607.31,928.1499999999996
1660,1.659999,1759,3374009,16067.34,-470.31,-923.8500000000004
1661,1.661000,1760,3375010,866.34,2009.69,-8167.85
1662,1.662000,1761,3376010,-14975.66,3673.69,-16511.85
1663,1.663000,1762,3377010,-22352.66,1973.69,-15692.85
1664,1.664000,1763,3378010,-20450.66,1335.69,-8704.85
1665,1.665000,1764,3379010,-9188.66,960.69,-4347.85
1666,1.666000,1765,3380010,4554.34,-584.31,-4454.85
1667,1.667000,1766,3381010,20124.34,-602.31,-4169.85
1668,1.667999,1767,3382009,23574.34,724.69,-1403.8500000000004
1669,1.668999,1768,3383009,18281.34,-332.31,4749.15
1670,1.669999,1769,3384009,5578.34,-3349.31,11952.15
1671,1.671000,1770,3385010,-4419.66,-3873.31,13718.15
1672,1.672000,1771,3386010,-6903.66,-1664.31,8840.15
1673,1.672999,1772,3387009,-5194.66,654.69,-1177.8500000000004
1674,1.674000,1773,3388010,650.34,-512.31,-1250.8500000000004
1675,1.675000,1774,3389010,6391.34,-4177.31,8026.15
1676,1.676000,1775,3390010,4020.34,-3742.31,6352.15
1677,1.677000,1776,3391010,-4432.66,-2527.31,3542.1499999999996
1678,1.678000,1777,3392010,-12140.66,-1235.31,4583.15
1679,1.679000,1778,3393010,-22293.66,2474.69,-2961.8500000000004
1680,1.680000,1779,3394010,-24174.66,5978.69,-9682.85
1681,1.681000,1780,3395010,-20060.66,6428.69,-7811.85
1682,1.682000,1781,3396010,-2993.66,3263.69,342.14999999999964
1683,1.683000,1782,3397010,17523.34,-690.31,10507.15
1684,1.684000,1783,3398010,28588.34,-2554.31,11830.15
1685,1.685000,1784,3399010,33788.34,-2471.31,4553.15
1686,1.686000,1785,3400010,24658.34,-1579.31,13.149999999999636
1687,1.687000,1786,3401010,12410.34,-117.31,-2788.8500000000004
1688,1.688000,1787,3402010,-5731.66,2317.69,-10840.85
1689,1.689000,1788,3403010,-20330.66,3687.69,-16550.85
1690,1.690000,1789,3404010,-22920.66,2166.69,-13970.85
1691,1.691000,1790,3405010,-17847.66,1426.69,-8501.85
1692,1.692000,1791,3406010,-4821.66,617.69,-5088.85
1693,1.693000,1792,3407010,10809.34,-889.31,-4079.8500000000004
1694,1.694000,1793,3408010,22354.34,172.69,-2767.8500000000004
1695,1.695000,1794,3409010,23069.34,224.69,1609.1499999999996
1696,1.696000,1795,3410010,15483.34,-1885.31,8055.15
1697,1.697000,1796,3411010,814.34,-3317.31,12485.15
1698,1.698000,1797,3412010,-6324.66,-3182.31,12185.15
1699,1.699000,1798,3413010,-6647.66,-973.31,3868.1499999999996
1700,1.700000,1799,3414010,-4225.66,44.69,-690.8500000000004
1701,1.701000,1800,3415010,3064.34,-1703.31,4009.1499999999996
1702,1.701999,1801,3416009,5464.34,-3616.31,6191.15
1703,1.703000,1802,3417010,3057.34,-3503.31,3789.1499999999996
1704,1.703999,1803,3418009,-4983.66,-2220.31,4070.1499999999996
1705,1.705000,1804,3419010,-19048.66,394.69,1902.1499999999996
1706,1.706000,1805,3420010,-24458.66,3249.69,-4777.85
1707,1.706999,1806,3421009,-21247.66,5367.69,-7865.85
1708,1.708000,1807,3422010,-13616.66,5166.69,-5676.85
1709,1.709000,1808,3423010,2617.34,2498.69,3372.1499999999996
1710,1.710000,1809,3424010,21085.34,-635.31,11392.15
1711,1.710999,1810,3425009,32396.34,-2938.31,10832.15
1712,1.712000,1811,3426010,31606.34,-2468.31,3836.1499999999996
1713,1.713000,1812,3427010,20319.34,-932.31,-1807.8500000000004
1714,1.714000,1813,3428010,5077.34,1174.69,-7147.85
1715,1.715000,1814,3429010,-10191.66,3084.69,-13411.85
1716,1.715999,1815,3430009,-20884.66,2692.69,-14530.85
1717,1.717000,1816,3431010,-23895.66,1525.69,-11192.85
1718,1.718000,1817,3432010,-14646.66,1502.69,-7649.85
1719,1.719000,1818,3433010,-256.65999999999997,317.69,-5319.85
1720,1.720000,1819,3434010,16295.34,-1102.31,-3890.8500000000004
1721,1.721000,1820,3435010,24656.34,81.69,-851.8500000000004
1722,1.722000,1821,3436010,21871.34,-175.31,3894.1499999999996
1723,1.723000,1822,3437010,10654.34,-2116.31,8925.15
1724,1.724000,1823,3438010,-1916.6599999999999,-3322.31,11555.15
1725,1.725000,1824,3439010,-6040.66,-1833.31,8781.15
1726,1.726000,1825,3440010,-8064.66,-300.31,3265.1499999999996
1727,1.726999,1826,3441009,-2606.66,-963.31,809.1499999999996
1728,1.728000,1827,3442010,4654.34,-2845.31,4690.15
1729,1.729000,1828,3443010,5891.34,-4142.31,5415.15
1730,1.730000,1829,3444010,-1039.6599999999999,-3018.31,4003.1499999999996
1731,1.731000,1830,3445010,-8965.66,-2109.31,6744.15
1732,1.732000,1831,3446010,-19139.66,807.69,1120.1499999999996
1733,1.733000,1832,3447010,-25178.66,5144.69,-8513.85
1734,1.734000,1833,3448010,-20093.66,6740.69,-9294.85
1735,1.735000,1834,3449010,-8869.66,5074.69,-3366.8500000000004
1736,1.736000,1835,3450010,9174.34,942.69,7156.15
1737,1.737000,1836,3451010,25669.34,-2896.31,13657.15
1738,1.737999,1837,3452009,33723.34,-3723.31,9596.15
1739,1.739000,1838,3453010,28511.34,-1453.31,168.14999999999964
1740,1.740000,1839,3454010,15125.34,1279.69,-6555.85
1741,1.741000,1840,3455010,-196.65999999999997,2245.69,-9510.85
1742,1.742000,1841,3456010,-14830.66,2635.69,-13087.85
1743,1.743000,1842,3457010,-23959.66,1756.69,-12993.85
1744,1.743999,1843,3458009,-21580.66,1167.69,-9346.85
1745,1.744999,1844,3459009,-8910.66,1085.69,-6571.85
1746,1.745999,1845,3460009,6914.34,-398.31,-6017.85
1747,1.747000,1846,3461010,21472.34,-578.31,-3758.8500000000004
1748,1.748000,1847,3462010,24635.34,127.69,981.1499999999996
1749,1.749000,1848,3463010,18214.34,-1175.31,6760.15
1750,1.750000,1849,3464010,4394.34,-2888.31,11566.15
1751,1.751000,1850,3465010,-5787.66,-2788.31,11135.15
1752,1.752000,1851,3466010,-7159.66,-760.31,5449.15
1753,1.752999,1852,3467009,-6935.66,-258.31,1762.1499999999996
1754,1.754000,1853,3468010,1715.3400000000001,-1300.31,3092.1499999999996
1755,1.755000,1854,3469010,5228.34,-2888.31,5028.15
1756,1.755999,1855,3470009,4300.34,-3989.31,4137.15
1757,1.757000,1856,3471010,-225.65999999999997,-3187.31,4297.15
1758,1.757999,1857,3472009,-15326.66,-828.31,5456.15
1759,1.759000,1858,3473010,-22803.66,2370.69,-2761.8500000000004
1760,1.760000,1859,3474010,-21715.66,4865.69,-9142.85
1761,1.760999,1860,3475009,-17713.66,6257.69,-6600.85
1762,1.762000,1861,3476010,-4486.66,3892.69,413.14999999999964
1763,1.762999,1862,3477009,15560.34,-308.31,9121.15
1764,1.764000,1863,3478010,30127.34,-3185.31,12218.15
1765,1.764999,1864,3479009,33788.34,-3250.31,6978.15
1766,1.766000,1865,3480010,24365.34,-889.31,-914.8500000000004
1767,1.767000,1866,3481010,8786.34,1549.69,-8669.85
1768,1.768000,1867,3482010,-6321.66,3449.69,-13990.85
1769,1.769000,1868,3483010,-19473.66,2538.69,-12992.85
1770,1.770000,1869,3484010,-22872.66,515.69,-9389.85
1771,1.771000,1870,3485010,-17204.66,970.69,-6465.85
1772,1.772000,1871,3486010,-5008.66,815.69,-6520.85
1773,1.773000,1872,3487010,12013.34,-546.31,-6648.85
1774,1.773999,1873,3488009,24586.34,49.69,-3153.8500000000004
1775,1.774999,1874,3489009,22244.34,491.69,3201.1499999999996
1776,1.776000,1875,3490010,14140.34,-1600.31,9107.15
1777,1.776999,1876,3491009,2083.34,-3645.31,11399.15
1778,1.778000,1877,3492010,-6754.66,-2266.31,9865.15
1779,1.779000,1878,3493010,-8625.66,-126.31,4137.15
1780,1.780000,1879,3494010,-5134.66,-931.31,2080.1499999999996
1781,1.780999,1880,3495009,3425.34,-2417.31,3686.1499999999996
1782,1.782000,1881,3496010,5221.34,-3178.31,4300.15
1783,1.783000,1882,3497010,3481.34,-2965.31,4160.15
1784,1.784000,1883,3498010,-5472.66,-2055.31,3948.1499999999996
1785,1.785000,1884,3499010,-16781.66,15.689999999999998,901.1499999999996
1786,1.786000,1885,3500010,-24035.66,3742.69,-4332.85
1787,1.786999,1886,3501009,-22704.66,5235.69,-6456.85
1788,1.788000,1887,3502010,-11372.66,4711.69,-4995.85
1789,1.789000,1888,3503010,2501.34,2448.69,2199.1499999999996
1790,1.790000,1889,3504010,20312.34,-1083.31,10360.15
1791,1.791000,1890,3505010,32745.34,-3128.31,11428.15
1792,1.792000,1891,3506010,30496.34,-3409.31,5337.15
1793,1.793000,1892,3507010,20597.34,-695.31,-289.85000000000036
1794,1.794000,1893,3508010,5073.34,1915.69,-8022.85
1795,1.794999,1894,3509009,-10004.66,4241.69,-16582.85
1796,1.796000,1895,3510010,-21034.66,3743.69,-17356.85
1797,1.797000,1896,3511010,-24485.66,1001.69,-10995.85
1798,1.798000,1897,3512010,-15335.66,340.69,-3209.8500000000004
1799,1.799000,1898,3513010,-604.66,-684.31,-2667.8500000000004
1800,1.800000,1899,3514010,18268.34,-655.31,-4918.85
1801,1.801000,1900,3515010,25752.34,495.69,-3423.8500000000004
1802,1.801999,1901,3516009,22782.34,2.6899999999999977,2226.1499999999996
1803,1.803000,1902,3517010,10404.34,-2143.31,10004.15
1804,1.804000,1903,3518010,-2680.66,-3789.31,14332.15
1805,1.805000,1904,3519010,-7433.66,-3269.31,11920.15
1806,1.806000,1905,3520010,-8208.66,-277.31,830.1499999999996
1807,1.807000,1906,3521010,-2837.66,370.69,-1922.8500000000004
1808,1.807999,1907,3522009,3547.34,-1954.31,3820.1499999999996
1809,1.809000,1908,3523010,5887.34,-3207.31,4250.15
1810,1.809999,1909,3524009,497.34000000000003,-3360.31,5635.15
1811,1.810999,1910,3525009,-7551.66,-2033.31,6234.15
1812,1.812000,1911,3526010,-20174.66,730.69,78.14999999999964
1813,1.813000,1912,3527010,-25501.66,4463.69,-6568.85
1814,1.814000,1913,3528010,-20147.66,6294.69,-8147.85
1815,1.815000,1914,3529010,-8807.66,4368.69,-3509.8500000000004
1816,1.815999,1915,3530009,9952.34,954.69,7033.15
1817,1.816999,1916,3531009,24313.34,-2034.31,12183.15
1818,1.817999,1917,3532009,33788.34,-3189.31,8624.15
1819,1.819000,1918,3533010,29939.34,-2029.31,1251.1499999999996
1820,1.820000,1919,3534010,15566.34,529.69,-4668.85
1821,1.820999,1920,3535009,-703.66,2533.69,-9754.85
1822,1.822000,1921,3536010,-15112.66,2940.69,-15734.85
1823,1.823000,1922,3537010,-23163.66,1834.69,-13864.85
1824,1.823999,1923,3538009,-23316.66,1053.69,-7021.85
1825,1.825000,1924,3539010,-9130.66,793.69,-4478.85
1826,1.826000,1925,3540010,7114.34,-817.31,-4754.85
1827,1.827000,1926,3541010,21107.34,-216.31,-4480.85
1828,1.828000,1927,3542010,25593.34,1291.69,-2182.8500000000004
1829,1.828999,1928,3543009,18627.34,-708.31,4766.15
1830,1.830000,1929,3544010,5386.34,-3226.31,12260.15
1831,1.831000,1930,3545010,-6086.66,-3484.31,13087.15
1832,1.831999,1931,3546009,-9015.66,-981.31,5966.15
1833,1.833000,1932,3547010,-8005.66,-11.310000000000002,710.1499999999996
1834,1.834000,1933,3548010,722.34,-1796.31,3303.1499999999996
1835,1.835000,1934,3549010,7709.34,-4004.31,7301.15
1836,1.835999,1935,3550009,5468.34,-3795.31,5561.15
1837,1.836999,1936,3551009,-1706.6599999999999,-2021.31,3441.1499999999996
1838,1.838000,1937,3552010,-13351.66,-321.31,1719.1499999999996
1839,1.839000,1938,3553010,-22111.66,2573.69,-3825.8500000000004
1840,1.840000,1939,3554010,-24979.66,5596.69,-7428.85
1841,1.841000,1940,3555010,-19757.66,5758.69,-6501.85
1842,1.842000,1941,3556010,-2072.66,3053.69,342.14999999999964
1843,1.842999,1942,3557009,17313.34,-54.31,9256.15
1844,1.844000,1943,3558010,30150.34,-2969.31,12356.15
1845,1.845000,1944,3559010,33788.34,-3245.31,6781.15
1846,1.846000,1945,3560010,24053.34,-1090.31,-1360.8500000000004
1847,1.847000,1946,3561010,9127.34,758.69,-6056.85
1848,1.847999,1947,3562009,-6830.66,2223.69,-10592.85
1849,1.848999,1948,3563009,-18798.66,3202.69,-15534.85
1850,1.850000,1949,3564010,-24186.66,2463.69,-14214.85
1851,1.851000,1950,3565010,-17844.66,1182.69,-7654.85
1852,1.851999,1951,3566009,-2975.66,155.69,-3683.8500000000004
1853,1.852999,1952,3567009,12667.34,-726.31,-4585.85
1854,1.854000,1953,3568010,23919.34,-216.31,-2646.8500000000004
1855,1.855000,1954,3569010,21972.34,318.69,2950.1499999999996
1856,1.856000,1955,3570010,14324.34,-1612.31,7462.15
1857,1.857000,1956,3571010,1275.3400000000001,-3109.31,10564.15
1858,1.858000,1957,3572010,-7915.66,-2581.31,10910.15
1859,1.859000,1958,3573010,-7884.66,-479.31,4763.15
1860,1.860000,1959,3574010,-3486.66,602.69,-1333.8500000000004
1861,1.861000,1960,3575010,2592.34,-2581.31,4549.15
1862,1.862000,1961,3576010,6087.34,-4158.31,6136.15
1863,1.862999,1962,3577009,3289.34,-3127.31,2787.1499999999996
1864,1.864000,1963,3578010,-4822.66,-2504.31,5281.15
1865,1.865000,1964,3579010,-18480.66,-3.3100000000000023,3614.1499999999996
1866,1.866000,1965,3580010,-25657.66,3334.69,-3102.8500000000004
1867,1.867000,1966,3581010,-20296.66,5765.69,-8844.85
1868,1.868000,1967,3582010,-13135.66,5803.69,-6542.85
1869,1.869000,1968,3583010,2653.34,2478.69,3582.1499999999996
1870,1.870000,1969,3584010,21781.34,-1616.31,11788.15
1871,1.870999,1970,3585009,33142.34,-3662.31,11936.15
1872,1.872000,1971,3586010,31601.34,-2420.31,3064.1499999999996
1873,1.872999,1972,3587009,18752.34,-81.31,-4843.85
1874,1.874000,1973,3588010,4105.34,1791.69,-8607.85
1875,1.875000,1974,3589010,-10974.66,3426.69,-13854.85
1876,1.876000,1975,3590010,-22108.66,2223.69,-13803.85
1877,1.877000,1976,3591010,-23370.66,1028.69,-8755.85
1878,1.877999,1977,3592009,-13360.66,986.69,-5780.85
1879,1.879000,1978,3593010,2057.34,237.69,-5959.85
1880,1.880000,1979,3594010,18247.34,-259.31,-5579.85
1881,1.881000,1980,3595010,24632.34,-190.31,-1094.8500000000004
1882,1.882000,1981,3596010,20431.34,-587.31,5116.15
1883,1.883000,1982,3597010,10248.34,-2392.31,9642.15
1884,1.883999,1983,3598009,-3133.66,-2999.31,11124.15
1885,1.885000,1984,3599010,-10298.66,-1165.31,8912.15
1886,1.885999,1985,3600009,-7086.66,-297.31,1286.1499999999996
1887,1.887000,1986,3601010,54.34000000000003,-1111.31,1812.1499999999996
1888,1.887999,1987,3602009,3796.34,-2829.31,6720.15
1889,1.888999,1988,3603009,6429.34,-4190.31,4901.15
1890,1.890000,1989,3604010,1181.3400000000001,-3013.31,3721.1499999999996
1891,1.891000,1990,3605010,-9723.66,-1479.31,4495.15
1892,1.892000,1991,3606010,-20081.66,947.69,877.1499999999996
1893,1.893000,1992,3607010,-25768.66,5119.69,-7227.85
1894,1.894000,1993,3608010,-21551.66,6440.69,-8997.85
1895,1.895000,1994,3609010,-8181.66,4101.69,-2627.8500000000004
1896,1.896000,1995,3610010,11311.34,549.69,8096.15
1897,1.897000,1996,3611010,26633.34,-2261.31,12638.15
1898,1.898000,1997,3612010,33788.34,-3092.31,7639.15
1899,1.899000,1998,3613010,29309.34,-1424.31,144.14999999999964
1900,1.899999,1999,3614009,14595.34,1136.69,-4940.85
1901,1.901000,2000,3615010,-2322.66,2694.69,-11017.85
1902,1.902000,2001,3616010,-17745.66,2552.69,-14865.85
1903,1.903000,2002,3617010,-24301.66,1338.69,-12016.85
1904,1.904000,2003,3618010,-19792.66,840.69,-7831.85
1905,1.905000,2004,3619010,-8494.66,943.69,-5828.85
1906,1.906000,2005,3620010,8437.34,-267.31,-5564.85
1907,1.907000,2006,3621010,23059.34,-948.31,-3183.8500000000004
1908,1.907999,2007,3622009,24319.34,178.69,1563.1499999999996
1909,1.908999,2008,3623009,17308.34,-961.31,7201.15
1910,1.910000,2009,3624010,2889.34,-2724.31,10702.15
1911,1.911000,2010,3625010,-5481.66,-2306.31,9738.15
1912,1.912000,2011,3626010,-7429.66,-1204.31,5687.15
1913,1.913000,2012,3627010,-7702.66,148.69,531.1499999999996
1914,1.913999,2013,3628009,1939.3400000000001,-1337.31,2268.1499999999996
1915,1.914999,2014,3629009,5936.34,-3677.31,6834.15
1916,1.916000,2015,3630010,3474.34,-3336.31,4298.15
1917,1.917000,2016,3631010,-1813.6599999999999,-3158.31,5276.15
1918,1.918000,2017,3632010,-13681.66,-1471.31,6093.15
1919,1.919000,2018,3633010,-22490.66,2848.69,-3555.8500000000004
1920,1.920000,2019,3634010,-23606.66,6006.69,-9294.85
1921,1.920999,2020,3635009,-16746.66,5898.69,-7112.85
1922,1.922000,2021,3636010,-1332.6599999999999,2669.69,1067.1499999999996
1923,1.923000,2022,3637010,16522.34,-315.31,10669.15
1924,1.924000,2023,3638010,31012.34,-2324.31,11994.15
1925,1.925000,2024,3639010,33788.34,-3320.31,5428.15
1926,1.926000,2025,3640010,22870.34,-461.31,-3152.8500000000004
1927,1.927000,2026,3641010,8539.34,2013.69,-8992.85
1928,1.928000,2027,3642010,-9556.66,2847.69,-12706.85
1929,1.929000,2028,3643010,-20824.66,1779.69,-12524.85
1930,1.930000,2029,3644010,-20910.66,336.69,-9241.85
1931,1.930999,2030,3645009,-15836.66,1046.69,-6332.85
1932,1.932000,2031,3646010,-3697.66,810.69,-6652.85
1933,1.932999,2032,3647009,13465.34,-292.31,-6314.85
1934,1.934000,2033,3648010,24876.34,177.69,-2341.8500000000004
1935,1.934999,2034,3649009,22065.34,155.69,3678.1499999999996
1936,1.936000,2035,3650010,12453.34,-2001.31,8833.15
1937,1.937000,2036,3651010,161.34000000000003,-3274.31,10509.15
1938,1.938000,2037,3652010,-8108.66,-2067.31,9501.15
1939,1.939000,2038,3653010,-7589.66,-19.310000000000002,3353.1499999999996
1940,1.940000,2039,3654010,-4768.66,-278.31,995.1499999999996
1941,1.941000,2040,3655010,2558.34,-2436.31,6061.15
1942,1.942000,2041,3656010,8348.34,-4278.31,5417.15
1943,1.943000,2042,3657010,4150.34,-3397.31,2388.1499999999996
1944,1.944000,2043,3658010,-7518.66,-1692.31,5191.15
1945,1.945000,2044,3659010,-20368.66,-244.31,3877.1499999999996
1946,1.946000,2045,3660010,-22847.66,3344.69,-4902.85
1947,1.947000,2046,3661010,-20991.66,6209.69,-9310.85
1948,1.948000,2047,3662010,-13952.66,5973.69,-5867.85
1949,1.949000,2048,3663010,5183.34,2438.69,4592.15
1950,1.950000,2049,3664010,23822.34,-2127.31,13273.15
1951,1.951000,2050,3665010,32921.34,-3770.31,10473.15
1952,1.951999,2051,3666009,30409.34,-2011.31,1159.1499999999996
1953,1.952999,2052,3667009,17778.34,1.6899999999999977,-3962.8500000000004
1954,1.954000,2053,3668010,5388.34,1924.69,-8469.85
1955,1.955000,2054,3669010,-11436.66,3494.69,-14770.85
1956,1.956000,2055,3670010,-24220.66,1984.69,-14041.85
1957,1.957000,2056,3671010,-23181.66,736.69,-8713.85
1958,1.957999,2057,3672009,-12700.66,611.69,-5180.85
1959,1.959000,2058,3673010,3265.34,-40.31,-5691.85
1960,1.960000,2059,3674010,19423.34,-162.31,-5873.85
1961,1.960999,2060,3675009,24792.34,258.69,-1084.8500000000004
1962,1.962000,2061,3676010,20062.34,-814.31,5924.15
1963,1.962999,2062,3677009,8241.34,-2673.31,10753.15
1964,1.964000,2063,3678010,-3904.66,-2953.31,11347.15
1965,1.965000,2064,3679010,-8529.66,-976.31,7675.15
1966,1.966000,2065,3680010,-7968.66,189.69,2014.1499999999996
1967,1.966999,2066,3681009,-351.65999999999997,-873.31,702.1499999999996
1968,1.968000,2067,3682010,5469.34,-3369.31,5872.15
1969,1.969000,2068,3683010,5754.34,-4370.31,5814.15
1970,1.970000,2069,3684010,-999.66,-2754.31,3917.1499999999996
1971,1.971000,2070,3685010,-10772.66,-1684.31,5982.15
1972,1.972000,2071,3686010,-20099.66,1480.69,-867.8500000000004
1973,1.973000,2072,3687010,-24818.66,5694.69,-8741.85
1974,1.974000,2073,3688010,-19909.66,6411.69,-8617.85
1975,1.975000,2074,3689010,-9034.66,3881.69,-2154.8500000000004
1976,1.976000,2075,3690010,12898.34,-148.31,9149.15
1977,1.977000,2076,3691010,29658.34,-3041.31,13715.15
1978,1.978000,2077,3692010,33342.34,-2957.31,6357.15
1979,1.979000,2078,3693010,28137.34,-739.31,-1607.8500000000004
1980,1.979999,2079,3694009,13348.34,814.69,-4996.85
1981,1.981000,2080,3695010,-3563.66,2084.69,-10155.85
1982,1.982000,2081,3696010,-17187.66,3255.69,-14015.85
1983,1.983000,2082,3697010,-23051.66,1578.69,-12075.85
1984,1.984000,2083,3698010,-20581.66,848.69,-8305.85
1985,1.985000,2084,3699010,-7689.66,922.69,-5984.85
1986,1.986000,2085,3700010,10310.34,-524.31,-5278.85
1987,1.987000,2086,3701010,22637.34,-299.31,-3785.8500000000004
1988,1.988000,2087,3702010,23391.34,307.69,1890.1499999999996
1989,1.989000,2088,3703010,17241.34,-1603.31,7376.15
1990,1.990000,2089,3704010,2444.34,-2918.31,10201.15
1991,1.991000,2090,3705010,-7297.66,-2427.31,11064.15
1992,1.992000,2091,3706010,-8271.66,-1274.31,7872.15
1993,1.993000,2092,3707010,-5917.66,529.69,-626.8500000000004
1994,1.994000,2093,3708010,2405.34,-882.31,803.1499999999996
1995,1.995000,2094,3709010,7554.34,-3696.31,6544.15
1996,1.996000,2095,3710010,4723.34,-3531.31,3862.1499999999996
1997,1.997000,2096,3711010,-4379.66,-3023.31,4971.15
1998,1.998000,2097,3712010,-15269.66,-1712.31,6000.15
1999,1.999000,2098,3713010,-22744.66,2522.69,-2897.8500000000004
2000,2.000000,2099,3714010,-24202.66,6925.69,-11503.85
2001,2.000999,2100,3715009,-16053.66,5981.69,-6818.85
2002,2.001999,2101,3716009,-624.66,2253.69,3039.1499999999996
2003,2.003000,2102,3717010,17017.34,-762.31,10944.15
2004,2.004000,2103,3718010,32505.34,-2771.31,10918.15
2005,2.004999,2104,3719009,33137.34,-2231.31,2914.1499999999996
2006,2.005999,2105,3720009,22527.34,-892.31,-791.8500000000004
2007,2.007000,2106,3721010,9690.34,534.69,-3988.8500000000004
2008,2.008000,2107,3722010,-9009.66,2492.69,-12896.85
2009,2.009000,2108,3723010,-20807.66,3145.69,-16058.85
2010,2.009999,2109,3724009,-23393.66,1798.69,-11932.85
2011,2.011000,2110,3725010,-16162.66,1447.69,-7201.85
2012,2.012000,2111,3726010,-3954.66,1014.69,-5159.85
2013,2.012999,2112,3727009,13594.34,-1513.31,-4450.85
2014,2.014000,2113,3728010,25325.34,-705.31,-2003.8500000000004
2015,2.015000,2114,3729010,22037.34,534.69,1999.1499999999996
2016,2.015999,2115,3730009,13594.34,-1933.31,8126.15
2017,2.017000,2116,3731010,186.34000000000003,-3146.31,12656.15
2018,2.017999,2117,3732009,-8639.66,-2720.31,11656.15
2019,2.019000,2118,3733010,-7919.66,-820.31,3318.1499999999996
2020,2.020000,2119,3734010,-2067.66,190.69,-1487.8500000000004
2021,2.020999,2120,3735009,3090.34,-2378.31,5749.15
2022,2.022000,2121,3736010,5899.34,-3978.31,6694.15
2023,2.022999,2122,3737009,2048.34,-2882.31,2750.1499999999996
2024,2.023999,2123,3738009,-5936.66,-2351.31,6073.15
2025,2.025000,2124,3739010,-19267.66,550.69,1453.1499999999996
2026,2.026000,2125,3740010,-26103.66,4994.69,-7419.85
2027,2.027000,2126,3741010,-21104.66,5877.69,-8447.85
2028,2.028000,2127,3742010,-12653.66,4702.69,-3951.8500000000004
2029,2.029000,2128,3743010,6237.34,1508.69,5683.15
2030,2.030000,2129,3744010,25142.34,-1639.31,11703.15
2031,2.031000,2130,3745010,32737.34,-2685.31,6978.15
2032,2.032000,2131,3746010,29271.34,-2691.31,2765.1499999999996
2033,2.032999,2132,3747009,20034.34,-961.31,-134.85000000000036
2034,2.033999,2133,3748009,3245.34,1828.69,-8657.85
2035,2.035000,2134,3749010,-13347.66,3535.69,-15510.85
2036,2.036000,2135,3750010,-22688.66,2563.69,-15518.85
2037,2.037000,2136,3751010,-23048.66,1494.69,-10004.85
2038,2.038000,2137,3752010,-11677.66,1199.69,-5066.85
2039,2.039000,2138,3753010,3372.34,-340.31,-4742.85
2040,2.040000,2139,3754010,20016.34,-688.31,-4217.85
2041,2.041000,2140,3755010,23374.34,323.69,-499.85000000000036
2042,2.042000,2141,3756010,19659.34,-444.31,4244.15
2043,2.043000,2142,3757010,7917.34,-2817.31,10349.15
2044,2.044000,2143,3758010,-5304.66,-3086.31,12455.15
2045,2.044999,2144,3759009,-7898.66,-1853.31,9203.15
2046,2.046000,2145,3760010,-5631.66,-545.31,2059.1499999999996
2047,2.047000,2146,3761010,-593.66,-41.31,-1280.8500000000004
2048,2.047999,2147,3762009,5643.34,-3326.31,6324.15
2049,2.048999,2148,3763009,6703.34,-4251.31,6652.15
2050,2.049999,2149,3764009,-1261.6599999999999,-2432.31,2960.1499999999996
2051,2.051000,2150,3765010,-10566.66,-1671.31,5424.15
2052,2.051999,2151,3766009,-22316.66,1645.69,-1269.8500000000004
2053,2.053000,2152,3767010,-27049.66,5446.69,-8451.85
2054,2.054000,2153,3768010,-19905.66,5997.69,-7113.85
2055,2.054999,2154,3769009,-4775.66,3796.69,-1402.8500000000004
2056,2.055999,2155,3770009,13144.34,906.69,7792.15
2057,2.056999,2156,3771009,28021.34,-2054.31,11391.15
2058,2.057999,2157,3772009,33788.34,-3151.31,5530.15
2059,2.058999,2158,3773009,26647.34,-1797.31,481.14999999999964
2060,2.060000,2159,3774010,14229.34,-236.31,-1834.8500000000004
2061,2.061000,2160,3775010,-2662.66,1992.69,-8983.85
2062,2.062000,2161,3776010,-16165.66,3465.69,-15784.85
2063,2.063000,2162,3777010,-25035.66,2488.69,-15080.85
2064,2.064000,2163,3778010,-21054.66,1310.69,-9369.85
2065,2.065000,2164,3779010,-7400.66,786.69,-5369.85
2066,2.066000,2165,3780010,8362.34,-953.31,-3668.8500000000004
2067,2.067000,2166,3781010,23820.34,-595.31,-2569.8500000000004
2068,2.068000,2167,3782010,23560.34,895.69,-513.8500000000004
2069,2.068999,2168,3783009,17915.34,-1198.31,5216.15
2070,2.070000,2169,3784010,3129.34,-3489.31,11770.15
2071,2.071000,2170,3785010,-8045.66,-2894.31,12767.15
2072,2.072000,2171,3786010,-9291.66,-1246.31,8084.15
2073,2.073000,2172,3787010,-3187.66,343.69,303.14999999999964
2074,2.074000,2173,3788010,3383.34,-748.31,396.14999999999964
2075,2.074999,2174,3789009,6303.34,-4471.31,8601.15
2076,2.076000,2175,3790010,4831.34,-3949.31,5469.15
2077,2.076999,2176,3791009,-6026.66,-2092.31,2515.1499999999996
2078,2.078000,2177,3792010,-15134.66,-507.31,3763.1499999999996
2079,2.079000,2178,3793010,-24394.66,3475.69,-5293.85
2080,2.080000,2179,3794010,-24148.66,5961.69,-9255.85
2081,2.080999,2180,3795009,-16217.66,4877.69,-5122.85
2082,2.082000,2181,3796010,-531.66,2292.69,2350.1499999999996
2083,2.083000,2182,3797010,20092.34,-345.31,10301.15
2084,2.084000,2183,3798010,32866.34,-2223.31,9057.15
2085,2.085000,2184,3799010,32763.34,-2859.31,4133.15
2086,2.086000,2185,3800010,22616.34,-1687.31,1684.1499999999996
2087,2.087000,2186,3801010,7932.34,840.69,-4746.85
2088,2.088000,2187,3802010,-9191.66,2878.69,-14297.85
