row,seconds,esp32_index,micros,ax,ay,az
0,0.000000,405,2019994,2647.53,884.89,-929.54
1,0.000999,406,2020993,-8019.47,893.89,1549.46
2,0.002000,407,2021994,-8049.47,31.89,3556.46
3,0.003000,408,2022994,-2062.47,-434.11,3333.46
4,0.004000,409,2023994,4014.53,-956.11,4130.46
5,0.004999,410,2024993,4547.53,-922.11,3475.46
6,0.006000,411,2025994,-2933.47,-169.11,938.46
7,0.007000,412,2026994,-10545.47,-378.11,1497.46
8,0.008000,413,2027994,-22540.47,-1450.11,3086.46
9,0.008999,414,2028993,-25466.47,-734.11,2233.46
10,0.010000,415,2029994,-20451.47,462.89,1023.46
11,0.011000,416,2030994,-8509.47,289.89,2728.46
12,0.012000,417,2031994,3656.53,233.89,4092.46
13,0.013000,418,2032994,9206.53,-206.11,2804.46
14,0.014000,419,2033994,9041.53,300.89,626.46
15,0.015000,420,2034994,3375.53,1195.89,-2189.54
16,0.015999,421,2035993,4710.53,1325.89,-3684.54
17,0.016999,422,2036993,7403.53,825.89,-3996.54
18,0.018000,423,2037994,7505.53,-348.11,-3442.54
19,0.019000,424,2038994,2787.53,-744.11,-3383.54
20,0.020000,425,2039994,-1976.47,-3.1099999999999994,-4011.54
21,0.021000,426,2040994,2291.53,536.89,-5163.54
22,0.022000,427,2041994,10672.53,157.89,-5955.54
23,0.023000,428,2042994,18036.53,-421.11,-2272.54
24,0.024000,429,2043994,17371.53,-122.11,403.46000000000004
25,0.025000,430,2044994,4884.53,645.89,-711.54
26,0.026000,431,2045994,-6576.47,888.89,793.46
27,0.027000,432,2046994,-8834.47,318.89,3172.46
28,0.028000,433,2047994,-3492.47,-322.11,3363.46
29,0.028999,434,2048993,3212.53,-869.11,3901.46
30,0.029999,435,2049993,5342.53,-962.11,3829.46
31,0.031000,436,2050994,-1226.47,-288.11,1492.46
32,0.032000,437,2051994,-8673.47,-320.11,1270.46
33,0.033000,438,2052994,-20052.47,-1367.11,3006.46
34,0.034000,439,2053994,-26027.47,-956.11,2496.46
35,0.035000,440,2054994,-22503.47,409.89,1013.46
36,0.036000,441,2055994,-11535.47,373.89,2213.46
37,0.037000,442,2056994,2235.53,237.89,3826.46
38,0.038000,443,2057994,9278.53,-289.11,3113.46
39,0.038999,444,2058993,9599.53,143.89,1080.46
40,0.040000,445,2059994,4038.53,1137.89,-1652.54
41,0.041000,446,2060994,3963.53,1210.89,-3257.54
42,0.042000,447,2061994,6671.53,1076.89,-4049.54
43,0.043000,448,2062994,7673.53,-76.11,-3584.54
44,0.044000,449,2063994,3891.53,-849.11,-3245.54
45,0.045000,450,2064994,-1912.47,-104.11,-4021.54
46,0.046000,451,2065994,1769.53,377.89,-4754.54
47,0.047000,452,2066994,9252.53,124.89,-6068.54
48,0.048000,453,2067994,16894.53,-275.11,-3393.54
49,0.049000,454,2068994,18088.53,-209.11,94.46000000000004
50,0.049999,455,2069993,7105.53,468.89,-608.54
51,0.050999,456,2070993,-4787.47,904.89,281.46000000000004
52,0.052000,457,2071994,-8670.47,462.89,3030.46
53,0.053000,458,2072994,-4395.47,-221.11,3586.46
54,0.054000,459,2073994,1862.53,-787.11,3787.46
55,0.055000,460,2074994,5270.53,-1062.11,4159.46
56,0.055999,461,2075993,11.530000000000001,-354.11,1858.46
57,0.056999,462,2076993,-6406.47,-247.11,921.46
58,0.058000,463,2077994,-18847.47,-1056.11,2706.46
59,0.059000,464,2078994,-25784.47,-1153.11,2851.46
60,0.059999,465,2079993,-22988.47,133.89,1357.46
61,0.061000,466,2080994,-14717.47,600.89,1532.46
62,0.062000,467,2081994,601.53,163.89,3723.46
63,0.063000,468,2082994,8456.53,-365.11,3594.46
64,0.064000,469,2083994,9860.53,191.89,1405.46
65,0.065000,470,2084994,4918.53,1046.89,-1257.54
66,0.066000,471,2085994,3740.53,1137.89,-3291.54
67,0.067000,472,2086994,6563.53,1248.89,-3912.54
68,0.068000,473,2087994,7582.53,82.89,-3705.54
69,0.068999,474,2088993,5234.53,-791.11,-3382.54
70,0.070000,475,2089994,-2076.47,-238.11,-3786.54
71,0.070999,476,2090993,1081.53,182.89,-4297.54
72,0.072000,477,2091994,8308.53,452.89,-6149.54
73,0.073000,478,2092994,15326.53,-76.11,-4227.54
74,0.074000,479,2093994,19054.53,-401.11,32.460000000000036
75,0.075000,480,2094994,9157.53,360.89,-382.53999999999996
76,0.076000,481,2095994,-2899.47,839.89,-109.53999999999996
77,0.077000,482,2096994,-9034.47,624.89,2643.46
78,0.078000,483,2097994,-6007.47,-79.11,3554.46
79,0.079000,484,2098994,650.53,-723.11,3628.46
80,0.079999,485,2099993,5604.53,-1112.11,4183.46
81,0.081000,486,2100994,2123.53,-565.11,2429.46
82,0.082000,487,2101994,-4594.47,-196.11,899.46
83,0.083000,488,2102994,-16812.47,-744.11,2382.46
84,0.084000,489,2103994,-26835.47,-1302.11,2817.46
85,0.085000,490,2104994,-23574.47,-143.11,1459.46
86,0.086000,491,2105994,-16027.47,544.89,1433.46
87,0.087000,492,2106994,-1803.47,214.89,3546.46
88,0.088000,493,2107994,8092.53,-132.11,3787.46
89,0.089000,494,2108994,9566.53,41.89,1852.46
90,0.090000,495,2109994,5519.53,810.89,-685.54
91,0.091000,496,2110994,3735.53,1107.89,-2920.54
92,0.092000,497,2111994,5537.53,1357.89,-3866.54
93,0.093000,498,2112994,7620.53,382.89,-3779.54
94,0.094000,499,2113994,6411.53,-783.11,-3152.54
95,0.095000,500,2114994,-1492.47,-534.11,-3581.54
96,0.096000,501,2115994,193.53,126.89,-4202.54
97,0.097000,502,2116994,6945.53,462.89,-6031.54
98,0.098000,503,2117994,13693.53,-29.11,-4954.54
99,0.099000,504,2118994,18951.53,-379.11,-544.54
100,0.100000,505,2119994,12122.53,184.89,-120.53999999999996
101,0.100999,506,2120993,-759.47,895.89,-619.54
102,0.102000,507,2121994,-8542.47,753.89,2153.46
103,0.103000,508,2122994,-6754.47,-120.11,3656.46
104,0.104000,509,2123994,-567.47,-603.11,3391.46
105,0.104999,510,2124993,5089.53,-1025.11,4231.46
106,0.106000,511,2125994,3132.53,-681.11,2999.46
107,0.107000,512,2126994,-3799.47,5.890000000000001,749.46
108,0.108000,513,2127994,-14012.47,-573.11,1943.46
109,0.109000,514,2128994,-25558.47,-1438.11,3080.46
110,0.110000,515,2129994,-24008.47,-451.11,1898.46
111,0.111000,516,2130994,-17404.47,446.89,1366.46
112,0.112000,517,2131994,-4774.47,286.89,3280.46
113,0.113000,518,2132994,5844.53,88.89,3705.46
114,0.113999,519,2133993,9153.53,-63.11,2110.46
115,0.115000,520,2134994,6927.53,526.89,-138.53999999999996
116,0.116000,521,2135994,3819.53,1093.89,-2675.54
117,0.117000,522,2136994,5283.53,1342.89,-3714.54
118,0.118000,523,2137994,7208.53,640.89,-3897.54
119,0.119000,524,2138994,7245.53,-675.11,-3263.54
120,0.119999,525,2139993,76.53,-712.11,-3575.54
121,0.121000,526,2140994,-1033.47,159.89,-4210.54
122,0.122000,527,2141994,5133.53,452.89,-5543.54
123,0.122999,528,2142993,12664.53,-20.11,-5343.54
124,0.124000,529,2143994,18860.53,-285.11,-1277.54
125,0.124999,530,2144993,14335.53,46.89,36.460000000000036
126,0.126000,531,2145994,1666.53,721.89,-696.54
127,0.126999,532,2146993,-8130.47,834.89,1601.46
128,0.128000,533,2147994,-8015.47,91.89,3476.46
129,0.129000,534,2148994,-1512.47,-446.11,3464.46
130,0.130000,535,2149994,4305.53,-953.11,4131.46
131,0.131000,536,2150994,4382.53,-835.11,3368.46
132,0.132000,537,2151994,-2579.47,-154.11,993.46
133,0.133000,538,2152994,-11367.47,-482.11,1543.46
134,0.134000,539,2153994,-23647.47,-1440.11,3091.46
135,0.135000,540,2154994,-25373.47,-641.11,2128.46
136,0.135999,541,2155993,-19919.47,424.89,934.46
137,0.137000,542,2156994,-7398.47,318.89,2713.46
138,0.138000,543,2157994,4635.53,113.89,3855.46
139,0.139000,544,2158994,9068.53,-200.11,2496.46
140,0.139999,545,2159993,8990.53,408.89,544.46
141,0.141000,546,2160994,3149.53,1076.89,-2238.54
142,0.142000,547,2161994,4520.53,1413.89,-3763.54
143,0.142999,548,2162993,7552.53,851.89,-3842.54
144,0.144000,549,2163994,6977.53,-499.11,-3346.54
145,0.145000,550,2164994,2469.53,-675.11,-3323.54
146,0.146000,551,2165994,-1700.47,17.89,-4006.54
147,0.146999,552,2166993,3023.53,470.89,-5352.54
148,0.148000,553,2167994,11243.53,187.89,-5730.54
149,0.149000,554,2168994,17958.53,-443.11,-1963.54
150,0.149999,555,2169993,16493.53,10.89,84.46000000000004
151,0.151000,556,2170994,4117.53,689.89,-834.54
152,0.152000,557,2171994,-7000.47,794.89,1194.46
153,0.153000,558,2172994,-8352.47,285.89,3285.46
154,0.154000,559,2173994,-3067.47,-378.11,3282.46
155,0.155000,560,2174994,3377.53,-971.11,3963.46
156,0.156000,561,2175994,5027.53,-950.11,3601.46
157,0.156999,562,2176993,-1931.47,-202.11,1180.46
158,0.158000,563,2177994,-8879.47,-384.11,1387.46
159,0.159000,564,2178994,-20754.47,-1372.11,3015.46
160,0.160000,565,2179994,-25559.47,-853.11,2501.46
161,0.161000,566,2180994,-21865.47,417.89,1124.46
162,0.161999,567,2181993,-10618.47,361.89,2288.46
163,0.162999,568,2182993,2816.53,151.89,4011.46
164,0.164000,569,2183994,9000.53,-285.11,3006.46
165,0.165000,570,2184994,9423.53,238.89,843.46
166,0.166000,571,2185994,3556.53,1175.89,-1940.54
167,0.167000,572,2186994,4251.53,1276.89,-3507.54
168,0.167999,573,2187993,7032.53,938.89,-3853.54
169,0.169000,574,2188994,7613.53,-206.11,-3426.54
170,0.170000,575,2189994,3736.53,-715.11,-3264.54
171,0.171000,576,2190994,-2132.47,-52.11,-3923.54
172,0.171999,577,2191993,1793.53,425.89,-4827.54
173,0.173000,578,2192994,9557.53,243.89,-6052.54
174,0.174000,579,2193994,17244.53,-386.11,-2989.54
175,0.175000,580,2194994,17963.53,-198.11,209.46000000000004
176,0.176000,581,2195994,6432.53,541.89,-649.54
177,0.177000,582,2196994,-5231.47,830.89,527.46
178,0.178000,583,2197994,-8949.47,428.89,3034.46
179,0.179000,584,2198994,-4176.47,-199.11,3479.46
180,0.180000,585,2199994,2211.53,-779.11,3756.46
181,0.181000,586,2200994,5349.53,-1051.11,3962.46
182,0.181999,587,2201993,100.53,-424.11,1837.46
183,0.183000,588,2202994,-6962.47,-308.11,1062.46
184,0.184000,589,2203994,-18955.47,-1144.11,2734.46
185,0.185000,590,2204994,-25880.47,-1081.11,2762.46
186,0.185999,591,2205993,-23703.47,321.89,1100.46
187,0.187000,592,2206994,-13761.47,507.89,1726.46
188,0.188000,593,2207994,1408.53,88.89,3847.46
189,0.188999,594,2208993,8859.53,-302.11,3410.46
190,0.190000,595,2209994,9971.53,161.89,1404.46
191,0.190999,596,2210993,4318.53,1061.89,-1384.54
192,0.192000,597,2211994,3726.53,1239.89,-3302.54
193,0.193000,598,2212994,6457.53,1186.89,-3950.54
194,0.193999,599,2213993,7664.53,38.89,-3627.54
195,0.195000,600,2214994,5009.53,-752.11,-3245.54
196,0.196000,601,2215994,-1962.47,-224.11,-3791.54
197,0.197000,602,2216994,1192.53,243.89,-4454.54
198,0.197999,603,2217993,8430.53,416.89,-6198.54
199,0.199000,604,2218994,15674.53,-203.11,-3979.54
200,0.200000,605,2219994,18912.53,-418.11,62.460000000000036
201,0.201000,606,2220994,8711.53,439.89,-413.53999999999996
202,0.202000,607,2221994,-3411.47,925.89,-45.539999999999964
203,0.203000,608,2222994,-8596.47,523.89,2760.46
204,0.204000,609,2223994,-5730.47,-160.11,3567.46
205,0.205000,610,2224994,818.53,-714.11,3607.46
206,0.206000,611,2225994,5320.53,-1116.11,4081.46
207,0.207000,612,2226994,1470.53,-539.11,2229.46
208,0.208000,613,2227994,-5020.47,-225.11,859.46
209,0.209000,614,2228994,-17408.47,-780.11,2341.46
210,0.209999,615,2229993,-26483.47,-1260.11,2834.46
211,0.211000,616,2230994,-23052.47,-122.11,1568.46
212,0.212000,617,2231994,-15444.47,574.89,1665.46
213,0.213000,618,2232994,-1236.47,252.89,3633.46
214,0.214000,619,2233994,8253.53,-188.11,3624.46
215,0.214999,620,2234993,9260.53,93.89,1603.46
216,0.216000,621,2235994,5524.53,885.89,-882.54
217,0.216999,622,2236993,3672.53,1094.89,-3024.54
218,0.218000,623,2237994,5828.53,1342.89,-3981.54
219,0.219000,624,2238994,7681.53,319.89,-3829.54
220,0.220000,625,2239994,5866.53,-866.11,-3216.54
221,0.221000,626,2240994,-1419.47,-461.11,-3637.54
222,0.222000,627,2241994,207.53,227.89,-4223.54
223,0.223000,628,2242994,7290.53,475.89,-5950.54
224,0.223999,629,2243993,14257.53,-69.11,-4613.54
225,0.225000,630,2244994,19017.53,-411.11,-374.53999999999996
226,0.226000,631,2245994,11364.53,280.89,-277.53999999999996
227,0.227000,632,2246994,-1608.47,826.89,-568.54
228,0.228000,633,2247994,-8679.47,688.89,2268.46
229,0.228999,634,2248993,-6735.47,5.890000000000001,3565.46
230,0.229999,635,2249993,-270.47,-630.11,3458.46
231,0.231000,636,2250994,5268.53,-1091.11,4256.46
232,0.232000,637,2251994,3075.53,-620.11,2828.46
233,0.232999,638,2252993,-3255.47,-68.11,817.46
234,0.234000,639,2253994,-14907.47,-625.11,1999.46
235,0.235000,640,2254994,-26314.47,-1403.11,2954.46
236,0.236000,641,2255994,-23990.47,-334.11,1627.46
237,0.237000,642,2256994,-17215.47,517.89,1257.46
238,0.238000,643,2257994,-3979.47,223.89,3357.46
239,0.239000,644,2258994,7080.53,-24.11,3688.46
240,0.240000,645,2259994,9319.53,-49.11,2088.46
241,0.241000,646,2260994,6280.53,630.89,-191.53999999999996
242,0.242000,647,2261994,3573.53,1107.89,-2710.54
243,0.242999,648,2262993,5193.53,1395.89,-3758.54
244,0.244000,649,2263994,7393.53,566.89,-3904.54
245,0.245000,650,2264994,6925.53,-753.11,-3208.54
246,0.246000,651,2265994,-264.47,-655.11,-3369.54
247,0.246999,652,2266993,-844.47,125.89,-4140.54
248,0.248000,653,2267994,5339.53,482.89,-5883.54
249,0.248999,654,2268993,12900.53,86.89,-5359.54
250,0.250000,655,2269994,18997.53,-307.11,-1083.54
251,0.250999,656,2270993,14156.53,88.89,-43.539999999999964
252,0.252000,657,2271994,1327.53,768.89,-670.54
253,0.252999,658,2272993,-8143.47,805.89,1714.46
254,0.254000,659,2273994,-7548.47,60.89,3633.46
255,0.255000,660,2274994,-1880.47,-464.11,3499.46
256,0.256000,661,2275994,4500.53,-926.11,4127.46
257,0.257000,662,2276994,4025.53,-825.11,3209.46
258,0.258000,663,2277994,-3047.47,-111.11,787.46
259,0.259000,664,2278994,-11384.47,-444.11,1775.46
260,0.260000,665,2279994,-24191.47,-1477.11,3234.46
261,0.261000,666,2280994,-24932.47,-618.11,2053.46
262,0.262000,667,2281994,-19186.47,451.89,1031.46
263,0.263000,668,2282994,-7313.47,283.89,2894.46
264,0.264000,669,2283994,4700.53,213.89,3827.46
265,0.265000,670,2284994,9265.53,-230.11,2472.46
266,0.266000,671,2285994,8335.53,375.89,225.46000000000004
267,0.267000,672,2286994,3458.53,1226.89,-2476.54
268,0.268000,673,2287994,4965.53,1274.89,-3632.54
269,0.268999,674,2288993,7367.53,732.89,-3930.54
270,0.270000,675,2289994,7132.53,-436.11,-3378.54
271,0.271000,676,2290994,1749.53,-764.11,-3322.54
272,0.272000,677,2291994,-1514.47,81.89,-3885.54
273,0.273000,678,2292994,3338.53,507.89,-5368.54
274,0.274000,679,2293994,11534.53,113.89,-5919.54
275,0.274999,680,2294993,18406.53,-427.11,-1754.54
276,0.276000,681,2295994,16028.53,-123.11,271.46000000000004
277,0.276999,682,2296993,3507.53,758.89,-799.54
278,0.278000,683,2297994,-7802.47,877.89,1120.46
279,0.279000,684,2298994,-8324.47,191.89,3364.46
280,0.280000,685,2299994,-2301.47,-359.11,3455.46
281,0.280999,686,2300993,3486.53,-913.11,3873.46
282,0.282000,687,2301994,5005.53,-963.11,3619.46
283,0.283000,688,2302994,-1924.47,-265.11,1247.46
284,0.284000,689,2303994,-9655.47,-383.11,1412.46
285,0.285000,690,2304994,-21284.47,-1360.11,2992.46
286,0.286000,691,2305994,-25478.47,-820.11,2259.46
287,0.287000,692,2306994,-21377.47,479.89,949.46
288,0.288000,693,2307994,-9577.47,325.89,2582.46
289,0.289000,694,2308994,3486.53,157.89,3993.46
290,0.290000,695,2309994,9008.53,-227.11,2811.46
291,0.291000,696,2310994,9065.53,260.89,797.46
292,0.291999,697,2311993,3122.53,1100.89,-2023.54
293,0.293000,698,2312994,4127.53,1335.89,-3576.54
294,0.293999,699,2313993,7399.53,962.89,-3952.54
295,0.295000,700,2314994,7814.53,-271.11,-3478.54
296,0.296000,701,2315994,3613.53,-745.11,-3243.54
297,0.297000,702,2316994,-2292.47,-49.11,-3877.54
298,0.298000,703,2317994,1321.53,423.89,-4770.54
299,0.298999,704,2318993,9220.53,173.89,-5872.54
300,0.299999,705,2319993,17032.53,-340.11,-3015.54
301,0.301000,706,2320994,17997.53,-158.11,154.46000000000004
302,0.302000,707,2321994,6451.53,556.89,-509.53999999999996
303,0.303000,708,2322994,-5033.47,848.89,571.46
304,0.304000,709,2323994,-8723.47,471.89,3018.46
305,0.305000,710,2324994,-4679.47,-231.11,3499.46
306,0.305999,711,2325993,2034.53,-868.11,3860.46
307,0.307000,712,2326994,5138.53,-1064.11,3935.46
308,0.307999,713,2327993,77.53,-389.11,1642.46
309,0.309000,714,2328994,-6378.47,-282.11,946.46
310,0.310000,715,2329994,-18567.47,-1019.11,2642.46
311,0.311000,716,2330994,-25085.47,-1151.11,2905.46
312,0.312000,717,2331994,-22296.47,123.89,1391.46
313,0.313000,718,2332994,-13967.47,570.89,1547.46
314,0.313999,719,2333993,833.53,102.89,3652.46
315,0.315000,720,2334994,8332.53,-387.11,3318.46
316,0.316000,721,2335994,9542.53,186.89,1110.46
317,0.316999,722,2336993,4305.53,1083.89,-1567.54
318,0.318000,723,2337994,3459.53,1139.89,-3307.54
319,0.319000,724,2338994,6648.53,1152.89,-3603.54
320,0.320000,725,2339994,7248.53,57.89,-3491.54
321,0.321000,726,2340994,5063.53,-767.11,-3190.54
322,0.321999,727,2341993,-1960.47,-172.11,-3605.54
323,0.323000,728,2342994,1105.53,251.89,-4129.54
324,0.324000,729,2343994,8154.53,445.89,-5954.54
325,0.324999,730,2344993,15142.53,-144.11,-4192.54
326,0.326000,731,2345994,18602.53,-314.11,-155.53999999999996
327,0.327000,732,2346994,9195.53,380.89,-280.53999999999996
328,0.327999,733,2347993,-2841.47,751.89,47.460000000000036
329,0.329000,734,2348994,-8590.47,656.89,2571.46
330,0.330000,735,2349994,-5889.47,-87.11,3564.46
331,0.331000,736,2350994,521.53,-718.11,3577.46
332,0.331999,737,2351993,5477.53,-1111.11,4125.46
333,0.333000,738,2352994,1864.53,-556.11,2251.46
334,0.333999,739,2353993,-3832.47,-211.11,770.46
335,0.334999,740,2354993,-16520.47,-777.11,2292.46
336,0.336000,741,2355994,-26392.47,-1295.11,2774.46
337,0.337000,742,2356994,-23218.47,-145.11,1357.46
338,0.338000,743,2357994,-16189.47,473.89,1297.46
339,0.339000,744,2358994,-2020.47,188.89,3514.46
340,0.339999,745,2359993,7923.53,-137.11,3665.46
341,0.341000,746,2360994,9339.53,42.89,1750.46
342,0.342000,747,2361994,5530.53,900.89,-668.54
343,0.343000,748,2362994,3616.53,1142.89,-2833.54
344,0.343999,749,2363993,5455.53,1313.89,-3667.54
345,0.345000,750,2364994,7249.53,426.89,-3615.54
346,0.346000,751,2365994,6008.53,-715.11,-3124.54
347,0.347000,752,2366994,-1258.47,-504.11,-3436.54
348,0.348000,753,2367994,249.53,208.89,-4092.54
349,0.349000,754,2368994,7092.53,501.89,-6039.54
350,0.350000,755,2369994,13764.53,55.89,-5016.54
351,0.351000,756,2370994,19107.53,-377.11,-580.54
352,0.352000,757,2371994,11985.53,174.89,-156.53999999999996
353,0.353000,758,2372994,-642.47,848.89,-545.54
354,0.354000,759,2373994,-8396.47,660.89,2164.46
355,0.354999,760,2374993,-6995.47,-104.11,3531.46
356,0.355999,761,2375993,-880.47,-571.11,3389.46
357,0.357000,762,2376994,4917.53,-1046.11,4084.46
358,0.358000,763,2377994,3471.53,-712.11,2714.46
359,0.358999,764,2378993,-3302.47,-19.11,628.46
360,0.360000,765,2379994,-13581.47,-607.11,2068.46
361,0.361000,766,2380994,-25301.47,-1504.11,3149.46
362,0.362000,767,2381994,-24135.47,-444.11,1807.46
363,0.363000,768,2382994,-18168.47,527.89,1192.46
364,0.363999,769,2383993,-4970.47,230.89,3255.46
365,0.364999,770,2384993,6078.53,18.89,3869.46
366,0.366000,771,2385994,9175.53,-27.11,2120.46
367,0.367000,772,2386994,7072.53,596.89,-54.539999999999964
368,0.367999,773,2387993,3503.53,1078.89,-2509.54
369,0.369000,774,2388994,5321.53,1311.89,-3641.54
370,0.370000,775,2389994,7042.53,633.89,-3846.54
371,0.371000,776,2390994,6601.53,-597.11,-3270.54
372,0.372000,777,2391994,350.53,-670.11,-3384.54
373,0.373000,778,2392994,-925.47,80.89,-4040.54
374,0.374000,779,2393994,5057.53,559.89,-5874.54
375,0.374999,780,2394993,12874.53,95.89,-5545.54
376,0.376000,781,2395994,18892.53,-456.11,-1092.54
377,0.377000,782,2396994,14622.53,65.89,59.460000000000036
378,0.378000,783,2397994,1599.53,822.89,-811.54
379,0.378999,784,2398993,-8228.47,796.89,1523.46
380,0.379999,785,2399993,-7662.47,97.89,3469.46
381,0.381000,786,2400994,-1681.47,-509.11,3438.46
382,0.382000,787,2401994,4463.53,-944.11,4117.46
383,0.383000,788,2402994,4659.53,-811.11,3350.46
384,0.384000,789,2403994,-2565.47,-157.11,923.46
385,0.385000,790,2404994,-11397.47,-480.11,1707.46
386,0.386000,791,2405994,-24101.47,-1530.11,3184.46
387,0.386999,792,2406993,-25670.47,-631.11,1952.46
388,0.388000,793,2407994,-19850.47,488.89,1045.46
389,0.388999,794,2408993,-7514.47,259.89,3001.46
390,0.390000,795,2409994,4795.53,197.89,3876.46
391,0.391000,796,2410994,9155.53,-117.11,2531.46
392,0.392000,797,2411994,8350.53,345.89,585.46
393,0.393000,798,2412994,3380.53,1132.89,-2137.54
394,0.394000,799,2413994,4765.53,1349.89,-3605.54
395,0.395000,800,2414994,7275.53,773.89,-3970.54
396,0.396000,801,2415994,7255.53,-463.11,-3472.54
397,0.397000,802,2416994,2225.53,-712.11,-3466.54
398,0.397999,803,2417993,-1616.47,61.89,-4134.54
399,0.399000,804,2418994,3273.53,494.89,-5462.54
400,0.400000,805,2419994,11337.53,105.89,-5840.54
401,0.401000,806,2420994,18651.53,-401.11,-1808.54
402,0.402000,807,2421994,16510.53,-29.11,280.46000000000004
403,0.402999,808,2422993,3929.53,738.89,-814.54
404,0.404000,809,2423994,-7133.47,902.89,1196.46
405,0.405000,810,2424994,-8557.47,188.89,3374.46
406,0.406000,811,2425994,-2523.47,-417.11,3420.46
407,0.407000,812,2426994,2996.53,-844.11,3865.46
408,0.408000,813,2427994,4852.53,-882.11,3480.46
409,0.409000,814,2428994,-1804.47,-319.11,1222.46
410,0.410000,815,2429994,-9189.47,-397.11,1523.46
411,0.411000,816,2430994,-21122.47,-1438.11,3170.46
412,0.411999,817,2431993,-25995.47,-836.11,2393.46
413,0.412999,818,2432993,-22038.47,542.89,981.46
414,0.414000,819,2433994,-10535.47,411.89,2301.46
415,0.415000,820,2434994,3224.53,191.89,4046.46
416,0.416000,821,2435994,9114.53,-281.11,3075.46
417,0.416999,822,2436993,9705.53,312.89,888.46
418,0.418000,823,2437994,3811.53,1134.89,-1849.54
419,0.419000,824,2438994,4186.53,1268.89,-3585.54
420,0.420000,825,2439994,7138.53,932.89,-4084.54
421,0.421000,826,2440994,7577.53,-299.11,-3507.54
422,0.422000,827,2441994,3316.53,-727.11,-3416.54
423,0.423000,828,2442994,-1899.47,-65.11,-3931.54
424,0.424000,829,2443994,2017.53,436.89,-5015.54
425,0.424999,830,2444993,10083.53,251.89,-6236.54
426,0.426000,831,2445994,17788.53,-480.11,-2578.54
427,0.426999,832,2446993,17702.53,-225.11,474.46000000000004
428,0.428000,833,2447994,5833.53,685.89,-822.54
429,0.429000,834,2448994,-5941.47,943.89,541.46
430,0.430000,835,2449994,-8902.47,341.89,3218.46
431,0.431000,836,2450994,-3604.47,-235.11,3450.46
432,0.432000,837,2451994,2667.53,-795.11,3886.46
433,0.433000,838,2452994,5595.53,-1098.11,3976.46
434,0.433999,839,2453993,-429.47,-362.11,1573.46
435,0.435000,840,2454994,-8096.47,-336.11,1176.46
436,0.436000,841,2455994,-19731.47,-1306.11,2959.46
437,0.437000,842,2456994,-26318.47,-975.11,2497.46
438,0.437999,843,2457993,-23215.47,357.89,1000.46
439,0.438999,844,2458993,-12696.47,466.89,2069.46
440,0.440000,845,2459994,1897.53,206.89,3963.46
441,0.440999,846,2460993,9032.53,-272.11,3409.46
442,0.442000,847,2461994,9748.53,199.89,1325.46
443,0.442999,848,2462993,4072.53,1050.89,-1361.54
444,0.444000,849,2463994,3994.53,1239.89,-3268.54
445,0.445000,850,2464994,6844.53,1104.89,-4134.54
446,0.446000,851,2465994,7617.53,-62.11,-3804.54
447,0.447000,852,2466994,4753.53,-770.11,-3388.54
448,0.447999,853,2467993,-1964.47,-217.11,-3925.54
449,0.449000,854,2468994,1112.53,303.89,-4721.54
450,0.450000,855,2469994,8966.53,334.89,-6196.54
451,0.450999,856,2470993,16485.53,-327.11,-3539.54
452,0.452000,857,2471994,18955.53,-267.11,251.46000000000004
453,0.453000,858,2472994,8147.53,545.89,-464.53999999999996
454,0.454000,859,2473994,-4246.47,939.89,53.460000000000036
455,0.455000,860,2474994,-8730.47,547.89,2918.46
456,0.455999,861,2475993,-5628.47,-191.11,3647.46
457,0.457000,862,2476994,1608.53,-793.11,3861.46
458,0.457999,863,2477993,5361.53,-1090.11,4084.46
459,0.459000,864,2478994,646.53,-457.11,1915.46
460,0.460000,865,2479994,-5510.47,-327.11,1023.46
461,0.460999,866,2480993,-18521.47,-958.11,2519.46
462,0.462000,867,2481994,-26365.47,-1216.11,2843.46
463,0.463000,868,2482994,-23891.47,42.89,1205.46
464,0.464000,869,2483994,-15164.47,624.89,1551.46
465,0.465000,870,2484994,-95.47,198.89,3935.46
466,0.466000,871,2485994,8749.53,-255.11,3601.46
467,0.467000,872,2486994,10256.53,174.89,1574.46
468,0.468000,873,2487994,5147.53,896.89,-1020.54
469,0.469000,874,2488994,4143.53,1070.89,-3057.54
470,0.469999,875,2489993,5814.53,1301.89,-4004.54
471,0.471000,876,2490994,7468.53,222.89,-4047.54
472,0.472000,877,2491994,5557.53,-808.11,-3396.54
473,0.473000,878,2492994,-2109.47,-357.11,-3649.54
474,0.474000,879,2493994,1152.53,158.89,-4354.54
475,0.475000,880,2494994,8047.53,459.89,-6352.54
476,0.475999,881,2495993,15382.53,-165.11,-4115.54
477,0.477000,882,2496994,19271.53,-427.11,190.46000000000004
478,0.478000,883,2497994,9317.53,397.89,-527.54
479,0.478999,884,2498993,-2835.47,837.89,-393.53999999999996
480,0.480000,885,2499994,-8526.47,622.89,2596.46
481,0.481000,886,2500994,-6052.47,-62.11,3587.46
482,0.482000,887,2501994,1038.53,-692.11,3595.46
483,0.483000,888,2502994,5431.53,-1149.11,4152.46
484,0.484000,889,2503994,1609.53,-500.11,2259.46
485,0.485000,890,2504994,-4153.47,-303.11,1018.46
486,0.486000,891,2505994,-17182.47,-834.11,2466.46
487,0.486999,892,2506993,-26844.47,-1191.11,2728.46
488,0.488000,893,2507994,-23598.47,-177.11,1383.46
489,0.489000,894,2508994,-16530.47,541.89,1375.46
490,0.490000,895,2509994,-1862.47,211.89,3773.46
491,0.491000,896,2510994,7769.53,-129.11,3883.46
492,0.492000,897,2511994,9755.53,118.89,1923.46
493,0.493000,898,2512994,5593.53,810.89,-510.53999999999996
494,0.494000,899,2513994,3896.53,1072.89,-2860.54
495,0.495000,900,2514994,5790.53,1406.89,-3874.54
496,0.496000,901,2515994,7374.53,356.89,-3916.54
497,0.496999,902,2516993,6686.53,-870.11,-3227.54
498,0.498000,903,2517994,-1509.47,-576.11,-3705.54
499,0.499000,904,2518994,205.53,70.89,-4329.54
500,0.500000,905,2519994,6623.53,458.89,-6239.54
501,0.501000,906,2520994,13881.53,41.89,-5106.54
502,0.502000,907,2521994,19216.53,-390.11,-527.54
503,0.503000,908,2522994,12180.53,227.89,-90.53999999999996
504,0.504000,909,2523994,-421.47,859.89,-409.53999999999996
505,0.505000,910,2524994,-8591.47,719.89,2068.46
506,0.506000,911,2525994,-6770.47,-37.11,3677.46
507,0.507000,912,2526994,-850.47,-623.11,3651.46
508,0.508000,913,2527994,4992.53,-991.11,4118.46
509,0.508999,914,2528993,3167.53,-691.11,2855.46
510,0.510000,915,2529994,-3830.47,-90.11,779.46
511,0.511000,916,2530994,-13722.47,-573.11,2142.46
512,0.512000,917,2531994,-26265.47,-1518.11,3101.46
513,0.513000,918,2532994,-24301.47,-468.11,1799.46
514,0.514000,919,2533994,-17718.47,548.89,1289.46
515,0.515000,920,2534994,-5100.47,286.89,3234.46
516,0.516000,921,2535994,6325.53,131.89,3815.46
517,0.517000,922,2536994,9164.53,-77.11,2142.46
518,0.517999,923,2537993,7312.53,562.89,-91.53999999999996
519,0.519000,924,2538994,4092.53,1048.89,-2525.54
520,0.519999,925,2539993,5330.53,1288.89,-3724.54
521,0.521000,926,2540994,7146.53,678.89,-4067.54
522,0.522000,927,2541994,7035.53,-635.11,-3392.54
523,0.523000,928,2542994,-347.47,-743.11,-3546.54
524,0.524000,929,2543994,-276.47,134.89,-4120.54
525,0.524999,930,2544993,5712.53,481.89,-5758.54
526,0.525999,931,2545993,12665.53,24.89,-5535.54
527,0.527000,932,2546994,19070.53,-334.11,-995.54
528,0.528000,933,2547994,13912.53,40.89,276.46000000000004
529,0.529000,934,2548994,1177.53,847.89,-734.54
530,0.529999,935,2549993,-8334.47,856.89,1463.46
531,0.531000,936,2550994,-7533.47,-7.109999999999999,3617.46
532,0.532000,937,2551994,-1265.47,-494.11,3737.46
533,0.532999,938,2552993,4436.53,-937.11,4086.46
534,0.533999,939,2553993,3935.53,-861.11,3126.46
535,0.535000,940,2554994,-3135.47,-137.11,847.46
536,0.536000,941,2555994,-12050.47,-615.11,1806.46
537,0.537000,942,2556994,-24372.47,-1515.11,3251.46
538,0.537999,943,2557993,-25223.47,-496.11,1833.46
539,0.539000,944,2558994,-19143.47,621.89,863.46
540,0.540000,945,2559994,-6510.47,248.89,3156.46
541,0.541000,946,2560994,5139.53,175.89,4078.46
542,0.542000,947,2561994,9290.53,-21.11,2623.46
543,0.543000,948,2562994,8216.53,363.89,555.46
544,0.544000,949,2563994,3496.53,1048.89,-2343.54
545,0.544999,950,2564993,4709.53,1373.89,-3895.54
546,0.545999,951,2565993,7175.53,800.89,-4180.54
547,0.546999,952,2566993,7577.53,-600.11,-3533.54
548,0.548000,953,2567994,2247.53,-709.11,-3561.54
549,0.549000,954,2568994,-1679.47,52.89,-4140.54
550,0.550000,955,2569994,2726.53,369.89,-5269.54
551,0.550999,956,2570993,10837.53,81.89,-5628.54
552,0.552000,957,2571994,17728.53,-306.11,-1937.54
553,0.553000,958,2572994,16489.53,-16.11,418.46000000000004
554,0.553999,959,2573993,4321.53,626.89,-370.53999999999996
555,0.555000,960,2574994,-6899.47,899.89,1131.46
556,0.556000,961,2575994,-8489.47,317.89,3283.46
557,0.557000,962,2576994,-3274.47,-431.11,3500.46
558,0.558000,963,2577994,3408.53,-918.11,3956.46
559,0.559000,964,2578994,4827.53,-887.11,3570.46
560,0.560000,965,2579994,-1853.47,-292.11,1204.46
561,0.561000,966,2580994,-8669.47,-346.11,1362.46
562,0.562000,967,2581994,-20668.47,-1275.11,2925.46
563,0.563000,968,2582994,-25008.47,-904.11,2548.46
564,0.564000,969,2583994,-21744.47,388.89,1184.46
565,0.565000,970,2584994,-10939.47,525.89,2053.46
566,0.566000,971,2585994,3119.53,184.89,3849.46
567,0.567000,972,2586994,8674.53,-398.11,2859.46
568,0.567999,973,2587993,9646.53,273.89,546.46
569,0.569000,974,2588994,3923.53,1132.89,-2011.54
570,0.570000,975,2589994,3905.53,1186.89,-3423.54
571,0.571000,976,2590994,6858.53,999.89,-3778.54
572,0.572000,977,2591994,7264.53,-221.11,-3385.54
573,0.573000,978,2592994,3438.53,-719.11,-3365.54
574,0.574000,979,2593994,-1924.47,8.89,-3809.54
575,0.574999,980,2594993,1976.53,353.89,-4536.54
576,0.576000,981,2595994,9697.53,178.89,-5919.54
577,0.577000,982,2596994,16828.53,-289.11,-3089.54
578,0.577999,983,2597993,17655.53,-150.11,128.46000000000004
579,0.579000,984,2598994,6410.53,569.89,-609.54
580,0.580000,985,2599994,-5318.47,862.89,453.46000000000004
581,0.581000,986,2600994,-8200.47,411.89,3031.46
582,0.582000,987,2601994,-4127.47,-214.11,3440.46
583,0.583000,988,2602994,2378.53,-847.11,3860.46
584,0.583999,989,2603993,5385.53,-1118.11,4045.46
585,0.585000,990,2604994,-374.47,-353.11,1513.46
586,0.586000,991,2605994,-6534.47,-329.11,877.46
587,0.587000,992,2606994,-18954.47,-1223.11,2649.46
588,0.588000,993,2607994,-25869.47,-1087.11,2625.46
589,0.589000,994,2608994,-23363.47,222.89,1085.46
590,0.589999,995,2609993,-13906.47,506.89,1631.46
591,0.590999,996,2610993,1244.53,133.89,3843.46
592,0.591999,997,2611993,8504.53,-348.11,3415.46
593,0.593000,998,2612994,9998.53,206.89,1362.46
594,0.594000,999,2613994,4376.53,1119.89,-1258.54
595,0.595000,1000,2614994,3788.53,1220.89,-3151.54
596,0.595999,1001,2615993,6502.53,1210.89,-3747.54
597,0.597000,1002,2616994,7296.53,37.89,-3556.54
598,0.598000,1003,2617994,5110.53,-743.11,-3226.54
599,0.599000,1004,2618994,-1958.47,-200.11,-3683.54
600,0.600000,1005,2619994,1246.53,211.89,-4352.54
601,0.601000,1006,2620994,8700.53,453.89,-6263.54
602,0.602000,1007,2621994,15699.53,-178.11,-4090.54
603,0.602999,1008,2622993,18919.53,-393.11,59.460000000000036
604,0.604000,1009,2623994,8835.53,372.89,-325.53999999999996
605,0.605000,1010,2624994,-3673.47,850.89,-105.53999999999996
606,0.606000,1011,2625994,-8687.47,582.89,2565.46
607,0.607000,1012,2626994,-5756.47,-194.11,3569.46
608,0.608000,1013,2627994,992.53,-783.11,3631.46
609,0.609000,1014,2628994,5658.53,-1051.11,4040.46
610,0.609999,1015,2629993,1144.53,-457.11,2003.46
611,0.611000,1016,2630994,-4596.47,-262.11,927.46
612,0.612000,1017,2631994,-17628.47,-890.11,2592.46
613,0.613000,1018,2632994,-26630.47,-1284.11,2851.46
614,0.614000,1019,2633994,-23381.47,-77.11,1471.46
615,0.615000,1020,2634994,-16072.47,595.89,1496.46
616,0.616000,1021,2635994,-710.47,240.89,3727.46
617,0.617000,1022,2636994,8118.53,-214.11,3697.46
618,0.618000,1023,2637994,9388.53,185.89,1489.46
619,0.619000,1024,2638994,5825.53,936.89,-742.54
620,0.620000,1025,2639994,3568.53,1000.89,-2817.54
621,0.621000,1026,2640994,5796.53,1281.89,-3891.54
622,0.622000,1027,2641994,7318.53,327.89,-3827.54
623,0.622999,1028,2642993,5618.53,-795.11,-3333.54
624,0.623999,1029,2643993,-1345.47,-406.11,-3624.54
625,0.625000,1030,2644994,982.53,158.89,-4271.54
626,0.626000,1031,2645994,7943.53,522.89,-6238.54
627,0.627000,1032,2646994,14399.53,-61.11,-4662.54
628,0.628000,1033,2647994,19072.53,-441.11,-232.53999999999996
629,0.628999,1034,2648993,10526.53,328.89,-291.53999999999996
630,0.630000,1035,2649994,-1884.47,854.89,-483.53999999999996
631,0.630999,1036,2650993,-8440.47,657.89,2323.46
632,0.632000,1037,2651994,-6463.47,-34.11,3517.46
633,0.633000,1038,2652994,197.53,-669.11,3605.46
634,0.633999,1039,2653993,5172.53,-1099.11,4204.46
635,0.635000,1040,2654994,2662.53,-564.11,2626.46
636,0.636000,1041,2655994,-3686.47,-189.11,941.46
637,0.636999,1042,2656993,-15892.47,-750.11,2178.46
638,0.638000,1043,2657994,-26444.47,-1308.11,2917.46
639,0.639000,1044,2658994,-23969.47,-272.11,1603.46
640,0.639999,1045,2659993,-16947.47,531.89,1428.46
641,0.641000,1046,2660994,-3169.47,316.89,3511.46
642,0.641999,1047,2661993,7008.53,-56.11,3735.46
643,0.643000,1048,2662994,9107.53,42.89,2071.46
644,0.644000,1049,2663994,6444.53,738.89,-196.53999999999996
645,0.645000,1050,2664994,3672.53,971.89,-2740.54
646,0.646000,1051,2665994,5461.53,1399.89,-3847.54
647,0.646999,1052,2666993,7329.53,573.89,-3996.54
648,0.647999,1053,2667993,6618.53,-785.11,-3415.54
649,0.649000,1054,2668994,-231.47,-598.11,-3592.54
650,0.649999,1055,2669993,-342.47,115.89,-4273.54
651,0.651000,1056,2670994,6310.53,503.89,-5916.54
652,0.652000,1057,2671994,13278.53,84.89,-5185.54
653,0.653000,1058,2672994,19039.53,-343.11,-728.54
654,0.654000,1059,2673994,13155.53,134.89,111.46000000000004
655,0.655000,1060,2674994,466.53,754.89,-602.54
656,0.656000,1061,2675994,-8248.47,895.89,1867.46
657,0.657000,1062,2676994,-7663.47,128.89,3526.46
658,0.658000,1063,2677994,-1168.47,-690.11,3636.46
659,0.658999,1064,2678993,4407.53,-942.11,4002.46
660,0.659999,1065,2679993,3844.53,-649.11,2811.46
661,0.661000,1066,2680994,-2757.47,-226.11,1067.46
662,0.662000,1067,2681994,-12884.47,-565.11,2182.46
663,0.663000,1068,2682994,-25154.47,-1389.11,3121.46
664,0.664000,1069,2683994,-25173.47,-571.11,1738.46
665,0.664999,1070,2684993,-18955.47,518.89,1055.46
666,0.666000,1071,2685994,-5897.47,326.89,3233.46
667,0.667000,1072,2686994,5677.53,115.89,3923.46
668,0.668000,1073,2687994,9516.53,-38.11,2246.46
669,0.668999,1074,2688993,7992.53,424.89,219.46000000000004
670,0.670000,1075,2689994,3666.53,1044.89,-2358.54
671,0.671000,1076,2690994,4769.53,1374.89,-3714.54
672,0.671999,1077,2691993,6942.53,731.89,-4172.54
673,0.673000,1078,2692994,7290.53,-615.11,-3477.54
674,0.674000,1079,2693994,1055.53,-773.11,-3346.54
675,0.675000,1080,2694994,-793.47,0.8900000000000006,-4028.54
676,0.676000,1081,2695994,4378.53,513.89,-5787.54
677,0.676999,1082,2696993,11819.53,64.89,-5764.54
678,0.678000,1083,2697994,18712.53,-460.11,-1265.54
679,0.679000,1084,2698994,15018.53,59.89,281.46000000000004
680,0.679999,1085,2699993,2600.53,808.89,-781.54
681,0.681000,1086,2700994,-7563.47,827.89,1399.46
682,0.682000,1087,2701994,-7885.47,123.89,3438.46
683,0.683000,1088,2702994,-1794.47,-345.11,3441.46
684,0.684000,1089,2703994,3958.53,-939.11,4071.46
685,0.684999,1090,2704993,4510.53,-878.11,3491.46
686,0.686000,1091,2705994,-2842.47,-153.11,1026.46
687,0.687000,1092,2706994,-10693.47,-458.11,1579.46
688,0.688000,1093,2707994,-23356.47,-1470.11,3101.46
689,0.689000,1094,2708994,-25672.47,-665.11,2125.46
690,0.690000,1095,2709994,-20509.47,506.89,1062.46
691,0.690999,1096,2710993,-8261.47,328.89,2764.46
692,0.692000,1097,2711994,4373.53,217.89,4043.46
693,0.693000,1098,2712994,8742.53,-181.11,2682.46
694,0.694000,1099,2713994,9297.53,261.89,741.46
695,0.695000,1100,2714994,3546.53,1082.89,-2068.54
696,0.695999,1101,2715993,4681.53,1360.89,-3778.54
697,0.697000,1102,2716994,7239.53,824.89,-4080.54
698,0.697999,1103,2717993,7348.53,-446.11,-3623.54
699,0.699000,1104,2718994,2803.53,-681.11,-3550.54
700,0.699999,1105,2719993,-1784.47,-82.11,-4055.54
701,0.701000,1106,2720994,2802.53,473.89,-5312.54
702,0.701999,1107,2721993,11010.53,218.89,-6032.54
703,0.703000,1108,2722994,18181.53,-488.11,-2102.54
704,0.704000,1109,2723994,17025.53,-7.109999999999999,441.46000000000004
705,0.705000,1110,2724994,4545.53,668.89,-658.54
706,0.706000,1111,2725994,-6766.47,896.89,1004.46
707,0.707000,1112,2726994,-8507.47,253.89,3392.46
708,0.708000,1113,2727994,-3365.47,-338.11,3446.46
709,0.709000,1114,2728994,3306.53,-788.11,3974.46
710,0.710000,1115,2729994,4924.53,-981.11,3723.46
711,0.711000,1116,2730994,-1468.47,-333.11,1337.46
712,0.711999,1117,2731993,-9033.47,-358.11,1402.46
713,0.713000,1118,2732994,-20894.47,-1426.11,3064.46
714,0.713999,1119,2733993,-26088.47,-906.11,2449.46
715,0.715000,1120,2734994,-22807.47,549.89,801.46
716,0.716000,1121,2735994,-10815.47,387.89,2302.46
717,0.716999,1122,2736993,2709.53,163.89,3990.46
718,0.718000,1123,2737994,9607.53,-268.11,3047.46
719,0.719000,1124,2738994,9938.53,220.89,1076.46
720,0.720000,1125,2739994,3893.53,1110.89,-1765.54
721,0.721000,1126,2740994,4166.53,1289.89,-3435.54
722,0.721999,1127,2741993,6678.53,1016.89,-4151.54
723,0.722999,1128,2742993,7679.53,-166.11,-3669.54
724,0.724000,1129,2743994,3825.53,-824.11,-3356.54
725,0.725000,1130,2744994,-1499.47,-81.11,-3904.54
726,0.726000,1131,2745994,1941.53,414.89,-4788.54
727,0.727000,1132,2746994,9656.53,109.89,-6036.54
728,0.728000,1133,2747994,17080.53,-291.11,-2858.54
729,0.729000,1134,2748994,17533.53,-131.11,318.46000000000004
730,0.729999,1135,2749993,6382.53,518.89,-664.54
731,0.731000,1136,2750994,-5520.47,926.89,332.46000000000004
732,0.732000,1137,2751994,-8386.47,391.89,3164.46
733,0.733000,1138,2752994,-3865.47,-235.11,3607.46
734,0.734000,1139,2753994,2364.53,-758.11,3722.46
735,0.735000,1140,2754994,5155.53,-1116.11,3926.46
736,0.736000,1141,2755994,-309.47,-433.11,1702.46
737,0.737000,1142,2756994,-7444.47,-355.11,1169.46
738,0.738000,1143,2757994,-19457.47,-1153.11,2770.46
739,0.739000,1144,2758994,-26137.47,-995.11,2622.46
740,0.740000,1145,2759994,-23619.47,309.89,1070.46
741,0.740999,1146,2760993,-13046.47,456.89,1981.46
742,0.741999,1147,2761993,1407.53,170.89,4065.46
743,0.743000,1148,2762994,9054.53,-223.11,3489.46
744,0.744000,1149,2763994,9961.53,187.89,1420.46
745,0.745000,1150,2764994,4271.53,1040.89,-1409.54
746,0.746000,1151,2765994,3916.53,1222.89,-3311.54
747,0.746999,1152,2766993,6290.53,1181.89,-4079.54
748,0.748000,1153,2767994,7528.53,-7.109999999999999,-3696.54
749,0.749000,1154,2768994,4971.53,-797.11,-3354.54
750,0.749999,1155,2769993,-1657.47,-243.11,-3924.54
751,0.751000,1156,2770994,1501.53,195.89,-4507.54
752,0.752000,1157,2771994,8791.53,368.89,-6243.54
753,0.753000,1158,2772994,15844.53,-189.11,-3924.54
754,0.754000,1159,2773994,18680.53,-380.11,112.46000000000004
755,0.755000,1160,2774994,8404.53,458.89,-374.53999999999996
756,0.756000,1161,2775994,-3814.47,870.89,-36.539999999999964
757,0.757000,1162,2776994,-8497.47,543.89,2805.46
758,0.758000,1163,2777994,-5572.47,-153.11,3632.46
759,0.759000,1164,2778994,1352.53,-751.11,3665.46
760,0.760000,1165,2779994,5609.53,-1056.11,4161.46
761,0.761000,1166,2780994,608.53,-464.11,2190.46
762,0.762000,1167,2781994,-5412.47,-233.11,995.46
763,0.763000,1168,2782994,-17919.47,-896.11,2586.46
764,0.764000,1169,2783994,-26825.47,-1302.11,2895.46
765,0.765000,1170,2784994,-23691.47,31.89,1430.46
766,0.765999,1171,2785993,-15632.47,646.89,1617.46
767,0.767000,1172,2786994,-630.47,224.89,3642.46
768,0.768000,1173,2787994,8915.53,-180.11,3621.46
769,0.769000,1174,2788994,9617.53,57.89,1579.46
770,0.770000,1175,2789994,5609.53,907.89,-965.54
771,0.771000,1176,2790994,4151.53,1057.89,-2973.54
772,0.772000,1177,2791994,5418.53,1268.89,-4116.54
773,0.772999,1178,2792993,7851.53,324.89,-3880.54
774,0.774000,1179,2793994,5537.53,-866.11,-3364.54
775,0.775000,1180,2794994,-1635.47,-335.11,-3851.54
776,0.776000,1181,2795994,1473.53,142.89,-4140.54
777,0.777000,1182,2796994,7705.53,448.89,-6244.54
778,0.778000,1183,2797994,14898.53,-12.11,-4520.54
779,0.779000,1184,2798994,18776.53,-465.11,-77.53999999999996
780,0.780000,1185,2799994,10115.53,363.89,-302.53999999999996
781,0.781000,1186,2800994,-2337.47,909.89,-328.53999999999996
782,0.781999,1187,2801993,-8646.47,527.89,2555.46
783,0.783000,1188,2802994,-5825.47,-43.11,3749.46
784,0.784000,1189,2803994,-46.47,-599.11,3462.46
785,0.785000,1190,2804994,5580.53,-1164.11,4272.46
786,0.786000,1191,2805994,2149.53,-586.11,2594.46
787,0.787000,1192,2806994,-4420.47,-148.11,759.46
788,0.788000,1193,2807994,-16405.47,-685.11,2316.46
789,0.789000,1194,2808994,-27257.47,-1367.11,2906.46
790,0.790000,1195,2809994,-23555.47,-239.11,1597.46
791,0.791000,1196,2810994,-16236.47,589.89,1498.46
792,0.792000,1197,2811994,-2622.47,238.89,3560.46
793,0.793000,1198,2812994,7831.53,-103.11,3808.46
794,0.793999,1199,2813993,9493.53,46.89,1983.46
795,0.795000,1200,2814994,5839.53,720.89,-519.54
796,0.796000,1201,2815994,4063.53,1079.89,-2922.54
797,0.797000,1202,2816994,5409.53,1363.89,-4013.54
798,0.798000,1203,2817994,7366.53,424.89,-3966.54
799,0.798999,1204,2818993,6629.53,-824.11,-3278.54
800,0.800000,1205,2819994,-1299.47,-593.11,-3748.54
801,0.801000,1206,2820994,197.53,131.89,-4231.54
802,0.802000,1207,2821994,6741.53,450.89,-5909.54
803,0.803000,1208,2822994,13825.53,-17.11,-5003.54
804,0.803999,1209,2823993,19129.53,-316.11,-609.54
805,0.804999,1210,2824993,12085.53,225.89,-107.53999999999996
806,0.805999,1211,2825993,-130.47,806.89,-531.54
807,0.807000,1212,2826994,-8583.47,728.89,2129.46
808,0.807999,1213,2827993,-7194.47,1.8900000000000006,3684.46
809,0.809000,1214,2828994,-616.47,-572.11,3548.46
810,0.810000,1215,2829994,4813.53,-1068.11,4099.46
811,0.811000,1216,2830994,3542.53,-694.11,2944.46
812,0.812000,1217,2831994,-3354.47,-66.11,864.46
813,0.813000,1218,2832994,-13777.47,-576.11,2035.46
814,0.814000,1219,2833994,-25863.47,-1426.11,3110.46
815,0.814999,1220,2834993,-24691.47,-481.11,1737.46
816,0.816000,1221,2835994,-17924.47,502.89,1161.46
817,0.817000,1222,2836994,-5152.47,288.89,3267.46
818,0.818000,1223,2837994,5960.53,61.89,3775.46
819,0.819000,1224,2838994,9575.53,-44.11,2226.46
820,0.820000,1225,2839994,7404.53,478.89,47.460000000000036
821,0.821000,1226,2840994,3876.53,1044.89,-2631.54
822,0.821999,1227,2841993,5055.53,1414.89,-3792.54
823,0.823000,1228,2842994,6803.53,630.89,-3978.54
824,0.824000,1229,2843994,7297.53,-625.11,-3286.54
825,0.825000,1230,2844994,-17.47,-702.11,-3466.54
826,0.826000,1231,2845994,-846.47,55.89,-4142.54
827,0.826999,1232,2846993,5521.53,519.89,-5753.54
828,0.828000,1233,2847994,12606.53,18.89,-5490.54
829,0.829000,1234,2848994,18953.53,-351.11,-1129.54
830,0.830000,1235,2849994,14190.53,101.89,79.46000000000004
831,0.830999,1236,2850993,1459.53,801.89,-817.54
832,0.832000,1237,2851994,-7970.47,873.89,1638.46
833,0.832999,1238,2852993,-7741.47,43.89,3586.46
834,0.834000,1239,2853994,-1422.47,-505.11,3379.46
835,0.835000,1240,2854994,4458.53,-937.11,4009.46
836,0.836000,1241,2855994,4409.53,-868.11,3436.46
837,0.836999,1242,2856993,-3115.47,-134.11,926.46
838,0.838000,1243,2857994,-11596.47,-442.11,1552.46
839,0.839000,1244,2858994,-24027.47,-1439.11,3079.46
840,0.840000,1245,2859994,-25430.47,-674.11,2093.46
841,0.841000,1246,2860994,-19446.47,442.89,1220.46
842,0.841999,1247,2861993,-7352.47,359.89,2923.46
843,0.842999,1248,2862993,4456.53,216.89,3857.46
844,0.844000,1249,2863994,8994.53,-142.11,2606.46
845,0.845000,1250,2864994,8539.53,350.89,609.46
846,0.846000,1251,2865994,3477.53,1101.89,-2241.54
847,0.847000,1252,2866994,4920.53,1345.89,-3743.54
848,0.848000,1253,2867994,7407.53,779.89,-3977.54
849,0.848999,1254,2868993,7451.53,-489.11,-3381.54
850,0.850000,1255,2869994,1611.53,-732.11,-3502.54
851,0.851000,1256,2870994,-1823.47,10.89,-4132.54
852,0.852000,1257,2871994,3394.53,497.89,-5431.54
853,0.853000,1258,2872994,11673.53,54.89,-5768.54
854,0.854000,1259,2873994,18568.53,-409.11,-1785.54
855,0.855000,1260,2874994,16447.53,12.89,169.46000000000004
856,0.856000,1261,2875994,3790.53,668.89,-907.54
857,0.857000,1262,2876994,-7443.47,919.89,1094.46
858,0.858000,1263,2877994,-8499.47,180.89,3440.46
859,0.859000,1264,2878994,-2705.47,-401.11,3380.46
860,0.860000,1265,2879994,3838.53,-823.11,3964.46
861,0.861000,1266,2880994,5098.53,-955.11,3701.46
862,0.862000,1267,2881994,-1905.47,-190.11,1186.46
863,0.862999,1268,2882993,-9485.47,-315.11,1503.46
864,0.864000,1269,2883994,-21804.47,-1492.11,3179.46
865,0.865000,1270,2884994,-25832.47,-809.11,2445.46
866,0.866000,1271,2885994,-21960.47,452.89,1071.46
867,0.867000,1272,2886994,-10332.47,416.89,2293.46
868,0.868000,1273,2887994,3344.53,261.89,3910.46
869,0.869000,1274,2888994,8905.53,-382.11,2988.46
870,0.870000,1275,2889994,9772.53,244.89,947.46
871,0.871000,1276,2890994,3558.53,1159.89,-1863.54
872,0.872000,1277,2891994,4224.53,1202.89,-3541.54
873,0.873000,1278,2892994,7133.53,983.89,-4114.54
874,0.874000,1279,2893994,7466.53,-244.11,-3600.54
875,0.875000,1280,2894994,3695.53,-769.11,-3359.54
876,0.876000,1281,2895994,-1929.47,-34.11,-4004.54
877,0.877000,1282,2896994,2183.53,362.89,-5003.54
878,0.878000,1283,2897994,10146.53,130.89,-6115.54
879,0.879000,1284,2898994,17314.53,-375.11,-2749.54
880,0.880000,1285,2899994,17999.53,-177.11,359.46000000000004
881,0.881000,1286,2900994,6115.53,570.89,-650.54
882,0.882000,1287,2901994,-6138.47,984.89,532.46
883,0.883000,1288,2902994,-8566.47,399.89,3203.46
884,0.884000,1289,2903994,-3928.47,-253.11,3484.46
885,0.885000,1290,2904994,2491.53,-847.11,3801.46
886,0.885999,1291,2905993,5464.53,-1104.11,4015.46
887,0.887000,1292,2906994,-844.47,-368.11,1602.46
888,0.887999,1293,2907993,-7927.47,-290.11,1089.46
889,0.889000,1294,2908994,-19817.47,-1167.11,2770.46
890,0.890000,1295,2909994,-26172.47,-1041.11,2564.46
891,0.891000,1296,2910994,-23128.47,288.89,1177.46
892,0.892000,1297,2911994,-12702.47,507.89,2029.46
893,0.892999,1298,2912993,1869.53,197.89,3955.46
894,0.894000,1299,2913994,9081.53,-274.11,3411.46
895,0.895000,1300,2914994,9941.53,171.89,1311.46
896,0.895999,1301,2915993,4146.53,1093.89,-1570.54
897,0.897000,1302,2916994,3931.53,1221.89,-3403.54
898,0.898000,1303,2917994,6653.53,1080.89,-4081.54
899,0.899000,1304,2918994,7499.53,-15.11,-3703.54
900,0.899999,1305,2919993,4797.53,-809.11,-3423.54
901,0.900999,1306,2920993,-1741.47,-198.11,-3951.54
902,0.902000,1307,2921994,1349.53,324.89,-4527.54
903,0.903000,1308,2922994,8941.53,336.89,-6164.54
904,0.904000,1309,2923994,16149.53,-251.11,-3595.54
905,0.905000,1310,2924994,18761.53,-325.11,262.46000000000004
906,0.906000,1311,2925994,7938.53,497.89,-485.53999999999996
907,0.906999,1312,2926993,-4275.47,854.89,28.460000000000036
908,0.907999,1313,2927993,-8683.47,485.89,2835.46
909,0.909000,1314,2928994,-5531.47,-106.11,3476.46
910,0.910000,1315,2929994,1634.53,-763.11,3632.46
911,0.910999,1316,2930993,5599.53,-1164.11,4219.46
912,0.911999,1317,2931993,622.53,-424.11,2103.46
913,0.912999,1318,2932993,-5393.47,-255.11,1022.46
914,0.914000,1319,2933994,-18631.47,-1005.11,2623.46
915,0.915000,1320,2934994,-26503.47,-1152.11,2826.46
916,0.915999,1321,2935993,-23647.47,99.89,1409.46
917,0.917000,1322,2936994,-15323.47,546.89,1571.46
918,0.918000,1323,2937994,264.53,196.89,3716.46
919,0.919000,1324,2938994,8533.53,-213.11,3587.46
920,0.920000,1325,2939994,9985.53,114.89,1575.46
921,0.921000,1326,2940994,5167.53,913.89,-936.54
922,0.922000,1327,2941994,3895.53,1076.89,-3070.54
923,0.922999,1328,2942993,5798.53,1301.89,-4016.54
924,0.924000,1329,2943994,7214.53,236.89,-3833.54
925,0.925000,1330,2944994,5578.53,-870.11,-3371.54
926,0.926000,1331,2945994,-1620.47,-356.11,-3796.54
927,0.926999,1332,2946993,1390.53,133.89,-4296.54
928,0.928000,1333,2947994,8239.53,415.89,-6238.54
929,0.929000,1334,2948994,14854.53,-59.11,-4392.54
930,0.930000,1335,2949994,18864.53,-378.11,-36.539999999999964
931,0.931000,1336,2950994,9772.53,429.89,-339.53999999999996
932,0.932000,1337,2951994,-2539.47,888.89,-255.53999999999996
933,0.932999,1338,2952993,-8296.47,631.89,2693.46
934,0.934000,1339,2953994,-6000.47,-71.11,3668.46
935,0.935000,1340,2954994,417.53,-670.11,3529.46
936,0.936000,1341,2955994,5478.53,-1128.11,4307.46
937,0.936999,1342,2956993,1816.53,-599.11,2525.46
938,0.937999,1343,2957993,-4335.47,-139.11,760.46
939,0.939000,1344,2958994,-16790.47,-717.11,2260.46
940,0.940000,1345,2959994,-26694.47,-1370.11,2939.46
941,0.941000,1346,2960994,-23561.47,-185.11,1582.46
942,0.942000,1347,2961994,-16572.47,586.89,1335.46
943,0.943000,1348,2962994,-2346.47,185.89,3545.46
944,0.944000,1349,2963994,7592.53,-91.11,3841.46
945,0.945000,1350,2964994,9488.53,71.89,1976.46
946,0.946000,1351,2965994,6162.53,741.89,-436.53999999999996
947,0.947000,1352,2966994,3961.53,1052.89,-2905.54
948,0.948000,1353,2967994,5387.53,1329.89,-3982.54
949,0.949000,1354,2968994,7535.53,420.89,-3887.54
950,0.950000,1355,2969994,6044.53,-727.11,-3350.54
951,0.950999,1356,2970993,-1162.47,-576.11,-3649.54
952,0.952000,1357,2971994,669.53,73.89,-4153.54
953,0.952999,1358,2972993,6873.53,484.89,-6108.54
954,0.954000,1359,2973994,13788.53,24.89,-5012.54
955,0.955000,1360,2974994,19256.53,-418.11,-422.53999999999996
956,0.956000,1361,2975994,11796.53,194.89,-139.53999999999996
957,0.957000,1362,2976994,-751.47,861.89,-686.54
958,0.958000,1363,2977994,-8514.47,684.89,2143.46
959,0.959000,1364,2978994,-7086.47,23.89,3575.46
960,0.959999,1365,2979993,-524.47,-602.11,3435.46
961,0.961000,1366,2980994,5164.53,-1105.11,4151.46
962,0.962000,1367,2981994,3567.53,-682.11,2913.46
963,0.963000,1368,2982994,-3313.47,-54.11,927.46
964,0.963999,1369,2983993,-14264.47,-590.11,2146.46
965,0.965000,1370,2984994,-26138.47,-1409.11,3043.46
966,0.966000,1371,2985994,-24630.47,-387.11,1678.46
967,0.967000,1372,2986994,-17975.47,502.89,1241.46
968,0.967999,1373,2987993,-4707.47,261.89,3381.46
969,0.969000,1374,2988994,6387.53,53.89,3843.46
970,0.970000,1375,2989994,9426.53,19.89,2196.46
971,0.970999,1376,2990993,7217.53,551.89,77.46000000000004
972,0.972000,1377,2991994,3880.53,973.89,-2507.54
973,0.973000,1378,2992994,4815.53,1363.89,-3872.54
974,0.974000,1379,2993994,7173.53,699.89,-4034.54
975,0.975000,1380,2994994,6948.53,-678.11,-3268.54
976,0.976000,1381,2995994,160.53,-692.11,-3514.54
977,0.977000,1382,2996994,-476.47,99.89,-4214.54
978,0.978000,1383,2997994,5418.53,455.89,-5864.54
979,0.978999,1384,2998993,12838.53,40.89,-5433.54
980,0.980000,1385,2999994,18583.53,-297.11,-1185.54
981,0.981000,1386,3000994,14268.53,116.89,0.4600000000000364
982,0.982000,1387,3001994,1475.53,754.89,-774.54
983,0.983000,1388,3002994,-7902.47,859.89,1645.46
984,0.984000,1389,3003994,-7447.47,109.89,3636.46
985,0.984999,1390,3004993,-1647.47,-507.11,3391.46
986,0.986000,1391,3005994,4298.53,-953.11,4119.46
987,0.987000,1392,3006994,4373.53,-818.11,3441.46
988,0.988000,1393,3007994,-3166.47,-128.11,884.46
989,0.989000,1394,3008994,-11760.47,-433.11,1625.46
990,0.990000,1395,3009994,-24170.47,-1467.11,3104.46
991,0.991000,1396,3010994,-25460.47,-621.11,2064.46
992,0.992000,1397,3011994,-19469.47,417.89,1261.46
993,0.993000,1398,3012994,-7698.47,330.89,2937.46
994,0.994000,1399,3013994,4961.53,245.89,3910.46
995,0.995000,1400,3014994,9043.53,-201.11,2674.46
996,0.996000,1401,3015994,8661.53,369.89,538.46
997,0.997000,1402,3016994,4008.53,1089.89,-2189.54
998,0.998000,1403,3017994,4383.53,1301.89,-3844.54
999,0.999000,1404,3018994,7632.53,832.89,-4041.54
1000,0.999999,1405,3019993,7117.53,-499.11,-3366.54
1001,1.001000,1406,3020994,1619.53,-797.11,-3589.54
1002,1.002000,1407,3021994,-1183.47,38.89,-4072.54
1003,1.003000,1408,3022994,3223.53,495.89,-5448.54
1004,1.004000,1409,3023994,11966.53,157.89,-5828.54
1005,1.005000,1410,3024994,18693.53,-478.11,-1682.54
1006,1.005999,1411,3025993,15884.53,-43.11,184.46000000000004
1007,1.007000,1412,3026994,3715.53,776.89,-940.54
1008,1.008000,1413,3027994,-7591.47,810.89,1180.46
1009,1.009000,1414,3028994,-8400.47,152.89,3443.46
1010,1.010000,1415,3029994,-2447.47,-322.11,3294.46
1011,1.011000,1416,3030994,3622.53,-880.11,3967.46
1012,1.012000,1417,3031994,5201.53,-953.11,3711.46
1013,1.013000,1418,3032994,-2040.47,-179.11,1193.46
1014,1.014000,1419,3033994,-9740.47,-436.11,1603.46
1015,1.015000,1420,3034994,-21880.47,-1467.11,3189.46
1016,1.016000,1421,3035994,-26191.47,-711.11,2252.46
1017,1.017000,1422,3036994,-21858.47,481.89,990.46
1018,1.017999,1423,3037993,-9733.47,385.89,2525.46
1019,1.019000,1424,3038994,3337.53,236.89,3952.46
1020,1.019999,1425,3039993,9231.53,-252.11,2915.46
1021,1.021000,1426,3040994,9754.53,276.89,951.46
1022,1.021999,1427,3041993,3599.53,1108.89,-1888.54
1023,1.023000,1428,3042994,4158.53,1335.89,-3669.54
1024,1.023999,1429,3043993,6788.53,1000.89,-4225.54
1025,1.025000,1430,3044994,7554.53,-278.11,-3478.54
1026,1.026000,1431,3045994,3403.53,-755.11,-3332.54
1027,1.027000,1432,3046994,-1593.47,-63.11,-4047.54
1028,1.028000,1433,3047994,2219.53,421.89,-5157.54
1029,1.029000,1434,3048994,10346.53,187.89,-6153.54
1030,1.030000,1435,3049994,17566.53,-426.11,-2537.54
1031,1.030999,1436,3050993,17356.53,-157.11,234.46000000000004
1032,1.032000,1437,3051994,6039.53,607.89,-810.54
1033,1.033000,1438,3052994,-6173.47,974.89,603.46
1034,1.033999,1439,3053993,-8433.47,404.89,3350.46
1035,1.035000,1440,3054994,-3604.47,-318.11,3476.46
1036,1.036000,1441,3055994,2687.53,-846.11,3690.46
1037,1.036999,1442,3056993,5190.53,-1005.11,3962.46
1038,1.038000,1443,3057994,-926.47,-342.11,1708.46
1039,1.039000,1444,3058994,-8096.47,-310.11,1305.46
1040,1.040000,1445,3059994,-19856.47,-1198.11,2752.46
1041,1.040999,1446,3060993,-26031.47,-1011.11,2501.46
1042,1.042000,1447,3061994,-23246.47,306.89,1227.46
1043,1.043000,1448,3062994,-12422.47,456.89,2267.46
1044,1.044000,1449,3063994,1684.53,192.89,3996.46
1045,1.045000,1450,3064994,9136.53,-203.11,3196.46
1046,1.046000,1451,3065994,9998.53,194.89,1318.46
1047,1.047000,1452,3066994,4202.53,1007.89,-1488.54
1048,1.048000,1453,3067994,4262.53,1238.89,-3446.54
1049,1.049000,1454,3068994,6388.53,1132.89,-4161.54
1050,1.050000,1455,3069994,7578.53,-47.11,-3714.54
1051,1.051000,1456,3070994,4671.53,-765.11,-3363.54
1052,1.052000,1457,3071994,-2032.47,-169.11,-4032.54
1053,1.052999,1458,3072993,1767.53,294.89,-4624.54
1054,1.053999,1459,3073993,9012.53,287.89,-6085.54
1055,1.055000,1460,3074994,16501.53,-307.11,-3467.54
1056,1.056000,1461,3075994,18692.53,-267.11,249.46000000000004
1057,1.057000,1462,3076994,7424.53,464.89,-537.54
1058,1.058000,1463,3077994,-4345.47,842.89,131.46000000000004
1059,1.058999,1464,3078993,-8735.47,510.89,2869.46
1060,1.060000,1465,3079994,-5084.47,-169.11,3523.46
1061,1.060999,1466,3080993,1869.53,-750.11,3695.46
1062,1.062000,1467,3081994,5509.53,-1094.11,4121.46
1063,1.062999,1468,3082993,513.53,-441.11,2073.46
1064,1.064000,1469,3083994,-5807.47,-299.11,1035.46
1065,1.065000,1470,3084994,-18760.47,-1004.11,2530.46
1066,1.066000,1471,3085994,-26489.47,-1181.11,2745.46
1067,1.067000,1472,3086994,-23717.47,117.89,1333.46
1068,1.068000,1473,3087994,-15032.47,603.89,1635.46
1069,1.069000,1474,3088994,547.53,174.89,3879.46
1070,1.070000,1475,3089994,8690.53,-249.11,3639.46
1071,1.071000,1476,3090994,10188.53,148.89,1616.46
1072,1.072000,1477,3091994,5037.53,954.89,-951.54
1073,1.073000,1478,3092994,3607.53,1104.89,-3190.54
1074,1.074000,1479,3093994,6006.53,1294.89,-4043.54
1075,1.074999,1480,3094993,7152.53,221.89,-3839.54
1076,1.075999,1481,3095993,5685.53,-864.11,-3336.54
1077,1.077000,1482,3096994,-1797.47,-388.11,-3780.54
1078,1.078000,1483,3097994,1161.53,114.89,-4458.54
1079,1.079000,1484,3098994,8393.53,439.89,-6324.54
1080,1.080000,1485,3099994,14848.53,-103.11,-4359.54
1081,1.081000,1486,3100994,19087.53,-385.11,-93.53999999999996
1082,1.082000,1487,3101994,9624.53,405.89,-450.53999999999996
1083,1.083000,1488,3102994,-2611.47,861.89,-287.53999999999996
1084,1.084000,1489,3103994,-8301.47,619.89,2612.46
1085,1.085000,1490,3104994,-6116.47,-30.11,3591.46
1086,1.086000,1491,3105994,646.53,-654.11,3592.46
1087,1.087000,1492,3106994,5513.53,-1132.11,4307.46
1088,1.088000,1493,3107994,1516.53,-499.11,2420.46
1089,1.088999,1494,3108993,-4358.47,-151.11,824.46
1090,1.090000,1495,3109994,-16924.47,-790.11,2233.46
1091,1.091000,1496,3110994,-26557.47,-1291.11,2871.46
1092,1.092000,1497,3111994,-23389.47,-220.11,1672.46
1093,1.093000,1498,3112994,-16353.47,539.89,1418.46
1094,1.094000,1499,3113994,-2286.47,279.89,3588.46
1095,1.095000,1500,3114994,7343.53,-110.11,3729.46
1096,1.096000,1501,3115994,9637.53,72.89,1943.46
1097,1.096999,1502,3116993,5953.53,759.89,-451.53999999999996
1098,1.098000,1503,3117994,4309.53,1021.89,-2888.54
1099,1.098999,1504,3118993,5438.53,1348.89,-3901.54
1100,1.100000,1505,3119994,7073.53,455.89,-4006.54
1101,1.101000,1506,3120994,6628.53,-756.11,-3388.54
1102,1.102000,1507,3121994,-1323.47,-582.11,-3682.54
1103,1.103000,1508,3122994,525.53,84.89,-4149.54
1104,1.104000,1509,3123994,6924.53,491.89,-5982.54
1105,1.105000,1510,3124994,13520.53,21.89,-5041.54
1106,1.105999,1511,3125993,19330.53,-355.11,-550.54
1107,1.107000,1512,3126994,11824.53,165.89,-52.539999999999964
1108,1.108000,1513,3127994,-614.47,860.89,-482.53999999999996
1109,1.109000,1514,3128994,-8338.47,734.89,2137.46
1110,1.110000,1515,3129994,-7271.47,-62.11,3652.46
1111,1.111000,1516,3130994,-332.47,-536.11,3524.46
1112,1.112000,1517,3131994,5064.53,-1026.11,4103.46
1113,1.113000,1518,3132994,3161.53,-753.11,2910.46
1114,1.114000,1519,3133994,-3365.47,-138.11,786.46
1115,1.115000,1520,3134994,-14090.47,-642.11,1896.46
1116,1.116000,1521,3135994,-26163.47,-1382.11,2890.46
1117,1.117000,1522,3136994,-24475.47,-408.11,1685.46
1118,1.118000,1523,3137994,-17969.47,481.89,1159.46
1119,1.119000,1524,3138994,-4601.47,306.89,3346.46
1120,1.120000,1525,3139994,6347.53,19.89,4031.46
1121,1.120999,1526,3140993,9320.53,-16.11,2335.46
1122,1.122000,1527,3141994,7516.53,629.89,225.46000000000004
1123,1.123000,1528,3142994,3460.53,1010.89,-2491.54
1124,1.124000,1529,3143994,4982.53,1358.89,-3776.54
1125,1.125000,1530,3144994,6974.53,714.89,-3882.54
1126,1.125999,1531,3145993,6796.53,-669.11,-3291.54
1127,1.127000,1532,3146994,651.53,-715.11,-3476.54
1128,1.127999,1533,3147993,-652.47,-37.11,-4117.54
1129,1.129000,1534,3148994,5001.53,448.89,-5846.54
1130,1.130000,1535,3149994,12422.53,118.89,-5625.54
1131,1.131000,1536,3150994,18423.53,-385.11,-1275.54
1132,1.132000,1537,3151994,14323.53,48.89,-29.539999999999964
1133,1.133000,1538,3152994,2076.53,737.89,-878.54
1134,1.134000,1539,3153994,-7493.47,812.89,1539.46
1135,1.135000,1540,3154994,-7574.47,102.89,3474.46
1136,1.135999,1541,3155993,-1413.47,-529.11,3490.46
1137,1.137000,1542,3156994,4054.53,-947.11,4134.46
1138,1.138000,1543,3157994,3975.53,-713.11,3271.46
1139,1.139000,1544,3158994,-3161.47,-163.11,1059.46
1140,1.140000,1545,3159994,-11255.47,-453.11,1810.46
1141,1.141000,1546,3160994,-23188.47,-1425.11,3243.46
1142,1.142000,1547,3161994,-25098.47,-685.11,2226.46
1143,1.143000,1548,3162994,-19781.47,488.89,1120.46
1144,1.144000,1549,3163994,-8022.47,363.89,2818.46
1145,1.145000,1550,3164994,4108.53,219.89,3962.46
1146,1.146000,1551,3165994,8683.53,-146.11,2698.46
1147,1.146999,1552,3166993,8765.53,377.89,629.46
1148,1.148000,1553,3167994,3877.53,1096.89,-2113.54
1149,1.149000,1554,3168994,4950.53,1271.89,-3603.54
1150,1.149999,1555,3169993,7253.53,867.89,-4037.54
1151,1.151000,1556,3170994,7262.53,-430.11,-3552.54
1152,1.152000,1557,3171994,2103.53,-776.11,-3591.54
1153,1.153000,1558,3172994,-1700.47,-10.11,-4171.54
1154,1.154000,1559,3173994,3251.53,425.89,-5347.54
1155,1.155000,1560,3174994,11314.53,127.89,-5996.54
1156,1.155999,1561,3175993,18240.53,-415.11,-2147.54
1157,1.157000,1562,3176994,16685.53,-70.11,405.46000000000004
1158,1.158000,1563,3177994,4280.53,617.89,-613.54
1159,1.159000,1564,3178994,-7358.47,960.89,853.46
1160,1.160000,1565,3179994,-8443.47,295.89,3350.46
1161,1.161000,1566,3180994,-2593.47,-369.11,3639.46
1162,1.162000,1567,3181994,3483.53,-805.11,4000.46
1163,1.163000,1568,3182994,4861.53,-926.11,3613.46
1164,1.164000,1569,3183994,-1760.47,-338.11,1357.46
1165,1.165000,1570,3184994,-9521.47,-391.11,1440.46
1166,1.166000,1571,3185994,-21439.47,-1407.11,3006.46
1167,1.167000,1572,3186994,-26175.47,-871.11,2316.46
1168,1.168000,1573,3187994,-22229.47,498.89,804.46
1169,1.169000,1574,3188994,-10100.47,362.89,2479.46
1170,1.169999,1575,3189993,3013.53,160.89,4042.46
1171,1.171000,1576,3190994,9276.53,-195.11,2926.46
1172,1.172000,1577,3191994,9886.53,303.89,1061.46
1173,1.173000,1578,3192994,3679.53,1086.89,-1668.54
1174,1.174000,1579,3193994,4262.53,1282.89,-3395.54
1175,1.175000,1580,3194994,6961.53,1054.89,-4177.54
1176,1.176000,1581,3195994,7632.53,-176.11,-3668.54
1177,1.177000,1582,3196994,3803.53,-835.11,-3346.54
1178,1.178000,1583,3197994,-1755.47,-153.11,-3973.54
1179,1.179000,1584,3198994,1685.53,417.89,-5034.54
1180,1.180000,1585,3199994,9653.53,206.89,-6240.54
1181,1.181000,1586,3200994,17282.53,-429.11,-2842.54
1182,1.181999,1587,3201993,17866.53,-165.11,349.46000000000004
1183,1.183000,1588,3202994,6594.53,559.89,-591.54
1184,1.184000,1589,3203994,-5879.47,954.89,277.46000000000004
1185,1.185000,1590,3204994,-8493.47,425.89,3050.46
1186,1.186000,1591,3205994,-4015.47,-313.11,3656.46
1187,1.187000,1592,3206994,2344.53,-784.11,3811.46
1188,1.188000,1593,3207994,5427.53,-1014.11,3937.46
1189,1.189000,1594,3208994,-812.47,-396.11,1648.46
1190,1.190000,1595,3209994,-7526.47,-305.11,1208.46
1191,1.191000,1596,3210994,-19625.47,-1110.11,2782.46
1192,1.192000,1597,3211994,-25879.47,-1057.11,2646.46
1193,1.193000,1598,3212994,-22746.47,266.89,1202.46
1194,1.193999,1599,3213993,-13171.47,489.89,1967.46
1195,1.195000,1600,3214994,1271.53,152.89,4024.46
1196,1.196000,1601,3215994,8820.53,-229.11,3377.46
1197,1.197000,1602,3216994,9926.53,220.89,1311.46
1198,1.198000,1603,3217994,4230.53,1006.89,-1364.54
1199,1.199000,1604,3218994,4115.53,1169.89,-3236.54
1200,1.199999,1605,3219993,6563.53,1162.89,-4048.54
1201,1.201000,1606,3220994,7614.53,28.89,-3839.54
1202,1.202000,1607,3221994,4797.53,-842.11,-3469.54
1203,1.203000,1608,3222994,-2005.47,-255.11,-3921.54
1204,1.204000,1609,3223994,1477.53,232.89,-4457.54
1205,1.205000,1610,3224994,8481.53,348.89,-6253.54
1206,1.206000,1611,3225994,16133.53,-194.11,-3906.54
1207,1.207000,1612,3226994,18599.53,-290.11,113.46000000000004
1208,1.208000,1613,3227994,8235.53,378.89,-400.53999999999996
1209,1.209000,1614,3228994,-3749.47,925.89,-61.539999999999964
1210,1.209999,1615,3229993,-8803.47,619.89,2759.46
1211,1.211000,1616,3230994,-5145.47,-213.11,3788.46
1212,1.212000,1617,3231994,1420.53,-680.11,3735.46
1213,1.213000,1618,3232994,5449.53,-1034.11,4097.46
1214,1.214000,1619,3233994,908.53,-553.11,2191.46
1215,1.215000,1620,3234994,-5271.47,-309.11,982.46
1216,1.216000,1621,3235994,-18234.47,-924.11,2481.46
1217,1.217000,1622,3236994,-26434.47,-1287.11,2734.46
1218,1.217999,1623,3237993,-23357.47,-11.11,1221.46
1219,1.218999,1624,3238993,-15682.47,575.89,1352.46
1220,1.219999,1625,3239993,-495.47,200.89,3750.46
1221,1.220999,1626,3240993,8203.53,-243.11,3757.46
1222,1.222000,1627,3241994,10072.53,139.89,1697.46
1223,1.223000,1628,3242994,5406.53,934.89,-741.54
1224,1.224000,1629,3243994,3921.53,1078.89,-2905.54
1225,1.225000,1630,3244994,5950.53,1396.89,-3958.54
1226,1.226000,1631,3245994,7041.53,335.89,-3968.54
1227,1.227000,1632,3246994,5992.53,-837.11,-3327.54
1228,1.228000,1633,3247994,-1615.47,-470.11,-3692.54
1229,1.229000,1634,3248994,894.53,113.89,-4325.54
1230,1.229999,1635,3249993,7868.53,453.89,-6226.54
1231,1.231000,1636,3250994,14196.53,-90.11,-4734.54
1232,1.232000,1637,3251994,18995.53,-350.11,-304.53999999999996
1233,1.233000,1638,3252994,10505.53,271.89,-203.53999999999996
1234,1.234000,1639,3253994,-1951.47,869.89,-426.53999999999996
1235,1.235000,1640,3254994,-8213.47,755.89,2269.46
1236,1.236000,1641,3255994,-6368.47,-71.11,3688.46
1237,1.237000,1642,3256994,240.53,-675.11,3677.46
1238,1.237999,1643,3257993,5409.53,-1089.11,4152.46
1239,1.239000,1644,3258994,2001.53,-552.11,2567.46
1240,1.240000,1645,3259994,-4237.47,-102.11,856.46
1241,1.241000,1646,3260994,-15797.47,-712.11,2218.46
1242,1.242000,1647,3261994,-26289.47,-1334.11,2902.46
1243,1.243000,1648,3262994,-23381.47,-313.11,1715.46
1244,1.243999,1649,3263993,-16856.47,482.89,1468.46
1245,1.245000,1650,3264994,-3181.47,355.89,3598.46
1246,1.246000,1651,3265994,6920.53,-77.11,3918.46
1247,1.246999,1652,3266993,8910.53,59.89,1903.46
1248,1.248000,1653,3267994,6779.53,795.89,-255.53999999999996
1249,1.249000,1654,3268994,3947.53,902.89,-2635.54
1250,1.250000,1655,3269994,5477.53,1342.89,-3853.54
1251,1.251000,1656,3270994,7159.53,565.89,-3945.54
1252,1.252000,1657,3271994,6229.53,-772.11,-3460.54
1253,1.253000,1658,3272994,-405.47,-641.11,-3645.54
1254,1.253999,1659,3273993,-132.47,30.89,-4122.54
1255,1.255000,1660,3274994,6439.53,435.89,-5973.54
1256,1.256000,1661,3275994,13509.53,49.89,-5268.54
1257,1.256999,1662,3276993,18483.53,-390.11,-827.54
1258,1.258000,1663,3277994,13007.53,149.89,-90.53999999999996
1259,1.258999,1664,3278993,207.53,776.89,-601.54
1260,1.260000,1665,3279994,-8326.47,783.89,1831.46
1261,1.261000,1666,3280994,-6809.47,139.89,3514.46
1262,1.262000,1667,3281994,-1273.47,-529.11,3576.46
1263,1.262999,1668,3282993,4961.53,-990.11,4253.46
1264,1.264000,1669,3283994,3668.53,-677.11,3112.46
1265,1.265000,1670,3284994,-3249.47,-113.11,893.46
1266,1.266000,1671,3285994,-12708.47,-590.11,1994.46
1267,1.267000,1672,3286994,-25468.47,-1421.11,2995.46
1268,1.268000,1673,3287994,-24962.47,-475.11,1703.46
1269,1.269000,1674,3288994,-18763.47,469.89,1045.46
1270,1.270000,1675,3289994,-6003.47,248.89,3189.46
1271,1.270999,1676,3290993,5607.53,112.89,3943.46
1272,1.271999,1677,3291993,9439.53,-80.11,2366.46
1273,1.273000,1678,3292994,8021.53,443.89,337.46000000000004
1274,1.274000,1679,3293994,3861.53,1069.89,-2316.54
1275,1.275000,1680,3294994,4735.53,1395.89,-3727.54
1276,1.276000,1681,3295994,6864.53,716.89,-4005.54
1277,1.277000,1682,3296994,7054.53,-571.11,-3379.54
1278,1.278000,1683,3297994,1237.53,-670.11,-3483.54
1279,1.279000,1684,3298994,-785.47,4.890000000000001,-4011.54
1280,1.279999,1685,3299993,4435.53,400.89,-5619.54
1281,1.281000,1686,3300994,11928.53,164.89,-5858.54
1282,1.282000,1687,3301994,18283.53,-339.11,-1530.54
1283,1.283000,1688,3302994,15067.53,-53.11,206.46000000000004
1284,1.284000,1689,3303994,2776.53,762.89,-844.54
1285,1.285000,1690,3304994,-7432.47,832.89,1286.46
1286,1.286000,1691,3305994,-7781.47,119.89,3416.46
1287,1.287000,1692,3306994,-1974.47,-406.11,3474.46
1288,1.288000,1693,3307994,3886.53,-942.11,4085.46
1289,1.288999,1694,3308993,4263.53,-847.11,3351.46
1290,1.290000,1695,3309994,-2865.47,-159.11,977.46
1291,1.291000,1696,3310994,-10244.47,-427.11,1698.46
1292,1.291999,1697,3311993,-22551.47,-1433.11,3234.46
1293,1.293000,1698,3312994,-25237.47,-651.11,2288.46
1294,1.294000,1699,3313994,-20598.47,532.89,1101.46
1295,1.295000,1700,3314994,-9034.47,363.89,2701.46
1296,1.295999,1701,3315993,3697.53,206.89,4164.46
1297,1.297000,1702,3316994,8910.53,-209.11,2872.46
1298,1.298000,1703,3317994,9298.53,354.89,649.46
1299,1.298999,1704,3318993,3576.53,1138.89,-2115.54
1300,1.299999,1705,3319993,4670.53,1249.89,-3634.54
1301,1.300999,1706,3320993,7094.53,907.89,-4077.54
1302,1.302000,1707,3321994,7077.53,-364.11,-3641.54
1303,1.303000,1708,3322994,2870.53,-821.11,-3437.54
1304,1.303999,1709,3323993,-1852.47,-23.11,-3984.54
1305,1.305000,1710,3324994,2864.53,435.89,-5246.54
1306,1.305999,1711,3325993,10972.53,106.89,-6126.54
1307,1.306999,1712,3326993,17857.53,-449.11,-2392.54
1308,1.307999,1713,3327993,17151.53,-113.11,309.46000000000004
1309,1.309000,1714,3328994,4801.53,637.89,-724.54
1310,1.310000,1715,3329994,-6775.47,866.89,765.46
1311,1.310999,1716,3330993,-8440.47,310.89,3224.46
1312,1.312000,1717,3331994,-3225.47,-290.11,3525.46
1313,1.313000,1718,3332994,3300.53,-846.11,4040.46
1314,1.314000,1719,3333994,5270.53,-955.11,3882.46
1315,1.315000,1720,3334994,-1516.47,-279.11,1453.46
1316,1.316000,1721,3335994,-8546.47,-359.11,1398.46
1317,1.317000,1722,3336994,-20354.47,-1376.11,3087.46
1318,1.318000,1723,3337994,-26173.47,-914.11,2377.46
1319,1.319000,1724,3338994,-22863.47,480.89,802.46
1320,1.320000,1725,3339994,-11494.47,335.89,2270.46
1321,1.321000,1726,3340994,2266.53,137.89,4048.46
1322,1.322000,1727,3341994,9100.53,-149.11,3085.46
1323,1.323000,1728,3342994,10016.53,211.89,1169.46
1324,1.323999,1729,3343993,3976.53,1033.89,-1578.54
1325,1.325000,1730,3344994,4118.53,1277.89,-3400.54
1326,1.325999,1731,3345993,6916.53,1059.89,-4077.54
1327,1.327000,1732,3346994,7649.53,-90.11,-3650.54
1328,1.327999,1733,3347993,4072.53,-765.11,-3323.54
1329,1.328999,1734,3348993,-2130.47,-197.11,-3897.54
1330,1.330000,1735,3349994,1525.53,332.89,-4790.54
1331,1.331000,1736,3350994,9246.53,313.89,-6349.54
1332,1.331999,1737,3351993,17187.53,-322.11,-3326.54
1333,1.333000,1738,3352994,18479.53,-297.11,343.46000000000004
1334,1.334000,1739,3353994,6971.53,533.89,-655.54
1335,1.335000,1740,3354994,-4690.47,906.89,135.46000000000004
1336,1.336000,1741,3355994,-8788.47,443.89,3037.46
1337,1.336999,1742,3356993,-4618.47,-234.11,3683.46
1338,1.337999,1743,3357993,2272.53,-748.11,3771.46
1339,1.338999,1744,3358993,5066.53,-1066.11,3945.46
1340,1.339999,1745,3359993,-318.47,-450.11,1719.46
1341,1.341000,1746,3360994,-6389.47,-326.11,1038.46
1342,1.342000,1747,3361994,-18897.47,-1017.11,2693.46
1343,1.343000,1748,3362994,-26121.47,-1087.11,2758.46
1344,1.344000,1749,3363994,-23275.47,174.89,1244.46
1345,1.345000,1750,3364994,-14111.47,571.89,1705.46
1346,1.346000,1751,3365994,846.53,187.89,4190.46
1347,1.347000,1752,3366994,8429.53,-239.11,3728.46
1348,1.348000,1753,3367994,9836.53,287.89,1413.46
1349,1.349000,1754,3368994,4769.53,1065.89,-1180.54
1350,1.350000,1755,3369994,4095.53,1082.89,-3215.54
1351,1.351000,1756,3370994,6518.53,1245.89,-4023.54
1352,1.352000,1757,3371994,7232.53,118.89,-3851.54
1353,1.353000,1758,3372994,5213.53,-864.11,-3383.54
1354,1.354000,1759,3373994,-2116.47,-348.11,-3766.54
1355,1.355000,1760,3374994,899.53,177.89,-4446.54
1356,1.356000,1761,3375994,8423.53,460.89,-6384.54
1357,1.357000,1762,3376994,15517.53,-222.11,-4188.54
1358,1.358000,1763,3377994,19104.53,-416.11,58.460000000000036
1359,1.359000,1764,3378994,9161.53,423.89,-338.53999999999996
1360,1.360000,1765,3379994,-3235.47,863.89,-256.53999999999996
1361,1.361000,1766,3380994,-8510.47,615.89,2487.46
1362,1.361999,1767,3381993,-5616.47,-109.11,3636.46
1363,1.363000,1768,3382994,956.53,-759.11,3761.46
1364,1.364000,1769,3383994,5631.53,-1066.11,4301.46
1365,1.365000,1770,3384994,1367.53,-481.11,2359.46
1366,1.366000,1771,3385994,-4897.47,-254.11,901.46
1367,1.367000,1772,3386994,-17160.47,-809.11,2438.46
1368,1.368000,1773,3387994,-26762.47,-1270.11,2735.46
1369,1.369000,1774,3388994,-23353.47,-172.11,1369.46
1370,1.370000,1775,3389994,-16157.47,511.89,1479.46
1371,1.371000,1776,3390994,-1609.47,244.89,3718.46
1372,1.371999,1777,3391993,7731.53,-132.11,3788.46
1373,1.372999,1778,3392993,9272.53,103.89,1767.46
1374,1.373999,1779,3393993,6083.53,850.89,-478.53999999999996
1375,1.375000,1780,3394994,4065.53,1049.89,-2739.54
1376,1.376000,1781,3395994,5895.53,1347.89,-3859.54
1377,1.376999,1782,3396993,7198.53,484.89,-3982.54
1378,1.377999,1783,3397993,6079.53,-808.11,-3352.54
1379,1.379000,1784,3398994,-1699.47,-575.11,-3618.54
1380,1.380000,1785,3399994,251.53,70.89,-4209.54
1381,1.381000,1786,3400994,7274.53,469.89,-6210.54
1382,1.381999,1787,3401993,14045.53,10.89,-5100.54
1383,1.383000,1788,3402994,19658.53,-375.11,-362.53999999999996
1384,1.384000,1789,3403994,11584.53,203.89,-126.53999999999996
1385,1.385000,1790,3404994,-956.47,876.89,-671.54
1386,1.386000,1791,3405994,-8455.47,767.89,2113.46
1387,1.387000,1792,3406994,-6828.47,-73.11,3699.46
1388,1.388000,1793,3407994,-223.47,-627.11,3698.46
1389,1.389000,1794,3408994,5129.53,-1092.11,4215.46
1390,1.390000,1795,3409994,2586.53,-637.11,2623.46
1391,1.390999,1796,3410993,-4142.47,-53.11,626.46
1392,1.392000,1797,3411994,-14384.47,-643.11,2168.46
1393,1.393000,1798,3412994,-25986.47,-1454.11,3168.46
1394,1.394000,1799,3413994,-23661.47,-371.11,1735.46
1395,1.395000,1800,3414994,-17493.47,583.89,1205.46
1396,1.396000,1801,3415994,-4717.47,319.89,3487.46
1397,1.397000,1802,3416994,6350.53,39.89,4118.46
1398,1.398000,1803,3417994,9146.53,31.89,2210.46
1399,1.398999,1804,3418993,7049.53,668.89,-66.53999999999996
1400,1.399999,1805,3419993,4020.53,1006.89,-2549.54
1401,1.401000,1806,3420994,5565.53,1299.89,-3727.54
1402,1.402000,1807,3421994,7084.53,655.89,-4074.54
1403,1.403000,1808,3422994,6654.53,-696.11,-3541.54
1404,1.403999,1809,3423993,-200.47,-758.11,-3512.54
1405,1.405000,1810,3424994,-782.47,96.89,-4075.54
1406,1.405999,1811,3425993,5579.53,459.89,-5888.54
1407,1.407000,1812,3426994,13037.53,18.89,-5609.54
1408,1.408000,1813,3427994,19025.53,-351.11,-1102.54
1409,1.409000,1814,3428994,13956.53,59.89,62.460000000000036
1410,1.410000,1815,3429994,1191.53,782.89,-812.54
1411,1.411000,1816,3430994,-8232.47,823.89,1647.46
1412,1.412000,1817,3431994,-7558.47,90.89,3532.46
1413,1.413000,1818,3432994,-992.47,-465.11,3494.46
1414,1.414000,1819,3433994,4691.53,-1017.11,4253.46
1415,1.415000,1820,3434994,4019.53,-800.11,3415.46
1416,1.416000,1821,3435994,-3507.47,-20.11,890.46
1417,1.417000,1822,3436994,-11670.47,-573.11,1905.46
1418,1.418000,1823,3437994,-24361.47,-1499.11,3227.46
1419,1.419000,1824,3438994,-25038.47,-558.11,1868.46
1420,1.420000,1825,3439994,-19272.47,380.89,1008.46
1421,1.421000,1826,3440994,-7283.47,293.89,2950.46
1422,1.422000,1827,3441994,4733.53,216.89,4021.46
1423,1.422999,1828,3442993,8765.53,-152.11,2533.46
1424,1.424000,1829,3443994,8619.53,391.89,561.46
1425,1.425000,1830,3444994,3580.53,1116.89,-2191.54
1426,1.425999,1831,3445993,5144.53,1367.89,-3672.54
1427,1.427000,1832,3446994,7174.53,792.89,-4008.54
1428,1.428000,1833,3447994,7053.53,-520.11,-3606.54
1429,1.428999,1834,3448993,1998.53,-698.11,-3535.54
1430,1.430000,1835,3449994,-1787.47,-13.11,-4030.54
1431,1.431000,1836,3450994,3572.53,391.89,-5485.54
1432,1.432000,1837,3451994,11666.53,130.89,-6063.54
1433,1.432999,1838,3452993,18237.53,-383.11,-1894.54
1434,1.433999,1839,3453993,16538.53,-81.11,358.46000000000004
1435,1.434999,1840,3454993,3661.53,745.89,-797.54
1436,1.435999,1841,3455993,-7486.47,959.89,1021.46
1437,1.437000,1842,3456994,-8136.47,154.89,3350.46
1438,1.438000,1843,3457994,-2566.47,-385.11,3542.46
1439,1.439000,1844,3458994,3673.53,-829.11,4017.46
1440,1.439999,1845,3459993,4740.53,-917.11,3573.46
1441,1.441000,1846,3460994,-2661.47,-198.11,1075.46
1442,1.442000,1847,3461994,-9566.47,-394.11,1420.46
1443,1.443000,1848,3462994,-21295.47,-1496.11,3250.46
1444,1.444000,1849,3463994,-25786.47,-749.11,2413.46
1445,1.445000,1850,3464994,-21665.47,546.89,943.46
1446,1.446000,1851,3465994,-10082.47,306.89,2493.46
1447,1.446999,1852,3466993,3067.53,193.89,4219.46
1448,1.448000,1853,3467994,8981.53,-190.11,3042.46
1449,1.448999,1854,3468993,9710.53,313.89,831.46
1450,1.450000,1855,3469994,3921.53,1123.89,-1864.54
1451,1.451000,1856,3470994,4442.53,1239.89,-3470.54
1452,1.452000,1857,3471994,7151.53,970.89,-4155.54
1453,1.453000,1858,3472994,7340.53,-264.11,-3699.54
1454,1.454000,1859,3473994,3018.53,-771.11,-3447.54
1455,1.454999,1860,3474993,-2064.47,-80.11,-3931.54
1456,1.455999,1861,3475993,2315.53,408.89,-5006.54
1457,1.457000,1862,3476994,10386.53,149.89,-6230.54
1458,1.457999,1863,3477993,17611.53,-379.11,-2650.54
1459,1.459000,1864,3478994,17748.53,-195.11,380.46000000000004
1460,1.460000,1865,3479994,5684.53,567.89,-864.54
1461,1.461000,1866,3480994,-6192.47,913.89,408.46000000000004
1462,1.461999,1867,3481993,-8460.47,320.89,3264.46
1463,1.463000,1868,3482994,-3603.47,-177.11,3530.46
1464,1.464000,1869,3483994,3054.53,-780.11,3904.46
1465,1.465000,1870,3484994,5250.53,-1073.11,3946.46
1466,1.465999,1871,3485993,-1074.47,-291.11,1468.46
1467,1.467000,1872,3486994,-7970.47,-381.11,1373.46
1468,1.468000,1873,3487994,-19927.47,-1315.11,3061.46
1469,1.469000,1874,3488994,-26042.47,-882.11,2431.46
1470,1.470000,1875,3489994,-23062.47,372.89,959.46
1471,1.471000,1876,3490994,-12557.47,405.89,2109.46
1472,1.472000,1877,3491994,1754.53,196.89,4102.46
1473,1.473000,1878,3492994,8915.53,-221.11,3415.46
1474,1.473999,1879,3493993,9800.53,209.89,1338.46
1475,1.475000,1880,3494994,4310.53,1078.89,-1357.54
1476,1.476000,1881,3495994,4046.53,1211.89,-3298.54
1477,1.477000,1882,3496994,6670.53,1098.89,-4144.54
1478,1.478000,1883,3497994,7519.53,17.89,-3840.54
1479,1.479000,1884,3498994,4641.53,-786.11,-3430.54
1480,1.480000,1885,3499994,-2002.47,-267.11,-3897.54
1481,1.481000,1886,3500994,1328.53,238.89,-4666.54
1482,1.481999,1887,3501993,9151.53,313.89,-6329.54
1483,1.483000,1888,3502994,16297.53,-238.11,-3742.54
1484,1.484000,1889,3503994,18758.53,-331.11,250.46000000000004
1485,1.485000,1890,3504994,8102.53,490.89,-314.53999999999996
1486,1.486000,1891,3505994,-4193.47,967.89,-44.539999999999964
1487,1.487000,1892,3506994,-8774.47,533.89,2668.46
1488,1.487999,1893,3507993,-4957.47,-228.11,3729.46
1489,1.489000,1894,3508994,1571.53,-812.11,3833.46
1490,1.489999,1895,3509993,5217.53,-1020.11,4020.46
1491,1.491000,1896,3510994,376.53,-446.11,2028.46
1492,1.492000,1897,3511994,-5927.47,-329.11,1040.46
1493,1.493000,1898,3512994,-18259.47,-907.11,2584.46
1494,1.494000,1899,3513994,-26192.47,-1224.11,2773.46
1495,1.495000,1900,3514994,-23275.47,21.89,1257.46
1496,1.496000,1901,3515994,-15293.47,617.89,1679.46
1497,1.497000,1902,3516994,-333.47,180.89,3979.46
1498,1.498000,1903,3517994,8394.53,-190.11,3601.46
1499,1.498999,1904,3518993,10034.53,183.89,1545.46
1500,1.500000,1905,3519994,5301.53,887.89,-892.54
1501,1.500999,1906,3520993,4309.53,1033.89,-2889.54
1502,1.501999,1907,3521993,5925.53,1288.89,-3989.54
1503,1.502999,1908,3522993,7354.53,291.89,-4095.54
1504,1.504000,1909,3523994,5517.53,-867.11,-3393.54
1505,1.505000,1910,3524994,-2144.47,-458.11,-3754.54
1506,1.505999,1911,3525993,1301.53,139.89,-4264.54
1507,1.507000,1912,3526994,7925.53,411.89,-6165.54
1508,1.508000,1913,3527994,14873.53,-179.11,-4547.54
1509,1.509000,1914,3528994,18853.53,-336.11,-242.53999999999996
1510,1.510000,1915,3529994,9772.53,320.89,-266.53999999999996
1511,1.510999,1916,3530993,-2359.47,775.89,-458.53999999999996
1512,1.512000,1917,3531994,-8258.47,700.89,2287.46
1513,1.513000,1918,3532994,-6075.47,-86.11,3785.46
1514,1.514000,1919,3533994,706.53,-732.11,3734.46
1515,1.515000,1920,3534994,5524.53,-1088.11,4255.46
1516,1.516000,1921,3535994,1520.53,-527.11,2475.46
1517,1.517000,1922,3536994,-4354.47,-202.11,933.46
1518,1.518000,1923,3537994,-16584.47,-760.11,2438.46
1519,1.519000,1924,3538994,-26390.47,-1254.11,2811.46
1520,1.520000,1925,3539994,-23390.47,-142.11,1405.46
1521,1.521000,1926,3540994,-16807.47,518.89,1351.46
1522,1.522000,1927,3541994,-2500.47,222.89,3727.46
1523,1.522999,1928,3542993,7324.53,-81.11,3910.46
1524,1.524000,1929,3543994,9401.53,46.89,1948.46
1525,1.525000,1930,3544994,6336.53,776.89,-331.53999999999996
1526,1.526000,1931,3545994,3809.53,1087.89,-2815.54
1527,1.527000,1932,3546994,5486.53,1329.89,-3876.54
1528,1.527999,1933,3547993,7253.53,463.89,-3990.54
1529,1.529000,1934,3548994,6431.53,-771.11,-3511.54
1530,1.530000,1935,3549994,-575.47,-600.11,-3626.54
1531,1.530999,1936,3550993,-36.47,45.89,-4151.54
1532,1.532000,1937,3551994,6517.53,413.89,-6095.54
1533,1.533000,1938,3552994,13342.53,155.89,-5341.54
1534,1.534000,1939,3553994,18502.53,-348.11,-816.54
1535,1.535000,1940,3554994,13045.53,124.89,146.46000000000004
1536,1.535999,1941,3555993,203.53,828.89,-393.53999999999996
1537,1.536999,1942,3556993,-8347.47,807.89,1844.46
1538,1.538000,1943,3557994,-6827.47,-26.11,3655.46
1539,1.538999,1944,3558993,-945.47,-579.11,3744.46
1540,1.539999,1945,3559993,4414.53,-940.11,4123.46
1541,1.541000,1946,3560994,3358.53,-709.11,3001.46
1542,1.542000,1947,3561994,-3710.47,-110.11,904.46
1543,1.543000,1948,3562994,-13233.47,-587.11,2009.46
1544,1.544000,1949,3563994,-25525.47,-1453.11,3085.46
1545,1.545000,1950,3564994,-24624.47,-475.11,1741.46
1546,1.546000,1951,3565994,-17917.47,458.89,1232.46
1547,1.547000,1952,3566994,-5802.47,324.89,3350.46
1548,1.548000,1953,3567994,5848.53,109.89,3899.46
1549,1.549000,1954,3568994,9201.53,-112.11,2130.46
1550,1.550000,1955,3569994,8012.53,522.89,75.46000000000004
1551,1.551000,1956,3570994,3919.53,1033.89,-2348.54
1552,1.552000,1957,3571994,5106.53,1374.89,-3756.54
1553,1.553000,1958,3572994,7347.53,736.89,-4089.54
1554,1.554000,1959,3573994,6570.53,-604.11,-3485.54
1555,1.555000,1960,3574994,885.53,-709.11,-3483.54
1556,1.556000,1961,3575994,-899.47,-3.1099999999999994,-4014.54
1557,1.556999,1962,3576993,4778.53,399.89,-5682.54
1558,1.557999,1963,3577993,12331.53,99.89,-5752.54
1559,1.559000,1964,3578994,18378.53,-405.11,-1402.54
1560,1.560000,1965,3579994,14809.53,21.89,217.46000000000004
1561,1.561000,1966,3580994,1946.53,764.89,-907.54
1562,1.561999,1967,3581993,-7798.47,820.89,1393.46
1563,1.562999,1968,3582993,-7638.47,76.89,3614.46
1564,1.564000,1969,3583994,-1548.47,-380.11,3554.46
1565,1.565000,1970,3584994,4291.53,-868.11,4187.46
1566,1.566000,1971,3585994,4175.53,-895.11,3434.46
1567,1.567000,1972,3586994,-2826.47,-120.11,928.46
1568,1.568000,1973,3587994,-11026.47,-444.11,1707.46
1569,1.569000,1974,3588994,-23976.47,-1465.11,3231.46
1570,1.570000,1975,3589994,-25464.47,-585.11,2027.46
1571,1.570999,1976,3590993,-19952.47,494.89,925.46
1572,1.572000,1977,3591994,-7707.47,224.89,2911.46
1573,1.573000,1978,3592994,4451.53,152.89,4104.46
1574,1.573999,1979,3593993,8907.53,-114.11,2712.46
1575,1.574999,1980,3594993,8779.53,363.89,681.46
1576,1.576000,1981,3595994,3450.53,1129.89,-2164.54
1577,1.577000,1982,3596994,4764.53,1354.89,-3751.54
1578,1.578000,1983,3597994,7267.53,775.89,-4068.54
1579,1.579000,1984,3598994,7290.53,-468.11,-3511.54
1580,1.580000,1985,3599994,2474.53,-718.11,-3453.54
1581,1.581000,1986,3600994,-1625.47,-14.11,-3986.54
1582,1.582000,1987,3601994,2974.53,422.89,-5371.54
1583,1.583000,1988,3602994,11335.53,147.89,-6092.54
1584,1.584000,1989,3603994,17999.53,-399.11,-2199.54
1585,1.585000,1990,3604994,16698.53,-67.11,355.46000000000004
1586,1.586000,1991,3605994,4426.53,637.89,-617.54
1587,1.587000,1992,3606994,-7101.47,928.89,839.46
1588,1.588000,1993,3607994,-8206.47,258.89,3393.46
1589,1.589000,1994,3608994,-3017.47,-419.11,3668.46
1590,1.590000,1995,3609994,3291.53,-805.11,3946.46
1591,1.591000,1996,3610994,4752.53,-928.11,3611.46
1592,1.592000,1997,3611994,-2016.47,-291.11,1207.46
1593,1.593000,1998,3612994,-8625.47,-353.11,1465.46
1594,1.594000,1999,3613994,-20935.47,-1460.11,3212.46
1595,1.595000,2000,3614994,-25909.47,-866.11,2446.46
1596,1.596000,2001,3615994,-22268.47,529.89,807.46
1597,1.597000,2002,3616994,-10828.47,339.89,2374.46
1598,1.598000,2003,3617994,2574.53,160.89,4182.46
1599,1.599000,2004,3618994,9106.53,-193.11,3005.46
1600,1.600000,2005,3619994,10096.53,295.89,955.46
1601,1.601000,2006,3620994,3842.53,1059.89,-1749.54
1602,1.602000,2007,3621994,4383.53,1249.89,-3452.54
1603,1.602999,2008,3622993,6785.53,1032.89,-4203.54
1604,1.604000,2009,3623994,7389.53,-182.11,-3723.54
1605,1.605000,2010,3624994,3876.53,-803.11,-3304.54
1606,1.606000,2011,3625994,-1766.47,-132.11,-3835.54
1607,1.607000,2012,3626994,2090.53,391.89,-4854.54
1608,1.608000,2013,3627994,9542.53,173.89,-6274.54
1609,1.608999,2014,3628993,16881.53,-347.11,-3030.54
1610,1.609999,2015,3629993,17892.53,-253.11,347.46000000000004
1611,1.611000,2016,3630994,6421.53,528.89,-705.54
1612,1.612000,2017,3631994,-5395.47,945.89,235.46000000000004
1613,1.613000,2018,3632994,-8553.47,438.89,3065.46
1614,1.614000,2019,3633994,-4162.47,-234.11,3714.46
1615,1.615000,2020,3634994,2663.53,-800.11,3917.46
1616,1.616000,2021,3635994,5360.53,-1040.11,3974.46
1617,1.617000,2022,3636994,-700.47,-395.11,1697.46
1618,1.617999,2023,3637993,-7236.47,-352.11,1209.46
1619,1.618999,2024,3638993,-19394.47,-1141.11,2849.46
1620,1.620000,2025,3639994,-26129.47,-1007.11,2589.46
1621,1.621000,2026,3640994,-23268.47,321.89,1066.46
1622,1.622000,2027,3641994,-13282.47,516.89,1938.46
1623,1.622999,2028,3642993,1349.53,144.89,4144.46
1624,1.624000,2029,3643994,8714.53,-212.11,3490.46
1625,1.625000,2030,3644994,9948.53,229.89,1351.46
1626,1.625999,2031,3645993,4362.53,1029.89,-1289.54
1627,1.627000,2032,3646994,4064.53,1162.89,-3186.54
1628,1.627999,2033,3647993,6388.53,1171.89,-4098.54
1629,1.629000,2034,3648994,7471.53,37.89,-3888.54
1630,1.630000,2035,3649994,5003.53,-790.11,-3384.54
1631,1.630999,2036,3650993,-1781.47,-326.11,-3836.54
1632,1.632000,2037,3651994,1491.53,178.89,-4513.54
1633,1.633000,2038,3652994,8630.53,355.89,-6333.54
1634,1.634000,2039,3653994,15706.53,-219.11,-4095.54
1635,1.635000,2040,3654994,18673.53,-322.11,33.460000000000036
1636,1.636000,2041,3655994,8631.53,408.89,-272.53999999999996
1637,1.637000,2042,3656994,-3535.47,906.89,-152.53999999999996
1638,1.637999,2043,3657993,-8365.47,600.89,2585.46
1639,1.639000,2044,3658994,-5590.47,-169.11,3784.46
1640,1.640000,2045,3659994,958.53,-734.11,3810.46
1641,1.641000,2046,3660994,5350.53,-1027.11,4110.46
1642,1.642000,2047,3661994,802.53,-503.11,2188.46
1643,1.643000,2048,3662994,-4952.47,-249.11,1061.46
1644,1.644000,2049,3663994,-17719.47,-821.11,2564.46
1645,1.645000,2050,3664994,-26547.47,-1293.11,2831.46
1646,1.646000,2051,3665994,-23313.47,-60.11,1378.46
1647,1.647000,2052,3666994,-15888.47,621.89,1568.46
1648,1.648000,2053,3667994,-1146.47,231.89,3818.46
1649,1.649000,2054,3668994,8183.53,-167.11,3631.46
1650,1.650000,2055,3669994,9769.53,101.89,1556.46
1651,1.651000,2056,3670994,5664.53,830.89,-854.54
1652,1.652000,2057,3671994,4540.53,1021.89,-2843.54
1653,1.653000,2058,3672994,5610.53,1285.89,-3967.54
1654,1.654000,2059,3673994,7212.53,354.89,-4086.54
1655,1.655000,2060,3674994,5737.53,-802.11,-3392.54
1656,1.656000,2061,3675994,-1793.47,-499.11,-3681.54
1657,1.657000,2062,3676994,1276.53,154.89,-4212.54
1658,1.658000,2063,3677994,7993.53,454.89,-6135.54
1659,1.659000,2064,3678994,14490.53,-90.11,-4674.54
1660,1.660000,2065,3679994,18777.53,-359.11,-301.53999999999996
1661,1.660999,2066,3680993,10241.53,268.89,-194.53999999999996
1662,1.662000,2067,3681994,-2017.47,887.89,-501.53999999999996
1663,1.663000,2068,3682994,-8477.47,667.89,2240.46
1664,1.664000,2069,3683994,-6144.47,-83.11,3746.46
1665,1.665000,2070,3684994,323.53,-660.11,3665.46
1666,1.666000,2071,3685994,5252.53,-1083.11,4185.46
1667,1.667000,2072,3686994,2421.53,-640.11,2679.46
1668,1.668000,2073,3687994,-4287.47,-166.11,834.46
1669,1.669000,2074,3688994,-15776.47,-628.11,2192.46
1670,1.670000,2075,3689994,-26472.47,-1363.11,2935.46
1671,1.671000,2076,3690994,-23672.47,-291.11,1581.46
1672,1.672000,2077,3691994,-16658.47,514.89,1464.46
1673,1.673000,2078,3692994,-3291.47,264.89,3590.46
1674,1.674000,2079,3693994,7028.53,-21.11,3811.46
1675,1.674999,2080,3694993,9243.53,4.890000000000001,2030.46
1676,1.675999,2081,3695993,6418.53,687.89,-264.53999999999996
1677,1.676999,2082,3696993,3925.53,1051.89,-2755.54
1678,1.678000,2083,3697994,5417.53,1332.89,-3869.54
1679,1.678999,2084,3698993,7333.53,538.89,-3978.54
1680,1.680000,2085,3699994,6544.53,-813.11,-3340.54
1681,1.681000,2086,3700994,-429.47,-683.11,-3605.54
1682,1.682000,2087,3701994,-469.47,116.89,-4258.54
1683,1.682999,2088,3702993,6115.53,375.89,-5825.54
1684,1.684000,2089,3703994,13278.53,8.89,-5283.54
1685,1.685000,2090,3704994,18536.53,-298.11,-1076.54
1686,1.686000,2091,3705994,13609.53,55.89,78.46000000000004
1687,1.687000,2092,3706994,570.53,760.89,-595.54
1688,1.687999,2093,3707993,-8336.47,814.89,1701.46
1689,1.689000,2094,3708994,-7197.47,-29.11,3600.46
1690,1.689999,2095,3709993,-1352.47,-578.11,3609.46
1691,1.691000,2096,3710994,4589.53,-943.11,4204.46
1692,1.692000,2097,3711994,3538.53,-722.11,3081.46
1693,1.693000,2098,3712994,-3206.47,-80.11,902.46
1694,1.693999,2099,3713993,-12216.47,-486.11,2031.46
1695,1.695000,2100,3714994,-24874.47,-1461.11,3220.46
1696,1.696000,2101,3715994,-24753.47,-569.11,1971.46
1697,1.697000,2102,3716994,-19010.47,486.89,1075.46
1698,1.698000,2103,3717994,-6329.47,339.89,3112.46
1699,1.699000,2104,3718994,5260.53,94.89,3950.46
1700,1.700000,2105,3719994,9185.53,-143.11,2240.46
1701,1.701000,2106,3720994,8369.53,474.89,168.46000000000004
1702,1.702000,2107,3721994,3499.53,1063.89,-2391.54
1703,1.703000,2108,3722994,5154.53,1260.89,-3663.54
1704,1.704000,2109,3723994,6988.53,789.89,-4112.54
1705,1.705000,2110,3724994,6875.53,-504.11,-3511.54
1706,1.706000,2111,3725994,1266.53,-780.11,-3352.54
1707,1.706999,2112,3726993,-1133.47,84.89,-4023.54
1708,1.708000,2113,3727994,4597.53,495.89,-5497.54
1709,1.709000,2114,3728994,12003.53,6.890000000000001,-5663.54
1710,1.710000,2115,3729994,18284.53,-375.11,-1593.54
1711,1.710999,2116,3730993,15407.53,42.89,217.46000000000004
1712,1.712000,2117,3731994,2798.53,726.89,-764.54
1713,1.712999,2118,3732993,-7741.47,908.89,1177.46
1714,1.714000,2119,3733994,-7840.47,145.89,3437.46
1715,1.715000,2120,3734994,-1978.47,-445.11,3532.46
1716,1.716000,2121,3735994,3969.53,-943.11,4040.46
1717,1.717000,2122,3736994,4647.53,-861.11,3483.46
1718,1.718000,2123,3737994,-2756.47,-183.11,1042.46
1719,1.719000,2124,3738994,-10339.47,-431.11,1572.46
1720,1.720000,2125,3739994,-22683.47,-1455.11,3139.46
1721,1.721000,2126,3740994,-25658.47,-666.11,2134.46
1722,1.721999,2127,3741993,-20748.47,468.89,1073.46
1723,1.723000,2128,3742994,-8918.47,314.89,2693.46
1724,1.724000,2129,3743994,4257.53,247.89,4004.46
1725,1.724999,2130,3744993,8786.53,-246.11,2841.46
1726,1.725999,2131,3745993,9070.53,330.89,718.46
1727,1.726999,2132,3746993,3667.53,1145.89,-1959.54
1728,1.728000,2133,3747994,4307.53,1309.89,-3672.54
1729,1.729000,2134,3748994,7549.53,882.89,-4116.54
1730,1.730000,2135,3749994,7234.53,-413.11,-3538.54
1731,1.731000,2136,3750994,3032.53,-721.11,-3464.54
1732,1.732000,2137,3751994,-1721.47,-20.11,-4064.54
1733,1.733000,2138,3752994,2010.53,385.89,-5207.54
1734,1.734000,2139,3753994,10708.53,209.89,-6010.54
1735,1.734999,2140,3754993,17898.53,-473.11,-2457.54
1736,1.735999,2141,3755993,17322.53,-112.11,245.46000000000004
1737,1.737000,2142,3756994,5208.53,653.89,-668.54
1738,1.738000,2143,3757994,-6212.47,821.89,816.46
1739,1.739000,2144,3758994,-8680.47,344.89,3179.46
1740,1.740000,2145,3759994,-3816.47,-298.11,3459.46
1741,1.740999,2146,3760993,3081.53,-854.11,4033.46
1742,1.742000,2147,3761994,5027.53,-950.11,3789.46
1743,1.742999,2148,3762993,-1095.47,-306.11,1498.46
1744,1.744000,2149,3763994,-8237.47,-339.11,1443.46
1745,1.745000,2150,3764994,-20013.47,-1278.11,3017.46
1746,1.746000,2151,3765994,-25806.47,-966.11,2644.46
1747,1.746999,2152,3766993,-23259.47,421.89,932.46
1748,1.748000,2153,3767994,-11907.47,461.89,2163.46
1749,1.748999,2154,3768993,2114.53,138.89,4071.46
1750,1.750000,2155,3769994,9214.53,-241.11,3008.46
1751,1.751000,2156,3770994,10152.53,270.89,1054.46
1752,1.751999,2157,3771993,3889.53,1044.89,-1657.54
1753,1.753000,2158,3772994,4308.53,1263.89,-3354.54
1754,1.754000,2159,3773994,6538.53,1097.89,-4066.54
1755,1.755000,2160,3774994,7497.53,-110.11,-3745.54
1756,1.756000,2161,3775994,4427.53,-783.11,-3280.54
1757,1.757000,2162,3776994,-1819.47,-162.11,-3879.54
1758,1.758000,2163,3777994,1988.53,350.89,-4777.54
1759,1.759000,2164,3778994,9111.53,259.89,-6183.54
1760,1.760000,2165,3779994,16600.53,-316.11,-3292.54
1761,1.761000,2166,3780994,18164.53,-303.11,182.46000000000004
1762,1.762000,2167,3781994,7047.53,513.89,-651.54
1763,1.763000,2168,3782994,-4663.47,954.89,241.46000000000004
1764,1.764000,2169,3783994,-8508.47,485.89,3005.46
1765,1.764999,2170,3784993,-4540.47,-207.11,3624.46
1766,1.765999,2171,3785993,1812.53,-717.11,3755.46
1767,1.767000,2172,3786994,5534.53,-1069.11,4083.46
1768,1.768000,2173,3787994,48.53,-503.11,1930.46
1769,1.769000,2174,3788994,-6548.47,-298.11,1039.46
1770,1.770000,2175,3789994,-18925.47,-998.11,2640.46
1771,1.771000,2176,3790994,-26257.47,-1110.11,2626.46
1772,1.772000,2177,3791994,-22985.47,145.89,1317.46
1773,1.773000,2178,3792994,-14570.47,594.89,1698.46
1774,1.773999,2179,3793993,730.53,212.89,3832.46
1775,1.775000,2180,3794994,8770.53,-328.11,3664.46
1776,1.776000,2181,3795994,9800.53,128.89,1481.46
1777,1.777000,2182,3796994,4839.53,1057.89,-1125.54
1778,1.778000,2183,3797994,3903.53,1202.89,-3242.54
1779,1.779000,2184,3798994,6375.53,1234.89,-4083.54
1780,1.780000,2185,3799994,7210.53,130.89,-3821.54
1781,1.781000,2186,3800994,5444.53,-849.11,-3237.54
1782,1.782000,2187,3801994,-1956.47,-360.11,-3781.54
1783,1.783000,2188,3802994,1250.53,167.89,-4452.54
1784,1.784000,2189,3803994,8363.53,400.89,-6155.54
1785,1.785000,2190,3804994,14933.53,-153.11,-4335.54
1786,1.785999,2191,3805993,19143.53,-354.11,-121.53999999999996
1787,1.787000,2192,3806994,9320.53,359.89,-319.53999999999996
1788,1.788000,2193,3807994,-3083.47,845.89,-185.53999999999996
1789,1.788999,2194,3808993,-8546.47,614.89,2584.46
1790,1.790000,2195,3809994,-6034.47,-134.11,3626.46
1791,1.791000,2196,3810994,683.53,-694.11,3677.46
1792,1.792000,2197,3811994,5463.53,-1109.11,4178.46
1793,1.793000,2198,3812994,1641.53,-506.11,2360.46
1794,1.794000,2199,3813994,-4510.47,-176.11,912.46
1795,1.795000,2200,3814994,-16949.47,-744.11,2423.46
1796,1.796000,2201,3815994,-26352.47,-1369.11,3020.46
1797,1.796999,2202,3816993,-23612.47,-165.11,1524.46
1798,1.798000,2203,3817994,-16414.47,635.89,1497.46
1799,1.798999,2204,3818993,-1962.47,235.89,3681.46
1800,1.800000,2205,3819994,8082.53,-149.11,3638.46
1801,1.801000,2206,3820994,9478.53,19.89,1650.46
1802,1.802000,2207,3821994,5772.53,777.89,-676.54
1803,1.802999,2208,3822993,4081.53,1026.89,-2791.54
1804,1.803999,2209,3823993,5378.53,1322.89,-3916.54
1805,1.805000,2210,3824994,7529.53,406.89,-3979.54
1806,1.805999,2211,3825993,6146.53,-820.11,-3308.54
1807,1.807000,2212,3826994,-1382.47,-512.11,-3623.54
1808,1.808000,2213,3827994,447.53,127.89,-4255.54
1809,1.809000,2214,3828994,7145.53,462.89,-6123.54
1810,1.810000,2215,3829994,14138.53,-27.11,-4881.54
1811,1.811000,2216,3830994,18852.53,-414.11,-516.54
1812,1.812000,2217,3831994,11669.53,239.89,-112.53999999999996
1813,1.813000,2218,3832994,-943.47,850.89,-485.53999999999996
1814,1.814000,2219,3833994,-8406.47,731.89,2161.46
1815,1.815000,2220,3834994,-6675.47,-12.11,3732.46
1816,1.816000,2221,3835994,-530.47,-580.11,3579.46
1817,1.817000,2222,3836994,5289.53,-1068.11,4244.46
1818,1.818000,2223,3837994,2900.53,-727.11,2888.46
1819,1.819000,2224,3838994,-3867.47,-118.11,728.46
1820,1.820000,2225,3839994,-14257.47,-619.11,1962.46
1821,1.821000,2226,3840994,-26175.47,-1417.11,2979.46
1822,1.822000,2227,3841994,-24144.47,-428.11,1689.46
1823,1.823000,2228,3842994,-17345.47,469.89,1262.46
1824,1.824000,2229,3843994,-4522.47,281.89,3429.46
1825,1.825000,2230,3844994,6253.53,40.89,3882.46
1826,1.826000,2231,3845994,9323.53,-9.11,2191.46
1827,1.827000,2232,3846994,7030.53,574.89,-9.539999999999964
1828,1.827999,2233,3847993,3734.53,1105.89,-2672.54
1829,1.828999,2234,3848993,5476.53,1340.89,-3811.54
1830,1.830000,2235,3849994,7283.53,593.89,-4009.54
1831,1.831000,2236,3850994,6943.53,-675.11,-3379.54
1832,1.832000,2237,3851994,-134.47,-722.11,-3541.54
1833,1.833000,2238,3852994,-878.47,125.89,-4196.54
1834,1.834000,2239,3853994,5268.53,462.89,-5758.54
1835,1.834999,2240,3854993,12715.53,36.89,-5468.54
1836,1.836000,2241,3855994,18932.53,-367.11,-1105.54
1837,1.837000,2242,3856994,14187.53,60.89,28.460000000000036
1838,1.838000,2243,3857994,1762.53,770.89,-692.54
1839,1.839000,2244,3858994,-8327.47,806.89,1636.46
1840,1.840000,2245,3859994,-7810.47,90.89,3461.46
1841,1.841000,2246,3860994,-1391.47,-490.11,3511.46
1842,1.842000,2247,3861994,4151.53,-979.11,4055.46
1843,1.843000,2248,3862994,4369.53,-781.11,3309.46
1844,1.844000,2249,3863994,-2984.47,-112.11,988.46
1845,1.845000,2250,3864994,-11559.47,-413.11,1749.46
1846,1.846000,2251,3865994,-23759.47,-1461.11,3299.46
1847,1.847000,2252,3866994,-25306.47,-661.11,2075.46
1848,1.848000,2253,3867994,-19546.47,536.89,1044.46
1849,1.849000,2254,3868994,-7427.47,290.89,3056.46
1850,1.850000,2255,3869994,4387.53,200.89,3879.46
1851,1.851000,2256,3870994,9279.53,-126.11,2468.46
1852,1.852000,2257,3871994,8531.53,280.89,488.46000000000004
1853,1.853000,2258,3872994,3630.53,1109.89,-2273.54
1854,1.853999,2259,3873993,4832.53,1372.89,-3699.54
1855,1.855000,2260,3874994,7175.53,783.89,-4098.54
1856,1.855999,2261,3875993,7336.53,-497.11,-3422.54
1857,1.857000,2262,3876994,1877.53,-774.11,-3314.54
1858,1.858000,2263,3877994,-1736.47,-5.109999999999999,-4060.54
1859,1.858999,2264,3878993,3287.53,477.89,-5501.54
1860,1.860000,2265,3879994,11550.53,123.89,-5826.54
1861,1.860999,2266,3880993,18284.53,-417.11,-1867.54
1862,1.862000,2267,3881994,16540.53,-43.11,225.46000000000004
1863,1.862999,2268,3882993,3879.53,694.89,-765.54
1864,1.864000,2269,3883994,-7459.47,931.89,1008.46
1865,1.865000,2270,3884994,-8100.47,230.89,3460.46
1866,1.865999,2271,3885993,-2664.47,-407.11,3529.46
1867,1.867000,2272,3886994,3680.53,-824.11,3997.46
1868,1.868000,2273,3887994,4956.53,-970.11,3728.46
1869,1.869000,2274,3888994,-2313.47,-268.11,1148.46
1870,1.869999,2275,3889993,-9464.47,-319.11,1329.46
1871,1.871000,2276,3890994,-21632.47,-1464.11,3088.46
1872,1.872000,2277,3891994,-25880.47,-784.11,2357.46
1873,1.873000,2278,3892994,-21659.47,487.89,980.46
1874,1.873999,2279,3893993,-9968.47,280.89,2508.46
1875,1.875000,2280,3894994,3154.53,229.89,4006.46
1876,1.876000,2281,3895994,9102.53,-224.11,2963.46
1877,1.877000,2282,3896994,9372.53,245.89,927.46
1878,1.877999,2283,3897993,3704.53,1147.89,-1830.54
1879,1.879000,2284,3898994,4272.53,1284.89,-3537.54
1880,1.880000,2285,3899994,7219.53,1009.89,-4156.54
1881,1.881000,2286,3900994,7922.53,-244.11,-3535.54
1882,1.882000,2287,3901994,3443.53,-845.11,-3326.54
1883,1.883000,2288,3902994,-2042.47,-13.11,-4033.54
1884,1.884000,2289,3903994,1632.53,433.89,-4938.54
1885,1.885000,2290,3904994,9761.53,115.89,-6060.54
1886,1.885999,2291,3905993,17613.53,-315.11,-2886.54
1887,1.887000,2292,3906994,18171.53,-203.11,374.46000000000004
1888,1.887999,2293,3907993,6156.53,470.89,-593.54
1889,1.889000,2294,3908994,-5724.47,929.89,391.46000000000004
1890,1.889999,2295,3909993,-9027.47,345.89,3135.46
1891,1.891000,2296,3910994,-4181.47,-299.11,3614.46
1892,1.892000,2297,3911994,2609.53,-768.11,3820.46
1893,1.893000,2298,3912994,5151.53,-1052.11,3827.46
1894,1.894000,2299,3913994,-289.47,-357.11,1683.46
1895,1.895000,2300,3914994,-7480.47,-346.11,1240.46
1896,1.896000,2301,3915994,-19138.47,-1197.11,2880.46
1897,1.897000,2302,3916994,-25984.47,-1011.11,2625.46
1898,1.898000,2303,3917994,-23623.47,343.89,910.46
1899,1.899000,2304,3918994,-12850.47,452.89,2056.46
1900,1.900000,2305,3919994,1501.53,158.89,4067.46
1901,1.900999,2306,3920993,9138.53,-224.11,3281.46
1902,1.902000,2307,3921994,10014.53,201.89,1225.46
1903,1.903000,2308,3922994,4269.53,1047.89,-1475.54
1904,1.904000,2309,3923994,3919.53,1198.89,-3262.54
1905,1.905000,2310,3924994,6288.53,1217.89,-4111.54
1906,1.906000,2311,3925994,7634.53,58.89,-3771.54
1907,1.906999,2312,3926993,4913.53,-872.11,-3167.54
1908,1.908000,2313,3927994,-1919.47,-239.11,-3818.54
1909,1.909000,2314,3928994,1078.53,263.89,-4703.54
1910,1.910000,2315,3929994,8590.53,306.89,-6238.54
1911,1.911000,2316,3930994,15835.53,-187.11,-3753.54
1912,1.911999,2317,3931993,18779.53,-367.11,120.46000000000004
1913,1.913000,2318,3932994,8397.53,400.89,-534.54
1914,1.914000,2319,3933994,-3922.47,938.89,-123.53999999999996
1915,1.915000,2320,3934994,-8350.47,594.89,2867.46
1916,1.916000,2321,3935994,-5302.47,-178.11,3727.46
1917,1.917000,2322,3936994,1212.53,-732.11,3685.46
1918,1.918000,2323,3937994,5564.53,-1120.11,4233.46
1919,1.919000,2324,3938994,839.53,-530.11,2183.46
1920,1.919999,2325,3939993,-5499.47,-237.11,859.46
1921,1.921000,2326,3940994,-18072.47,-821.11,2430.46
1922,1.922000,2327,3941994,-26283.47,-1276.11,2837.46
1923,1.923000,2328,3942994,-22805.47,-72.11,1507.46
1924,1.924000,2329,3943994,-15494.47,573.89,1587.46
1925,1.925000,2330,3944994,-711.47,200.89,3653.46
1926,1.925999,2331,3945993,8140.53,-229.11,3672.46
1927,1.927000,2332,3946994,9410.53,56.89,1668.46
1928,1.928000,2333,3947994,5402.53,941.89,-896.54
1929,1.929000,2334,3948994,3774.53,1139.89,-3124.54
1930,1.930000,2335,3949994,6110.53,1281.89,-3996.54
1931,1.930999,2336,3950993,7542.53,282.89,-3795.54
1932,1.931999,2337,3951993,5799.53,-835.11,-3250.54
1933,1.933000,2338,3952994,-1532.47,-442.11,-3681.54
1934,1.934000,2339,3953994,368.53,193.89,-4274.54
1935,1.935000,2340,3954994,7591.53,465.89,-6035.54
1936,1.936000,2341,3955994,14437.53,4.890000000000001,-4711.54
1937,1.936999,2342,3956993,19041.53,-352.11,-373.53999999999996
1938,1.938000,2343,3957994,10857.53,236.89,-103.53999999999996
1939,1.939000,2344,3958994,-1851.47,819.89,-318.53999999999996
1940,1.940000,2345,3959994,-8616.47,682.89,2358.46
1941,1.941000,2346,3960994,-6706.47,-65.11,3613.46
1942,1.942000,2347,3961994,-105.47,-673.11,3575.46
1943,1.942999,2348,3962993,5194.53,-1095.11,4149.46
1944,1.944000,2349,3963994,2902.53,-635.11,2736.46
1945,1.945000,2350,3964994,-3836.47,-131.11,831.46
1946,1.946000,2351,3965994,-15251.47,-625.11,2014.46
1947,1.947000,2352,3966994,-26316.47,-1417.11,3037.46
1948,1.947999,2353,3967993,-23665.47,-405.11,1676.46
1949,1.949000,2354,3968994,-16735.47,529.89,1340.46
1950,1.949999,2355,3969993,-3748.47,329.89,3425.46
1951,1.951000,2356,3970994,7028.53,-23.11,3667.46
1952,1.952000,2357,3971994,9138.53,-26.11,1943.46
1953,1.953000,2358,3972994,6563.53,706.89,-322.53999999999996
1954,1.954000,2359,3973994,3571.53,1042.89,-2692.54
1955,1.954999,2360,3974993,5389.53,1366.89,-3749.54
1956,1.956000,2361,3975994,7461.53,584.89,-3958.54
1957,1.957000,2362,3976994,6712.53,-755.11,-3182.54
1958,1.957999,2363,3977993,-463.47,-655.11,-3328.54
1959,1.958999,2364,3978993,-721.47,142.89,-4201.54
1960,1.960000,2365,3979994,5730.53,467.89,-5901.54
1961,1.961000,2366,3980994,12965.53,37.89,-5236.54
1962,1.962000,2367,3981994,19069.53,-376.11,-913.54
1963,1.962999,2368,3982993,13511.53,64.89,-102.53999999999996
1964,1.964000,2369,3983994,673.53,809.89,-810.54
1965,1.965000,2370,3984994,-8180.47,837.89,1883.46
1966,1.965999,2371,3985993,-7606.47,65.89,3629.46
1967,1.967000,2372,3986994,-1073.47,-570.11,3487.46
1968,1.967999,2373,3987993,4585.53,-1063.11,4136.46
1969,1.969000,2374,3988994,3977.53,-748.11,3206.46
1970,1.970000,2375,3989994,-3070.47,-128.11,1008.46
1971,1.971000,2376,3990994,-12320.47,-467.11,1665.46
1972,1.971999,2377,3991993,-24149.47,-1388.11,3039.46
1973,1.973000,2378,3992994,-24736.47,-644.11,1996.46
1974,1.974000,2379,3993994,-18870.47,451.89,1083.46
1975,1.975000,2380,3994994,-6644.47,268.89,3110.46
1976,1.976000,2381,3995994,4932.53,191.89,3849.46
1977,1.977000,2382,3996994,8917.53,-115.11,2388.46
1978,1.978000,2383,3997994,7890.53,401.89,304.46000000000004
1979,1.979000,2384,3998994,3341.53,1149.89,-2430.54
1980,1.979999,2385,3999993,5071.53,1379.89,-3686.54
1981,1.981000,2386,4000994,7509.53,721.89,-3971.54
1982,1.981999,2387,4001993,7211.53,-586.11,-3276.54
1983,1.983000,2388,4002994,1590.53,-771.11,-3252.54
1984,1.984000,2389,4003994,-1739.47,48.89,-4136.54
1985,1.984999,2390,4004993,3414.53,535.89,-5567.54
1986,1.986000,2391,4005994,11733.53,94.89,-5725.54
1987,1.986999,2392,4006993,18587.53,-379.11,-1715.54
1988,1.988000,2393,4007994,16172.53,-22.11,295.46000000000004
1989,1.989000,2394,4008994,3309.53,639.89,-758.54
1990,1.989999,2395,4009993,-7803.47,889.89,1071.46
1991,1.990999,2396,4010993,-8341.47,156.89,3494.46
1992,1.992000,2397,4011994,-2676.47,-455.11,3501.46
1993,1.993000,2398,4012994,3941.53,-867.11,3905.46
1994,1.994000,2399,4013994,5069.53,-957.11,3605.46
1995,1.995000,2400,4014994,-2159.47,-205.11,1106.46
1996,1.996000,2401,4015994,-9329.47,-404.11,1411.46
1997,1.997000,2402,4016994,-22011.47,-1496.11,3191.46
1998,1.998000,2403,4017994,-25733.47,-760.11,2419.46
1999,1.999000,2404,4018994,-21316.47,480.89,973.46
2000,2.000000,2405,4019994,-9509.47,333.89,2493.46
2001,2.001000,2406,4020994,3609.53,243.89,3992.46
2002,2.002000,2407,4021994,8907.53,-222.11,2836.46
2003,2.003000,2408,4022994,9378.53,263.89,887.46
2004,2.004000,2409,4023994,3492.53,1143.89,-1870.54
2005,2.004999,2410,4024993,4203.53,1365.89,-3588.54
2006,2.006000,2411,4025994,7162.53,925.89,-4036.54
2007,2.007000,2412,4026994,7397.53,-363.11,-3470.54
2008,2.008000,2413,4027994,3507.53,-743.11,-3225.54
2009,2.009000,2414,4028994,-1947.47,-22.11,-3965.54
2010,2.010000,2415,4029994,1860.53,418.89,-5125.54
2011,2.011000,2416,4030994,9998.53,180.89,-6048.54
2012,2.011999,2417,4031993,17402.53,-428.11,-2648.54
2013,2.013000,2418,4032994,17730.53,-141.11,194.46000000000004
2014,2.014000,2419,4033994,5705.53,634.89,-806.54
2015,2.015000,2420,4034994,-5872.47,837.89,694.46
2016,2.016000,2421,4035994,-8582.47,343.89,3206.46
2017,2.017000,2422,4036994,-3676.47,-313.11,3443.46
2018,2.018000,2423,4037994,2436.53,-773.11,3767.46
2019,2.019000,2424,4038994,5153.53,-1016.11,3865.46
2020,2.020000,2425,4039994,-790.47,-369.11,1593.46
2021,2.021000,2426,4040994,-7614.47,-317.11,1067.46
2022,2.021999,2427,4041993,-19347.47,-1194.11,2815.46
2023,2.023000,2428,4042994,-25346.47,-1004.11,2726.46
2024,2.023999,2429,4043993,-22499.47,320.89,1180.46
2025,2.025000,2430,4044994,-13161.47,508.89,1851.46
2026,2.026000,2431,4045994,1738.53,162.89,3918.46
2027,2.027000,2432,4046994,8347.53,-282.11,3336.46
2028,2.028000,2433,4047994,9716.53,256.89,1248.46
2029,2.029000,2434,4048994,4107.53,1085.89,-1483.54
2030,2.030000,2435,4049994,3994.53,1154.89,-3366.54
2031,2.031000,2436,4050994,7142.53,1154.89,-3953.54
2032,2.032000,2437,4051994,7259.53,-92.11,-3672.54
2033,2.033000,2438,4052994,4791.53,-805.11,-3261.54
2034,2.034000,2439,4053994,-2300.47,-166.11,-3924.54
2035,2.035000,2440,4054994,967.53,291.89,-4658.54
2036,2.036000,2441,4055994,8849.53,359.89,-6108.54
2037,2.037000,2442,4056994,16374.53,-275.11,-3661.54
2038,2.038000,2443,4057994,19064.53,-248.11,147.46000000000004
2039,2.038999,2444,4058993,8230.53,396.89,-413.53999999999996
2040,2.040000,2445,4059994,-4353.47,894.89,26.460000000000036
2041,2.041000,2446,4060994,-8781.47,617.89,2855.46
2042,2.042000,2447,4061994,-5591.47,-205.11,3684.46
2043,2.043000,2448,4062994,1336.53,-764.11,3714.46
2044,2.044000,2449,4063994,5684.53,-1026.11,4008.46
2045,2.045000,2450,4064994,933.53,-483.11,2042.46
2046,2.045999,2451,4065993,-4963.47,-377.11,1112.46
2047,2.047000,2452,4066994,-17926.47,-866.11,2488.46
2048,2.048000,2453,4067994,-26038.47,-1266.11,2778.46
2049,2.049000,2454,4068994,-23370.47,-62.11,1251.46
2050,2.050000,2455,4069994,-15664.47,586.89,1390.46
2051,2.051000,2456,4070994,-332.47,212.89,3747.46
2052,2.052000,2457,4071994,8047.53,-193.11,3546.46
2053,2.052999,2458,4072993,9858.53,133.89,1597.46
2054,2.054000,2459,4073994,5051.53,934.89,-831.54
2055,2.055000,2460,4074994,3787.53,1109.89,-2933.54
2056,2.056000,2461,4075994,6162.53,1277.89,-3758.54
2057,2.057000,2462,4076994,7243.53,320.89,-3904.54
2058,2.058000,2463,4077994,6168.53,-818.11,-3200.54
2059,2.059000,2464,4078994,-2041.47,-487.11,-3529.54
2060,2.060000,2465,4079994,623.53,211.89,-4350.54
2061,2.061000,2466,4080994,7111.53,546.89,-6326.54
2062,2.061999,2467,4081993,14484.53,-102.11,-4638.54
2063,2.063000,2468,4082994,19345.53,-481.11,-174.53999999999996
2064,2.064000,2469,4083994,10435.53,330.89,-305.53999999999996
2065,2.065000,2470,4084994,-1458.47,889.89,-367.53999999999996
2066,2.066000,2471,4085994,-8462.47,628.89,2337.46
2067,2.067000,2472,4086994,-6405.47,-92.11,3631.46
2068,2.068000,2473,4087994,-255.47,-598.11,3488.46
2069,2.069000,2474,4088994,5271.53,-1129.11,4105.46
2070,2.070000,2475,4089994,2498.53,-657.11,2669.46
2071,2.071000,2476,4090994,-4268.47,-96.11,694.46
2072,2.072000,2477,4091994,-14741.47,-586.11,2052.46
2073,2.073000,2478,4092994,-25698.47,-1426.11,2986.46
2074,2.074000,2479,4093994,-23121.47,-374.11,1808.46
2075,2.075000,2480,4094994,-16976.47,543.89,1359.46
2076,2.076000,2481,4095994,-3827.47,221.89,3408.46
2077,2.077000,2482,4096994,6493.53,40.89,3828.46
2078,2.077999,2483,4097993,8718.53,-12.11,2023.46
2079,2.079000,2484,4098994,6625.53,647.89,-206.53999999999996
2080,2.080000,2485,4099994,3712.53,1117.89,-2779.54
2081,2.081000,2486,4100994,5794.53,1334.89,-3812.54
2082,2.081999,2487,4101993,7256.53,497.89,-3851.54
2083,2.082999,2488,4102993,6454.53,-711.11,-3324.54
2084,2.084000,2489,4103994,-222.47,-658.11,-3588.54
2085,2.085000,2490,4104994,-1017.47,131.89,-4132.54
2086,2.086000,2491,4105994,5357.53,465.89,-5660.54
2087,2.086999,2492,4106993,13202.53,72.89,-5337.54
2088,2.087999,2493,4107993,18859.53,-354.11,-1071.54
2089,2.089000,2494,4108994,13819.53,46.89,115.46000000000004
2090,2.090000,2495,4109994,1109.53,838.89,-585.54
2091,2.091000,2496,4110994,-8347.47,829.89,1759.46
2092,2.092000,2497,4111994,-7636.47,11.89,3536.46
2093,2.092999,2498,4112993,-1299.47,-530.11,3529.46
2094,2.094000,2499,4113994,4326.53,-884.11,4063.46
2095,2.095000,2500,4114994,4376.53,-774.11,3222.46
2096,2.095999,2501,4115993,-2885.47,-173.11,979.46
2097,2.097000,2502,4116994,-11697.47,-462.11,1653.46
2098,2.098000,2503,4117994,-23737.47,-1512.11,3211.46
2099,2.099000,2504,4118994,-24846.47,-696.11,2016.46
2100,2.100000,2505,4119994,-19330.47,563.89,918.46
2101,2.101000,2506,4120994,-7344.47,303.89,2926.46
2102,2.102000,2507,4121994,4756.53,93.89,3847.46
2103,2.103000,2508,4122994,8917.53,-146.11,2458.46
2104,2.104000,2509,4123994,8462.53,405.89,453.46000000000004
2105,2.105000,2510,4124994,3248.53,1153.89,-2254.54
2106,2.106000,2511,4125994,4850.53,1358.89,-3670.54
2107,2.107000,2512,4126994,7614.53,783.89,-3942.54
2108,2.108000,2513,4127994,6933.53,-486.11,-3288.54
2109,2.109000,2514,4128994,1988.53,-741.11,-3194.54
2110,2.110000,2515,4129994,-1809.47,80.89,-4045.54
2111,2.111000,2516,4130994,2842.53,483.89,-5438.54
2112,2.112000,2517,4131994,11267.53,126.89,-5737.54
2113,2.113000,2518,4132994,18387.53,-431.11,-1846.54
2114,2.113999,2519,4133993,16460.53,-56.11,208.46000000000004
2115,2.115000,2520,4134994,3645.53,772.89,-836.54
2116,2.116000,2521,4135994,-7133.47,870.89,1132.46
2117,2.117000,2522,4136994,-8161.47,135.89,3423.46
2118,2.118000,2523,4137994,-2648.47,-378.11,3490.46
2119,2.119000,2524,4138994,3255.53,-846.11,3874.46
2120,2.119999,2525,4139993,4864.53,-971.11,3536.46
2121,2.120999,2526,4140993,-1880.47,-304.11,1235.46
2122,2.122000,2527,4141994,-9391.47,-327.11,1237.46
2123,2.123000,2528,4142994,-20490.47,-1321.11,2938.46
2124,2.124000,2529,4143994,-24994.47,-881.11,2519.46
2125,2.125000,2530,4144994,-21753.47,495.89,1021.46
2126,2.126000,2531,4145994,-10467.47,303.89,2417.46
2127,2.127000,2532,4146994,2949.53,192.89,4055.46
2128,2.128000,2533,4147994,8693.53,-176.11,2982.46
2129,2.129000,2534,4148994,9088.53,232.89,866.46
2130,2.130000,2535,4149994,3750.53,1136.89,-1948.54
2131,2.131000,2536,4150994,4259.53,1287.89,-3516.54
2132,2.132000,2537,4151994,7329.53,932.89,-3999.54
2133,2.133000,2538,4152994,7729.53,-284.11,-3516.54
2134,2.134000,2539,4153994,3384.53,-741.11,-3270.54
2135,2.135000,2540,4154994,-2275.47,-20.11,-3951.54
2136,2.136000,2541,4155994,1385.53,358.89,-4788.54
2137,2.137000,2542,4156994,9394.53,267.89,-6003.54
2138,2.137999,2543,4157993,17327.53,-302.11,-3043.54
2139,2.139000,2544,4158994,18397.53,-291.11,347.46000000000004
2140,2.140000,2545,4159994,6466.53,586.89,-592.54
2141,2.141000,2546,4160994,-5428.47,906.89,370.46000000000004
2142,2.142000,2547,4161994,-9030.47,348.89,3049.46
2143,2.143000,2548,4162994,-4337.47,-243.11,3479.46
2144,2.144000,2549,4163994,2222.53,-740.11,3651.46
2145,2.144999,2550,4164993,5713.53,-1094.11,4101.46
2146,2.146000,2551,4165994,28.53,-437.11,1889.46
2147,2.146999,2552,4166993,-6662.47,-282.11,891.46
2148,2.148000,2553,4167994,-18644.47,-1100.11,2651.46
2149,2.149000,2554,4168994,-25716.47,-1173.11,2772.46
2150,2.150000,2555,4169994,-22914.47,283.89,1189.46
2151,2.151000,2556,4170994,-14108.47,537.89,1665.46
2152,2.152000,2557,4171994,1179.53,59.89,3789.46
2153,2.153000,2558,4172994,8353.53,-262.11,3371.46
2154,2.153999,2559,4173993,9647.53,165.89,1354.46
2155,2.155000,2560,4174994,4383.53,1022.89,-1239.54
2156,2.156000,2561,4175994,3651.53,1180.89,-3145.54
2157,2.157000,2562,4176994,6622.53,1221.89,-3891.54
2158,2.158000,2563,4177994,7448.53,93.89,-3719.54
2159,2.159000,2564,4178994,5414.53,-793.11,-3069.54
2160,2.160000,2565,4179994,-2314.47,-290.11,-3717.54
2161,2.160999,2566,4180993,691.53,256.89,-4428.54
2162,2.162000,2567,4181994,8153.53,423.89,-6004.54
2163,2.162999,2568,4182993,15200.53,-148.11,-4162.54
2164,2.164000,2569,4183994,19330.53,-345.11,-22.539999999999964
2165,2.165000,2570,4184994,9316.53,344.89,-340.53999999999996
2166,2.165999,2571,4185993,-2950.47,897.89,-174.53999999999996
2167,2.167000,2572,4186994,-8647.47,582.89,2679.46
2168,2.167999,2573,4187993,-6117.47,-187.11,3655.46
2169,2.169000,2574,4188994,639.53,-708.11,3614.46
2170,2.170000,2575,4189994,5134.53,-1129.11,4020.46
2171,2.170999,2576,4190993,1987.53,-550.11,2363.46
2172,2.171999,2577,4191993,-4529.47,-171.11,717.46
2173,2.173000,2578,4192994,-16405.47,-695.11,2089.46
2174,2.174000,2579,4193994,-25961.47,-1313.11,3011.46
2175,2.175000,2580,4194994,-22904.47,-252.11,1612.46
2176,2.176000,2581,4195994,-15787.47,563.89,1549.46
2177,2.177000,2582,4196994,-2247.47,237.89,3628.46
2178,2.178000,2583,4197994,7493.53,-94.11,3620.46
2179,2.179000,2584,4198994,8964.53,59.89,1774.46
2180,2.180000,2585,4199994,5765.53,755.89,-664.54
2181,2.181000,2586,4200994,3657.53,1131.89,-2958.54
2182,2.182000,2587,4201994,5641.53,1337.89,-3794.54
2183,2.183000,2588,4202994,7647.53,344.89,-3769.54
2184,2.184000,2589,4203994,6194.53,-818.11,-3153.54
2185,2.184999,2590,4204993,-1271.47,-485.11,-3486.54
2186,2.186000,2591,4205994,-333.47,176.89,-4134.54
2187,2.187000,2592,4206994,6327.53,486.89,-5877.54
2188,2.188000,2593,4207994,13841.53,50.89,-4927.54
2189,2.189000,2594,4208994,18814.53,-395.11,-623.54
2190,2.190000,2595,4209994,12604.53,130.89,-52.539999999999964
2191,2.190999,2596,4210993,-437.47,773.89,-673.54
2192,2.192000,2597,4211994,-8492.47,748.89,2042.46
2193,2.192999,2598,4212993,-7145.47,-32.11,3761.46
2194,2.194000,2599,4213994,-856.47,-558.11,3373.46
2195,2.195000,2600,4214994,5152.53,-1021.11,4000.46
2196,2.195999,2601,4215993,3307.53,-768.11,2983.46
2197,2.197000,2602,4216994,-2847.47,-119.11,983.46
2198,2.198000,2603,4217994,-13094.47,-529.11,1781.46
2199,2.199000,2604,4218994,-25093.47,-1410.11,2989.46
2200,2.200000,2605,4219994,-23949.47,-518.11,1846.46
2201,2.201000,2606,4220994,-17986.47,483.89,1049.46
2202,2.202000,2607,4221994,-5484.47,216.89,3272.46
2203,2.202999,2608,4222993,5635.53,108.89,3715.46
2204,2.204000,2609,4223994,9163.53,-29.11,2234.46
2205,2.204999,2610,4224993,7070.53,465.89,188.46000000000004
2206,2.206000,2611,4225994,3296.53,1090.89,-2524.54
2207,2.207000,2612,4226994,5124.53,1429.89,-3604.54
2208,2.208000,2613,4227994,7066.53,630.89,-3879.54
2209,2.208999,2614,4228993,7310.53,-637.11,-3200.54
2210,2.209999,2615,4229993,716.53,-672.11,-3288.54
2211,2.211000,2616,4230994,-1481.47,83.89,-4147.54
2212,2.212000,2617,4231994,3977.53,501.89,-5626.54
2213,2.213000,2618,4232994,11900.53,76.89,-5561.54
2214,2.213999,2619,4233993,18606.53,-313.11,-1495.54
2215,2.214999,2620,4234993,15485.53,-40.11,208.46000000000004
2216,2.216000,2621,4235994,2826.53,706.89,-705.54
2217,2.216999,2622,4236993,-7804.47,899.89,1232.46
2218,2.218000,2623,4237994,-7818.47,76.89,3620.46
2219,2.219000,2624,4238994,-2590.47,-485.11,3555.46
2220,2.220000,2625,4239994,3917.53,-786.11,3801.46
2221,2.221000,2626,4240994,4393.53,-866.11,3322.46
2222,2.221999,2627,4241993,-2503.47,-316.11,1051.46
2223,2.223000,2628,4242994,-9598.47,-405.11,1494.46
2224,2.224000,2629,4243994,-21705.47,-1444.11,3074.46
2225,2.225000,2630,4244994,-24550.47,-832.11,2451.46
2226,2.225999,2631,4245993,-21014.47,571.89,950.46
2227,2.227000,2632,4246994,-9232.47,325.89,2520.46
2228,2.227999,2633,4247993,3573.53,136.89,3838.46
2229,2.229000,2634,4248994,8627.53,-166.11,2637.46
2230,2.229999,2635,4249993,8952.53,356.89,735.46
2231,2.231000,2636,4250994,3378.53,1120.89,-2077.54
2232,2.232000,2637,4251994,4666.53,1274.89,-3487.54
2233,2.233000,2638,4252994,7058.53,961.89,-4062.54
2234,2.234000,2639,4253994,7605.53,-350.11,-3424.54
2235,2.235000,2640,4254994,3047.53,-755.11,-3170.54
2236,2.236000,2641,4255994,-2332.47,38.89,-3971.54
2237,2.237000,2642,4256994,2016.53,526.89,-5016.54
2238,2.238000,2643,4257994,10090.53,98.89,-5942.54
2239,2.239000,2644,4258994,17718.53,-345.11,-2493.54
2240,2.240000,2645,4259994,17530.53,-134.11,387.46000000000004
2241,2.240999,2646,4260993,5465.53,550.89,-722.54
2242,2.242000,2647,4261994,-6271.47,936.89,534.46
2243,2.242999,2648,4262993,-8900.47,295.89,3185.46
2244,2.243999,2649,4263993,-3817.47,-343.11,3564.46
2245,2.245000,2650,4264994,2937.53,-796.11,3689.46
2246,2.246000,2651,4265994,5514.53,-1048.11,3685.46
2247,2.247000,2652,4266994,-614.47,-410.11,1555.46
2248,2.248000,2653,4267994,-7457.47,-412.11,1251.46
2249,2.249000,2654,4268994,-19585.47,-1157.11,2685.46
2250,2.250000,2655,4269994,-25212.47,-942.11,2455.46
2251,2.251000,2656,4270994,-22262.47,220.89,1229.46
2252,2.251999,2657,4271993,-12569.47,481.89,1975.46
2253,2.253000,2658,4272994,2233.53,203.89,3820.46
2254,2.253999,2659,4273993,8291.53,-328.11,3145.46
2255,2.255000,2660,4274994,9218.53,229.89,1125.46
2256,2.256000,2661,4275994,3990.53,1103.89,-1415.54
2257,2.256999,2662,4276993,3352.53,1152.89,-3225.54
2258,2.258000,2663,4277994,6891.53,1143.89,-3867.54
2259,2.259000,2664,4278994,7642.53,-45.11,-3576.54
2260,2.260000,2665,4279994,4603.53,-755.11,-3230.54
2261,2.261000,2666,4280994,-2032.47,-154.11,-3711.54
2262,2.262000,2667,4281994,736.53,246.89,-4441.54
2263,2.263000,2668,4282994,8361.53,375.89,-6002.54
2264,2.264000,2669,4283994,15537.53,-182.11,-3830.54
2265,2.265000,2670,4284994,18788.53,-337.11,1.4600000000000364
2266,2.266000,2671,4285994,8753.53,425.89,-349.53999999999996
2267,2.267000,2672,4286994,-3368.47,903.89,13.460000000000036
2268,2.267999,2673,4287993,-8409.47,527.89,2756.46
2269,2.269000,2674,4288994,-5894.47,-181.11,3583.46
2270,2.270000,2675,4289994,871.53,-757.11,3743.46
2271,2.270999,2676,4290993,5141.53,-1053.11,4096.46
2272,2.272000,2677,4291994,1277.53,-419.11,2062.46
2273,2.272999,2678,4292993,-4464.47,-280.11,848.46
